"width","height","webaudio","browser","browser_version","mobile","os","fullscreen","vsync_rate","webcam","microphone","trial_type","trial_index","time_elapsed","internal_node_id","rt","response","accuracy","view_history","success","item_width_mm","item_height_mm","item_width_px","px2mm","view_dist_mm","item_width_deg","px2deg","scale_factor","win_width_deg","win_height_deg","stimulus","datetime","subjectID","curr_triallist","trial_no","timeout","failed_images","failed_audio","failed_video","image_index","category","blur","reps","correct","running_score"
"1280","665","true","chrome","140.0.0","false","Windows 10","true","60.12","true","true","browser-check","0","1004","0.0-0.0","","","","","","","","","","","","","","","","","","","","","","","","","","","","","",""
"","","","","","","","","","","","survey","1","33813","0.0-1.0","32752","{""P0_Q0"":""904094114"",""P0_Q1"":""18"",""P1_Q0"":""Female"",""P1_Q1"":""Not Hispanic or Latino"",""P1_Q2"":""White"",""P1_Q3"":""Normal"",""P1_Q4"":""Right-Handed""}","[]","","","","","","","","","","","","","","","","","","","","","","","","","","",""
"","","","","","","","","","","","instructions","2","37576","0.0-2.0","3762","","","[{""page_index"":0,""viewing_time"":1627},{""page_index"":1,""viewing_time"":732},{""page_index"":2,""viewing_time"":605},{""page_index"":3,""viewing_time"":798}]","","","","","","","","","","","","","","","","","","","","","","","","","",""
"","","","","","","","","","","","fullscreen","3","39440","0.0-3.0","858","","","","true","","","","","","","","","","","","","","","","","","","","","","","","",""
"","","","","","","","","","","","virtual-chinrest","4","100046","0.0-4.0","60604","","","","","85.6","53.98","303.0048608652028","3.5433355314291477","484.33","10.100162028840092","30","1.2079014143697904","42.666666666666664","26.666666666666668","","","","","","","","","","","","","","",""
"","","","","","","","","","","","instructions","5","162923","0.0-5.0","62876","","","[{""page_index"":0,""viewing_time"":6747},{""page_index"":1,""viewing_time"":5527},{""page_index"":2,""viewing_time"":12680},{""page_index"":3,""viewing_time"":5821},{""page_index"":4,""viewing_time"":8096},{""page_index"":5,""viewing_time"":20286},{""page_index"":6,""viewing_time"":3718}]","","","","","","","","","","","","","","","","","","","","","","","","","",""
"","","","","","","","","","","","html-button-response","6","167904","0.0-6.0","4979","0","","","","","","","","","","","","","","start_practice","Sun Oct 12 2025 11:33:45 GMT-0400 (Eastern Daylight Time)","27131","","","","","","","","","","","",""
"","","","","","","","","","","","preload","7","167906","0.0-7.0","","","","","true","","","","","","","","","","","preload","","","0","0","false","[]","[]","[]","","","","","",""
"","","","","","","","","","","","canvas-keyboard-response","8","168253","0.0-8.0","null","null","","","","","","","","","","","","","","fixation","","","0","0","","","","","","","","","",""
"","","","","","","","","","","","canvas-keyboard-response","9","168568","0.0-9.0","null","null","","","","","","","","","","","","","","stimulus","","","0","0","","","","","","","","","",""
"","","","","","","","","","","","canvas-button-response","10","172038","0.0-10.0","3464","train","","","","","","","","","","","","","","perceptual","","","0","0","","","","","62","train","1","","1",""
"","","","","","","","","","","","canvas-button-response","11","173273","0.0-11.0","1232","10","","","","","","","","","","","","","","confidence","","","0","0","","","","","","","","","","1"
"","","","","","","","","","","","html-keyboard-response","12","174278","0.0-12.0","null","null","","","","","","","","","","","","","","feedback","Sun Oct 12 2025 11:33:55 GMT-0400 (Eastern Daylight Time)","27131","0","0","","","","","","","","","",""
"","","","","","","","","","","","preload","13","174279","0.0-13.0","","","","","true","","","","","","","","","","","preload","","","0","1","false","[]","[]","[]","","","","","",""
"","","","","","","","","","","","canvas-keyboard-response","14","174586","0.0-14.0","null","null","","","","","","","","","","","","","","fixation","","","0","1","","","","","","","","","",""
"","","","","","","","","","","","canvas-keyboard-response","15","174894","0.0-15.0","null","null","","","","","","","","","","","","","","stimulus","","","0","1","","","","","","","","","",""
"","","","","","","","","","","","canvas-button-response","16","176575","0.0-16.0","1679","cat","","","","","","","","","","","","","","perceptual","","","0","1","","","","","72","cat","1","","1",""
"","","","","","","","","","","","canvas-button-response","17","177734","0.0-17.0","1156","10","","","","","","","","","","","","","","confidence","","","0","1","","","","","","","","","","2"
"","","","","","","","","","","","html-keyboard-response","18","178737","0.0-18.0","null","null","","","","","","","","","","","","","","feedback","Sun Oct 12 2025 11:34:00 GMT-0400 (Eastern Daylight Time)","27131","0","1","","","","","","","","","",""
"","","","","","","","","","","","preload","19","178738","0.0-19.0","","","","","true","","","","","","","","","","","preload","","","0","2","false","[]","[]","[]","","","","","",""
"","","","","","","","","","","","canvas-keyboard-response","20","179044","0.0-20.0","null","null","","","","","","","","","","","","","","fixation","","","0","2","","","","","","","","","",""
"","","","","","","","","","","","canvas-keyboard-response","21","179350","0.0-21.0","null","null","","","","","","","","","","","","","","stimulus","","","0","2","","","","","","","","","",""
"","","","","","","","","","","","canvas-button-response","22","181067","0.0-22.0","1714","bridge","","","","","","","","","","","","","","perceptual","","","0","2","","","","","42","bridge","1","","1",""
"","","","","","","","","","","","canvas-button-response","23","182532","0.0-23.0","1463","10","","","","","","","","","","","","","","confidence","","","0","2","","","","","","","","","","3"
"","","","","","","","","","","","html-keyboard-response","24","183537","0.0-24.0","null","null","","","","","","","","","","","","","","feedback","Sun Oct 12 2025 11:34:04 GMT-0400 (Eastern Daylight Time)","27131","0","2","","","","","","","","","",""
"","","","","","","","","","","","preload","25","183538","0.0-25.0","","","","","true","","","","","","","","","","","preload","","","0","3","false","[]","[]","[]","","","","","",""
"","","","","","","","","","","","canvas-keyboard-response","26","183849","0.0-26.0","null","null","","","","","","","","","","","","","","fixation","","","0","3","","","","","","","","","",""
"","","","","","","","","","","","canvas-keyboard-response","27","184167","0.0-27.0","null","null","","","","","","","","","","","","","","stimulus","","","0","3","","","","","","","","","",""
"","","","","","","","","","","","canvas-button-response","28","185793","0.0-28.0","1624","knife","","","","","","","","","","","","","","perceptual","","","0","3","","","","","92","knife","1","","1",""
"","","","","","","","","","","","canvas-button-response","29","187015","0.0-29.0","1219","10","","","","","","","","","","","","","","confidence","","","0","3","","","","","","","","","","4"
"","","","","","","","","","","","html-keyboard-response","30","188018","0.0-30.0","null","null","","","","","","","","","","","","","","feedback","Sun Oct 12 2025 11:34:09 GMT-0400 (Eastern Daylight Time)","27131","0","3","","","","","","","","","",""
"","","","","","","","","","","","preload","31","188018","0.0-31.0","","","","","true","","","","","","","","","","","preload","","","0","4","false","[]","[]","[]","","","","","",""
"","","","","","","","","","","","canvas-keyboard-response","32","188322","0.0-32.0","null","null","","","","","","","","","","","","","","fixation","","","0","4","","","","","","","","","",""
"","","","","","","","","","","","canvas-keyboard-response","33","188624","0.0-33.0","null","null","","","","","","","","","","","","","","stimulus","","","0","4","","","","","","","","","",""
"","","","","","","","","","","","canvas-button-response","34","190008","0.0-34.0","1382","car","","","","","","","","","","","","","","perceptual","","","0","4","","","","","12","car","1","","1",""
"","","","","","","","","","","","canvas-button-response","35","191851","0.0-35.0","1841","10","","","","","","","","","","","","","","confidence","","","0","4","","","","","","","","","","5"
"","","","","","","","","","","","html-keyboard-response","36","192861","0.0-36.0","null","null","","","","","","","","","","","","","","feedback","Sun Oct 12 2025 11:34:14 GMT-0400 (Eastern Daylight Time)","27131","0","4","","","","","","","","","",""
"","","","","","","","","","","","preload","37","192862","0.0-37.0","","","","","true","","","","","","","","","","","preload","","","0","5","false","[]","[]","[]","","","","","",""
"","","","","","","","","","","","canvas-keyboard-response","38","193165","0.0-38.0","null","null","","","","","","","","","","","","","","fixation","","","0","5","","","","","","","","","",""
"","","","","","","","","","","","canvas-keyboard-response","39","193468","0.0-39.0","null","null","","","","","","","","","","","","","","stimulus","","","0","5","","","","","","","","","",""
"","","","","","","","","","","","canvas-button-response","40","202074","0.0-40.0","8604","flower","","","","","","","","","","","","","","perceptual","","","0","5","","","","","82","elephant","1","","0",""
"","","","","","","","","","","","canvas-button-response","41","203788","0.0-41.0","1711","5","","","","","","","","","","","","","","confidence","","","0","5","","","","","","","","","","5"
"","","","","","","","","","","","html-keyboard-response","42","204802","0.0-42.0","null","null","","","","","","","","","","","","","","feedback","Sun Oct 12 2025 11:34:26 GMT-0400 (Eastern Daylight Time)","27131","0","5","","","","","","","","","",""
"","","","","","","","","","","","preload","43","204803","0.0-43.0","","","","","true","","","","","","","","","","","preload","","","0","6","false","[]","[]","[]","","","","","",""
"","","","","","","","","","","","canvas-keyboard-response","44","205112","0.0-44.0","null","null","","","","","","","","","","","","","","fixation","","","0","6","","","","","","","","","",""
"","","","","","","","","","","","canvas-keyboard-response","45","205416","0.0-45.0","null","null","","","","","","","","","","","","","","stimulus","","","0","6","","","","","","","","","",""
"","","","","","","","","","","","canvas-button-response","46","206414","0.0-46.0","995","house","","","","","","","","","","","","","","perceptual","","","0","6","","","","","2","house","1","","1",""
"","","","","","","","","","","","canvas-button-response","47","207555","0.0-47.0","1138","10","","","","","","","","","","","","","","confidence","","","0","6","","","","","","","","","","6"
"","","","","","","","","","","","html-keyboard-response","48","208573","0.0-48.0","null","null","","","","","","","","","","","","","","feedback","Sun Oct 12 2025 11:34:29 GMT-0400 (Eastern Daylight Time)","27131","0","6","","","","","","","","","",""
"","","","","","","","","","","","preload","49","208574","0.0-49.0","","","","","true","","","","","","","","","","","preload","","","0","7","false","[]","[]","[]","","","","","",""
"","","","","","","","","","","","canvas-keyboard-response","50","208885","0.0-50.0","null","null","","","","","","","","","","","","","","fixation","","","0","7","","","","","","","","","",""
"","","","","","","","","","","","canvas-keyboard-response","51","209196","0.0-51.0","null","null","","","","","","","","","","","","","","stimulus","","","0","7","","","","","","","","","",""
"","","","","","","","","","","","canvas-button-response","52","210391","0.0-52.0","1193","bed","","","","","","","","","","","","","","perceptual","","","0","7","","","","","32","bed","1","","1",""
"","","","","","","","","","","","canvas-button-response","53","211478","0.0-53.0","1085","10","","","","","","","","","","","","","","confidence","","","0","7","","","","","","","","","","7"
"","","","","","","","","","","","html-keyboard-response","54","212489","0.0-54.0","null","null","","","","","","","","","","","","","","feedback","Sun Oct 12 2025 11:34:33 GMT-0400 (Eastern Daylight Time)","27131","0","7","","","","","","","","","",""
"","","","","","","","","","","","preload","55","212490","0.0-55.0","","","","","true","","","","","","","","","","","preload","","","0","8","false","[]","[]","[]","","","","","",""
"","","","","","","","","","","","canvas-keyboard-response","56","212800","0.0-56.0","null","null","","","","","","","","","","","","","","fixation","","","0","8","","","","","","","","","",""
"","","","","","","","","","","","canvas-keyboard-response","57","213103","0.0-57.0","null","null","","","","","","","","","","","","","","stimulus","","","0","8","","","","","","","","","",""
"","","","","","","","","","","","canvas-button-response","58","215209","0.0-58.0","2104","flower","","","","","","","","","","","","","","perceptual","","","0","8","","","","","52","flower","1","","1",""
"","","","","","","","","","","","canvas-button-response","59","216397","0.0-59.0","1186","10","","","","","","","","","","","","","","confidence","","","0","8","","","","","","","","","","8"
"","","","","","","","","","","","html-keyboard-response","60","217406","0.0-60.0","null","null","","","","","","","","","","","","","","feedback","Sun Oct 12 2025 11:34:38 GMT-0400 (Eastern Daylight Time)","27131","0","8","","","","","","","","","",""
"","","","","","","","","","","","preload","61","217406","0.0-61.0","","","","","true","","","","","","","","","","","preload","","","0","9","false","[]","[]","[]","","","","","",""
"","","","","","","","","","","","canvas-keyboard-response","62","217709","0.0-62.0","null","null","","","","","","","","","","","","","","fixation","","","0","9","","","","","","","","","",""
"","","","","","","","","","","","canvas-keyboard-response","63","218019","0.0-63.0","null","null","","","","","","","","","","","","","","stimulus","","","0","9","","","","","","","","","",""
"","","","","","","","","","","","canvas-button-response","64","219015","0.0-64.0","994","phone","","","","","","","","","","","","","","perceptual","","","0","9","","","","","22","phone","1","","1",""
"","","","","","","","","","","","canvas-button-response","65","220082","0.0-65.0","1064","10","","","","","","","","","","","","","","confidence","","","0","9","","","","","","","","","","9"
"","","","","","","","","","","","html-keyboard-response","66","221099","0.0-66.0","null","null","","","","","","","","","","","","","","feedback","Sun Oct 12 2025 11:34:42 GMT-0400 (Eastern Daylight Time)","27131","0","9","","","","","","","","","",""
"","","","","","","","","","","","html-button-response","67","236609","0.0-67.0","15508","0","","","","","","","","","","","","","","start_practice","Sun Oct 12 2025 11:34:43 GMT-0400 (Eastern Daylight Time)","27131","0","9","","","","","","","","","",""
"","","","","","","","","","","","preload","68","236610","0.0-68.0","","","","","true","","","","","","","","","","","preload","","","1","0","false","[]","[]","[]","","","","","",""
"","","","","","","","","","","","canvas-keyboard-response","69","236919","0.0-69.0","null","null","","","","","","","","","","","","","","fixation","","","1","0","","","","","","","","","",""
"","","","","","","","","","","","canvas-keyboard-response","70","237230","0.0-70.0","null","null","","","","","","","","","","","","","","stimulus","","","1","0","","","","","","","","","",""
"","","","","","","","","","","","canvas-button-response","71","240906","0.0-71.0","3674","cat","","","","","","","","","","","","","","perceptual","","","1","0","","","","","47","bridge","10","","0",""
"","","","","","","","","","","","canvas-button-response","72","241941","0.0-72.0","1032","5","","","","","","","","","","","","","","confidence","","","1","0","","","","","","","","","","0"
"","","","","","","","","","","","html-keyboard-response","73","242946","0.0-73.0","null","null","","","","","","","","","","","","","","feedback","Sun Oct 12 2025 11:35:04 GMT-0400 (Eastern Daylight Time)","27131","1","0","","","","","","","","","",""
"","","","","","","","","","","","preload","74","242947","0.0-74.0","","","","","true","","","","","","","","","","","preload","","","1","1","false","[]","[]","[]","","","","","",""
"","","","","","","","","","","","canvas-keyboard-response","75","243252","0.0-75.0","null","null","","","","","","","","","","","","","","fixation","","","1","1","","","","","","","","","",""
"","","","","","","","","","","","canvas-keyboard-response","76","243564","0.0-76.0","null","null","","","","","","","","","","","","","","stimulus","","","1","1","","","","","","","","","",""
"","","","","","","","","","","","canvas-button-response","77","252842","0.0-77.0","9275","house","","","","","","","","","","","","","","perceptual","","","1","1","","","","","44","bridge","6","","0",""
"","","","","","","","","","","","canvas-button-response","78","253867","0.0-78.0","1023","5","","","","","","","","","","","","","","confidence","","","1","1","","","","","","","","","","0"
"","","","","","","","","","","","html-keyboard-response","79","254876","0.0-79.0","null","null","","","","","","","","","","","","","","feedback","Sun Oct 12 2025 11:35:16 GMT-0400 (Eastern Daylight Time)","27131","1","1","","","","","","","","","",""
"","","","","","","","","","","","preload","80","254876","0.0-80.0","","","","","true","","","","","","","","","","","preload","","","1","2","false","[]","[]","[]","","","","","",""
"","","","","","","","","","","","canvas-keyboard-response","81","255182","0.0-81.0","null","null","","","","","","","","","","","","","","fixation","","","1","2","","","","","","","","","",""
"","","","","","","","","","","","canvas-keyboard-response","82","255489","0.0-82.0","null","null","","","","","","","","","","","","","","stimulus","","","1","2","","","","","","","","","",""
"","","","","","","","","","","","canvas-button-response","83","261311","0.0-83.0","5819","train","","","","","","","","","","","","","","perceptual","","","1","2","","","","","37","bed","10","","0",""
"","","","","","","","","","","","canvas-button-response","84","262625","0.0-84.0","1312","5","","","","","","","","","","","","","","confidence","","","1","2","","","","","","","","","","0"
"","","","","","","","","","","","html-keyboard-response","85","263634","0.0-85.0","null","null","","","","","","","","","","","","","","feedback","Sun Oct 12 2025 11:35:24 GMT-0400 (Eastern Daylight Time)","27131","1","2","","","","","","","","","",""
"","","","","","","","","","","","preload","86","263634","0.0-86.0","","","","","true","","","","","","","","","","","preload","","","1","3","false","[]","[]","[]","","","","","",""
"","","","","","","","","","","","canvas-keyboard-response","87","263949","0.0-87.0","null","null","","","","","","","","","","","","","","fixation","","","1","3","","","","","","","","","",""
"","","","","","","","","","","","canvas-keyboard-response","88","264264","0.0-88.0","null","null","","","","","","","","","","","","","","stimulus","","","1","3","","","","","","","","","",""
"","","","","","","","","","","","canvas-button-response","89","265295","0.0-89.0","1029","house","","","","","","","","","","","","","","perceptual","","","1","3","","","","","4","house","6","","1",""
"","","","","","","","","","","","canvas-button-response","90","266113","0.0-90.0","816","10","","","","","","","","","","","","","","confidence","","","1","3","","","","","","","","","","1"
"","","","","","","","","","","","html-keyboard-response","91","267123","0.0-91.0","null","null","","","","","","","","","","","","","","feedback","Sun Oct 12 2025 11:35:28 GMT-0400 (Eastern Daylight Time)","27131","1","3","","","","","","","","","",""
"","","","","","","","","","","","preload","92","267124","0.0-92.0","","","","","true","","","","","","","","","","","preload","","","1","4","false","[]","[]","[]","","","","","",""
"","","","","","","","","","","","canvas-keyboard-response","93","267431","0.0-93.0","null","null","","","","","","","","","","","","","","fixation","","","1","4","","","","","","","","","",""
"","","","","","","","","","","","canvas-keyboard-response","94","267742","0.0-94.0","null","null","","","","","","","","","","","","","","stimulus","","","1","4","","","","","","","","","",""
"","","","","","","","","","","","canvas-button-response","95","273991","0.0-95.0","6245","flower","","","","","","","","","","","","","","perceptual","","","1","4","","","","","74","cat","6","","0",""
"","","","","","","","","","","","canvas-button-response","96","275069","0.0-96.0","1076","3","","","","","","","","","","","","","","confidence","","","1","4","","","","","","","","","","1"
"","","","","","","","","","","","html-keyboard-response","97","276077","0.0-97.0","null","null","","","","","","","","","","","","","","feedback","Sun Oct 12 2025 11:35:37 GMT-0400 (Eastern Daylight Time)","27131","1","4","","","","","","","","","",""
"","","","","","","","","","","","preload","98","276078","0.0-98.0","","","","","true","","","","","","","","","","","preload","","","1","5","false","[]","[]","[]","","","","","",""
"","","","","","","","","","","","canvas-keyboard-response","99","276383","0.0-99.0","null","null","","","","","","","","","","","","","","fixation","","","1","5","","","","","","","","","",""
"","","","","","","","","","","","canvas-keyboard-response","100","276691","0.0-100.0","null","null","","","","","","","","","","","","","","stimulus","","","1","5","","","","","","","","","",""
"","","","","","","","","","","","canvas-button-response","101","278047","0.0-101.0","1354","train","","","","","","","","","","","","","","perceptual","","","1","5","","","","","64","train","6","","1",""
"","","","","","","","","","","","canvas-button-response","102","278633","0.0-102.0","583","10","","","","","","","","","","","","","","confidence","","","1","5","","","","","","","","","","2"
"","","","","","","","","","","","html-keyboard-response","103","279635","0.0-103.0","null","null","","","","","","","","","","","","","","feedback","Sun Oct 12 2025 11:35:40 GMT-0400 (Eastern Daylight Time)","27131","1","5","","","","","","","","","",""
"","","","","","","","","","","","preload","104","279636","0.0-104.0","","","","","true","","","","","","","","","","","preload","","","1","6","false","[]","[]","[]","","","","","",""
"","","","","","","","","","","","canvas-keyboard-response","105","279939","0.0-105.0","null","null","","","","","","","","","","","","","","fixation","","","1","6","","","","","","","","","",""
"","","","","","","","","","","","canvas-keyboard-response","106","280249","0.0-106.0","null","null","","","","","","","","","","","","","","stimulus","","","1","6","","","","","","","","","",""
"","","","","","","","","","","","canvas-button-response","107","282224","0.0-107.0","1973","car","","","","","","","","","","","","","","perceptual","","","1","6","","","","","14","car","6","","1",""
"","","","","","","","","","","","canvas-button-response","108","283033","0.0-108.0","806","10","","","","","","","","","","","","","","confidence","","","1","6","","","","","","","","","","3"
"","","","","","","","","","","","html-keyboard-response","109","284046","0.0-109.0","null","null","","","","","","","","","","","","","","feedback","Sun Oct 12 2025 11:35:45 GMT-0400 (Eastern Daylight Time)","27131","1","6","","","","","","","","","",""
"","","","","","","","","","","","preload","110","284047","0.0-110.0","","","","","true","","","","","","","","","","","preload","","","1","7","false","[]","[]","[]","","","","","",""
"","","","","","","","","","","","canvas-keyboard-response","111","284350","0.0-111.0","null","null","","","","","","","","","","","","","","fixation","","","1","7","","","","","","","","","",""
"","","","","","","","","","","","canvas-keyboard-response","112","284658","0.0-112.0","null","null","","","","","","","","","","","","","","stimulus","","","1","7","","","","","","","","","",""
"","","","","","","","","","","","canvas-button-response","113","286395","0.0-113.0","1735","phone","","","","","","","","","","","","","","perceptual","","","1","7","","","","","24","phone","6","","1",""
"","","","","","","","","","","","canvas-button-response","114","287067","0.0-114.0","669","10","","","","","","","","","","","","","","confidence","","","1","7","","","","","","","","","","4"
"","","","","","","","","","","","html-keyboard-response","115","288079","0.0-115.0","null","null","","","","","","","","","","","","","","feedback","Sun Oct 12 2025 11:35:49 GMT-0400 (Eastern Daylight Time)","27131","1","7","","","","","","","","","",""
"","","","","","","","","","","","preload","116","288080","0.0-116.0","","","","","true","","","","","","","","","","","preload","","","1","8","false","[]","[]","[]","","","","","",""
"","","","","","","","","","","","canvas-keyboard-response","117","288385","0.0-117.0","null","null","","","","","","","","","","","","","","fixation","","","1","8","","","","","","","","","",""
"","","","","","","","","","","","canvas-keyboard-response","118","288693","0.0-118.0","null","null","","","","","","","","","","","","","","stimulus","","","1","8","","","","","","","","","",""
"","","","","","","","","","","","canvas-button-response","119","291572","0.0-119.0","2877","elephant","","","","","","","","","","","","","","perceptual","","","1","8","","","","","17","car","10","","0",""
"","","","","","","","","","","","canvas-button-response","120","292248","0.0-120.0","674","5","","","","","","","","","","","","","","confidence","","","1","8","","","","","","","","","","4"
"","","","","","","","","","","","html-keyboard-response","121","293251","0.0-121.0","null","null","","","","","","","","","","","","","","feedback","Sun Oct 12 2025 11:35:54 GMT-0400 (Eastern Daylight Time)","27131","1","8","","","","","","","","","",""
"","","","","","","","","","","","preload","122","293252","0.0-122.0","","","","","true","","","","","","","","","","","preload","","","1","9","false","[]","[]","[]","","","","","",""
"","","","","","","","","","","","canvas-keyboard-response","123","293566","0.0-123.0","null","null","","","","","","","","","","","","","","fixation","","","1","9","","","","","","","","","",""
"","","","","","","","","","","","canvas-keyboard-response","124","293872","0.0-124.0","null","null","","","","","","","","","","","","","","stimulus","","","1","9","","","","","","","","","",""
"","","","","","","","","","","","canvas-button-response","125","295216","0.0-125.0","1341","flower","","","","","","","","","","","","","","perceptual","","","1","9","","","","","57","flower","10","","1",""
"","","","","","","","","","","","canvas-button-response","126","297544","0.0-126.0","2326","7","","","","","","","","","","","","","","confidence","","","1","9","","","","","","","","","","5"
"","","","","","","","","","","","html-keyboard-response","127","298551","0.0-127.0","null","null","","","","","","","","","","","","","","feedback","Sun Oct 12 2025 11:35:59 GMT-0400 (Eastern Daylight Time)","27131","1","9","","","","","","","","","",""
"","","","","","","","","","","","preload","128","298552","0.0-128.0","","","","","true","","","","","","","","","","","preload","","","1","10","false","[]","[]","[]","","","","","",""
"","","","","","","","","","","","canvas-keyboard-response","129","298858","0.0-129.0","null","null","","","","","","","","","","","","","","fixation","","","1","10","","","","","","","","","",""
"","","","","","","","","","","","canvas-keyboard-response","130","299168","0.0-130.0","null","null","","","","","","","","","","","","","","stimulus","","","1","10","","","","","","","","","",""
"","","","","","","","","","","","canvas-button-response","131","304746","0.0-131.0","5576","phone","","","","","","","","","","","","","","perceptual","","","1","10","","","","","94","knife","6","","0",""
"","","","","","","","","","","","canvas-button-response","132","305840","0.0-132.0","1091","7","","","","","","","","","","","","","","confidence","","","1","10","","","","","","","","","","5"
"","","","","","","","","","","","html-keyboard-response","133","306848","0.0-133.0","null","null","","","","","","","","","","","","","","feedback","Sun Oct 12 2025 11:36:08 GMT-0400 (Eastern Daylight Time)","27131","1","10","","","","","","","","","",""
"","","","","","","","","","","","preload","134","306849","0.0-134.0","","","","","true","","","","","","","","","","","preload","","","1","11","false","[]","[]","[]","","","","","",""
"","","","","","","","","","","","canvas-keyboard-response","135","307157","0.0-135.0","null","null","","","","","","","","","","","","","","fixation","","","1","11","","","","","","","","","",""
"","","","","","","","","","","","canvas-keyboard-response","136","307467","0.0-136.0","null","null","","","","","","","","","","","","","","stimulus","","","1","11","","","","","","","","","",""
"","","","","","","","","","","","canvas-button-response","137","308437","0.0-137.0","967","knife","","","","","","","","","","","","","","perceptual","","","1","11","","","","","97","knife","10","","1",""
"","","","","","","","","","","","canvas-button-response","138","309176","0.0-138.0","737","10","","","","","","","","","","","","","","confidence","","","1","11","","","","","","","","","","6"
"","","","","","","","","","","","html-keyboard-response","139","310185","0.0-139.0","null","null","","","","","","","","","","","","","","feedback","Sun Oct 12 2025 11:36:11 GMT-0400 (Eastern Daylight Time)","27131","1","11","","","","","","","","","",""
"","","","","","","","","","","","preload","140","310186","0.0-140.0","","","","","true","","","","","","","","","","","preload","","","1","12","false","[]","[]","[]","","","","","",""
"","","","","","","","","","","","canvas-keyboard-response","141","310496","0.0-141.0","null","null","","","","","","","","","","","","","","fixation","","","1","12","","","","","","","","","",""
"","","","","","","","","","","","canvas-keyboard-response","142","310811","0.0-142.0","null","null","","","","","","","","","","","","","","stimulus","","","1","12","","","","","","","","","",""
"","","","","","","","","","","","canvas-button-response","143","312557","0.0-143.0","1743","house","","","","","","","","","","","","","","perceptual","","","1","12","","","","","7","house","10","","1",""
"","","","","","","","","","","","canvas-button-response","144","313359","0.0-144.0","800","5","","","","","","","","","","","","","","confidence","","","1","12","","","","","","","","","","7"
"","","","","","","","","","","","html-keyboard-response","145","314366","0.0-145.0","null","null","","","","","","","","","","","","","","feedback","Sun Oct 12 2025 11:36:15 GMT-0400 (Eastern Daylight Time)","27131","1","12","","","","","","","","","",""
"","","","","","","","","","","","preload","146","314367","0.0-146.0","","","","","true","","","","","","","","","","","preload","","","1","13","false","[]","[]","[]","","","","","",""
"","","","","","","","","","","","canvas-keyboard-response","147","314676","0.0-147.0","null","null","","","","","","","","","","","","","","fixation","","","1","13","","","","","","","","","",""
"","","","","","","","","","","","canvas-keyboard-response","148","314986","0.0-148.0","null","null","","","","","","","","","","","","","","stimulus","","","1","13","","","","","","","","","",""
"","","","","","","","","","","","canvas-button-response","149","316098","0.0-149.0","1110","bed","","","","","","","","","","","","","","perceptual","","","1","13","","","","","34","bed","6","","1",""
"","","","","","","","","","","","canvas-button-response","150","316901","0.0-150.0","801","10","","","","","","","","","","","","","","confidence","","","1","13","","","","","","","","","","8"
"","","","","","","","","","","","html-keyboard-response","151","317917","0.0-151.0","null","null","","","","","","","","","","","","","","feedback","Sun Oct 12 2025 11:36:19 GMT-0400 (Eastern Daylight Time)","27131","1","13","","","","","","","","","",""
"","","","","","","","","","","","preload","152","317918","0.0-152.0","","","","","true","","","","","","","","","","","preload","","","1","14","false","[]","[]","[]","","","","","",""
"","","","","","","","","","","","canvas-keyboard-response","153","318227","0.0-153.0","null","null","","","","","","","","","","","","","","fixation","","","1","14","","","","","","","","","",""
"","","","","","","","","","","","canvas-keyboard-response","154","318528","0.0-154.0","null","null","","","","","","","","","","","","","","stimulus","","","1","14","","","","","","","","","",""
"","","","","","","","","","","","canvas-button-response","155","321367","0.0-155.0","2836","flower","","","","","","","","","","","","","","perceptual","","","1","14","","","","","87","elephant","10","","0",""
"","","","","","","","","","","","canvas-button-response","156","322120","0.0-156.0","751","7","","","","","","","","","","","","","","confidence","","","1","14","","","","","","","","","","8"
"","","","","","","","","","","","html-keyboard-response","157","323129","0.0-157.0","null","null","","","","","","","","","","","","","","feedback","Sun Oct 12 2025 11:36:24 GMT-0400 (Eastern Daylight Time)","27131","1","14","","","","","","","","","",""
"","","","","","","","","","","","preload","158","323130","0.0-158.0","","","","","true","","","","","","","","","","","preload","","","1","15","false","[]","[]","[]","","","","","",""
"","","","","","","","","","","","canvas-keyboard-response","159","323446","0.0-159.0","null","null","","","","","","","","","","","","","","fixation","","","1","15","","","","","","","","","",""
"","","","","","","","","","","","canvas-keyboard-response","160","323756","0.0-160.0","null","null","","","","","","","","","","","","","","stimulus","","","1","15","","","","","","","","","",""
"","","","","","","","","","","","canvas-button-response","161","327422","0.0-161.0","3663","car","","","","","","","","","","","","","","perceptual","","","1","15","","","","","67","train","10","","0",""
"","","","","","","","","","","","canvas-button-response","162","328585","0.0-162.0","1161","4","","","","","","","","","","","","","","confidence","","","1","15","","","","","","","","","","8"
"","","","","","","","","","","","html-keyboard-response","163","329589","0.0-163.0","null","null","","","","","","","","","","","","","","feedback","Sun Oct 12 2025 11:36:30 GMT-0400 (Eastern Daylight Time)","27131","1","15","","","","","","","","","",""
"","","","","","","","","","","","preload","164","329590","0.0-164.0","","","","","true","","","","","","","","","","","preload","","","1","16","false","[]","[]","[]","","","","","",""
"","","","","","","","","","","","canvas-keyboard-response","165","329899","0.0-165.0","null","null","","","","","","","","","","","","","","fixation","","","1","16","","","","","","","","","",""
"","","","","","","","","","","","canvas-keyboard-response","166","330203","0.0-166.0","null","null","","","","","","","","","","","","","","stimulus","","","1","16","","","","","","","","","",""
"","","","","","","","","","","","canvas-button-response","167","333368","0.0-167.0","3162","house","","","","","","","","","","","","","","perceptual","","","1","16","","","","","84","elephant","6","","0",""
"","","","","","","","","","","","canvas-button-response","168","334347","0.0-168.0","977","8","","","","","","","","","","","","","","confidence","","","1","16","","","","","","","","","","8"
"","","","","","","","","","","","html-keyboard-response","169","335355","0.0-169.0","null","null","","","","","","","","","","","","","","feedback","Sun Oct 12 2025 11:36:36 GMT-0400 (Eastern Daylight Time)","27131","1","16","","","","","","","","","",""
"","","","","","","","","","","","preload","170","335356","0.0-170.0","","","","","true","","","","","","","","","","","preload","","","1","17","false","[]","[]","[]","","","","","",""
"","","","","","","","","","","","canvas-keyboard-response","171","335663","0.0-171.0","null","null","","","","","","","","","","","","","","fixation","","","1","17","","","","","","","","","",""
"","","","","","","","","","","","canvas-keyboard-response","172","335968","0.0-172.0","null","null","","","","","","","","","","","","","","stimulus","","","1","17","","","","","","","","","",""
"","","","","","","","","","","","canvas-button-response","173","340972","0.0-173.0","5001","knife","","","","","","","","","","","","","","perceptual","","","1","17","","","","","77","cat","10","","0",""
"","","","","","","","","","","","canvas-button-response","174","341683","0.0-174.0","709","7","","","","","","","","","","","","","","confidence","","","1","17","","","","","","","","","","8"
"","","","","","","","","","","","html-keyboard-response","175","342700","0.0-175.0","null","null","","","","","","","","","","","","","","feedback","Sun Oct 12 2025 11:36:43 GMT-0400 (Eastern Daylight Time)","27131","1","17","","","","","","","","","",""
"","","","","","","","","","","","preload","176","342700","0.0-176.0","","","","","true","","","","","","","","","","","preload","","","1","18","false","[]","[]","[]","","","","","",""
"","","","","","","","","","","","canvas-keyboard-response","177","343008","0.0-177.0","null","null","","","","","","","","","","","","","","fixation","","","1","18","","","","","","","","","",""
"","","","","","","","","","","","canvas-keyboard-response","178","343316","0.0-178.0","null","null","","","","","","","","","","","","","","stimulus","","","1","18","","","","","","","","","",""
"","","","","","","","","","","","canvas-button-response","179","351352","0.0-179.0","8033","flower","","","","","","","","","","","","","","perceptual","","","1","18","","","","","54","flower","6","","1",""
"","","","","","","","","","","","canvas-button-response","180","352379","0.0-180.0","1025","5","","","","","","","","","","","","","","confidence","","","1","18","","","","","","","","","","9"
"","","","","","","","","","","","html-keyboard-response","181","353390","0.0-181.0","null","null","","","","","","","","","","","","","","feedback","Sun Oct 12 2025 11:36:54 GMT-0400 (Eastern Daylight Time)","27131","1","18","","","","","","","","","",""
"","","","","","","","","","","","preload","182","353391","0.0-182.0","","","","","true","","","","","","","","","","","preload","","","1","19","false","[]","[]","[]","","","","","",""
"","","","","","","","","","","","canvas-keyboard-response","183","353698","0.0-183.0","null","null","","","","","","","","","","","","","","fixation","","","1","19","","","","","","","","","",""
"","","","","","","","","","","","canvas-keyboard-response","184","354009","0.0-184.0","null","null","","","","","","","","","","","","","","stimulus","","","1","19","","","","","","","","","",""
"","","","","","","","","","","","canvas-button-response","185","357464","0.0-185.0","3453","knife","","","","","","","","","","","","","","perceptual","","","1","19","","","","","27","phone","10","","0",""
"","","","","","","","","","","","canvas-button-response","186","358950","0.0-186.0","1483","6","","","","","","","","","","","","","","confidence","","","1","19","","","","","","","","","","9"
"","","","","","","","","","","","html-keyboard-response","187","359964","0.0-187.0","null","null","","","","","","","","","","","","","","feedback","Sun Oct 12 2025 11:37:01 GMT-0400 (Eastern Daylight Time)","27131","1","19","","","","","","","","","",""
"","","","","","","","","","","","html-button-response","188","383591","0.0-188.0","23625","0","","","","","","","","","","","","","","start experiment","Sun Oct 12 2025 11:37:02 GMT-0400 (Eastern Daylight Time)","27131","1","19","","","","","","","","","",""
"","","","","","","","","","","","preload","189","383592","0.0-189.0","","","","","true","","","","","","","","","","","preload","","","2","0","false","[]","[]","[]","","","","","",""
"","","","","","","","","","","","canvas-keyboard-response","190","383897","0.0-190.0","null","null","","","","","","","","","","","","","","fixation","","","2","0","","","","","","","","","",""
"","","","","","","","","","","","canvas-keyboard-response","191","384205","0.0-191.0","null","null","","","","","","","","","","","","","","stimulus","","","2","0","","","","","","","","","",""
"","","","","","","","","","","","canvas-button-response","192","392991","0.0-192.0","8783","bridge","","","","","","","","","","","","","","perceptual","","","2","0","","","","","289","cat","6","0","0",""
"","","","","","","","","","","","canvas-button-response","193","393766","0.0-193.0","773","6","","","","","","","","","","","","","","confidence","","","2","0","","","","","","","","","","0"
"","","","","","","","","","","","preload","194","393767","0.0-194.0","","","","","true","","","","","","","","","","","preload","","","2","1","false","[]","[]","[]","","","","","",""
"","","","","","","","","","","","canvas-keyboard-response","195","394075","0.0-195.0","null","null","","","","","","","","","","","","","","fixation","","","2","1","","","","","","","","","",""
"","","","","","","","","","","","canvas-keyboard-response","196","394383","0.0-196.0","null","null","","","","","","","","","","","","","","stimulus","","","2","1","","","","","","","","","",""
"","","","","","","","","","","","canvas-button-response","197","396563","0.0-197.0","2178","train","","","","","","","","","","","","","","perceptual","","","2","1","","","","","241","train","6","0","1",""
"","","","","","","","","","","","canvas-button-response","198","397204","0.0-198.0","638","10","","","","","","","","","","","","","","confidence","","","2","1","","","","","","","","","","1"
"","","","","","","","","","","","preload","199","397205","0.0-199.0","","","","","true","","","","","","","","","","","preload","","","2","2","false","[]","[]","[]","","","","","",""
"","","","","","","","","","","","canvas-keyboard-response","200","397508","0.0-200.0","null","null","","","","","","","","","","","","","","fixation","","","2","2","","","","","","","","","",""
"","","","","","","","","","","","canvas-keyboard-response","201","397812","0.0-201.0","null","null","","","","","","","","","","","","","","stimulus","","","2","2","","","","","","","","","",""
"","","","","","","","","","","","canvas-button-response","202","398861","0.0-202.0","1046","flower","","","","","","","","","","","","","","perceptual","","","2","2","","","","","216","flower","6","0","1",""
"","","","","","","","","","","","canvas-button-response","203","400003","0.0-203.0","1140","10","","","","","","","","","","","","","","confidence","","","2","2","","","","","","","","","","2"
"","","","","","","","","","","","preload","204","400004","0.0-204.0","","","","","true","","","","","","","","","","","preload","","","2","3","false","[]","[]","[]","","","","","",""
"","","","","","","","","","","","canvas-keyboard-response","205","400306","0.0-205.0","null","null","","","","","","","","","","","","","","fixation","","","2","3","","","","","","","","","",""
"","","","","","","","","","","","canvas-keyboard-response","206","400619","0.0-206.0","null","null","","","","","","","","","","","","","","stimulus","","","2","3","","","","","","","","","",""
"","","","","","","","","","","","canvas-button-response","207","401823","0.0-207.0","1201","bridge","","","","","","","","","","","","","","perceptual","","","2","3","","","","","169","bridge","6","0","1",""
"","","","","","","","","","","","canvas-button-response","208","402806","0.0-208.0","981","10","","","","","","","","","","","","","","confidence","","","2","3","","","","","","","","","","3"
"","","","","","","","","","","","preload","209","402807","0.0-209.0","","","","","true","","","","","","","","","","","preload","","","2","4","false","[]","[]","[]","","","","","",""
"","","","","","","","","","","","canvas-keyboard-response","210","403115","0.0-210.0","null","null","","","","","","","","","","","","","","fixation","","","2","4","","","","","","","","","",""
"","","","","","","","","","","","canvas-keyboard-response","211","403432","0.0-211.0","null","null","","","","","","","","","","","","","","stimulus","","","2","4","","","","","","","","","",""
"","","","","","","","","","","","canvas-button-response","212","404721","0.0-212.0","1287","elephant","","","","","","","","","","","","","","perceptual","","","2","4","","","","","338","elephant","6","0","1",""
"","","","","","","","","","","","canvas-button-response","213","405360","0.0-213.0","637","10","","","","","","","","","","","","","","confidence","","","2","4","","","","","","","","","","4"
"","","","","","","","","","","","preload","214","405361","0.0-214.0","","","","","true","","","","","","","","","","","preload","","","2","5","false","[]","[]","[]","","","","","",""
"","","","","","","","","","","","canvas-keyboard-response","215","405669","0.0-215.0","null","null","","","","","","","","","","","","","","fixation","","","2","5","","","","","","","","","",""
"","","","","","","","","","","","canvas-keyboard-response","216","405979","0.0-216.0","null","null","","","","","","","","","","","","","","stimulus","","","2","5","","","","","","","","","",""
"","","","","","","","","","","","canvas-button-response","217","408568","0.0-217.0","2586","house","","","","","","","","","","","","","","perceptual","","","2","5","","","","","76","car","10","0","0",""
"","","","","","","","","","","","canvas-button-response","218","409756","0.0-218.0","1186","5","","","","","","","","","","","","","","confidence","","","2","5","","","","","","","","","","4"
"","","","","","","","","","","","preload","219","409756","0.0-219.0","","","","","true","","","","","","","","","","","preload","","","2","6","false","[]","[]","[]","","","","","",""
"","","","","","","","","","","","canvas-keyboard-response","220","410064","0.0-220.0","null","null","","","","","","","","","","","","","","fixation","","","2","6","","","","","","","","","",""
"","","","","","","","","","","","canvas-keyboard-response","221","410374","0.0-221.0","null","null","","","","","","","","","","","","","","stimulus","","","2","6","","","","","","","","","",""
"","","","","","","","","","","","canvas-button-response","222","413864","0.0-222.0","3488","car","","","","","","","","","","","","","","perceptual","","","2","6","","","","","269","train","10","0","0",""
"","","","","","","","","","","","canvas-button-response","223","414761","0.0-223.0","895","8","","","","","","","","","","","","","","confidence","","","2","6","","","","","","","","","","4"
"","","","","","","","","","","","preload","224","414762","0.0-224.0","","","","","true","","","","","","","","","","","preload","","","2","7","false","[]","[]","[]","","","","","",""
"","","","","","","","","","","","canvas-keyboard-response","225","415064","0.0-225.0","null","null","","","","","","","","","","","","","","fixation","","","2","7","","","","","","","","","",""
"","","","","","","","","","","","canvas-keyboard-response","226","415370","0.0-226.0","null","null","","","","","","","","","","","","","","stimulus","","","2","7","","","","","","","","","",""
"","","","","","","","","","","","canvas-button-response","227","416744","0.0-227.0","1372","car","","","","","","","","","","","","","","perceptual","","","2","7","","","","","41","car","6","0","1",""
"","","","","","","","","","","","canvas-button-response","228","417839","0.0-228.0","1093","8","","","","","","","","","","","","","","confidence","","","2","7","","","","","","","","","","5"
"","","","","","","","","","","","preload","229","417840","0.0-229.0","","","","","true","","","","","","","","","","","preload","","","2","8","false","[]","[]","[]","","","","","",""
"","","","","","","","","","","","canvas-keyboard-response","230","418148","0.0-230.0","null","null","","","","","","","","","","","","","","fixation","","","2","8","","","","","","","","","",""
"","","","","","","","","","","","canvas-keyboard-response","231","418464","0.0-231.0","null","null","","","","","","","","","","","","","","stimulus","","","2","8","","","","","","","","","",""
"","","","","","","","","","","","canvas-button-response","232","422596","0.0-232.0","4129","house","","","","","","","","","","","","","","perceptual","","","2","8","","","","","191","bridge","10","0","0",""
"","","","","","","","","","","","canvas-button-response","233","423435","0.0-233.0","837","5","","","","","","","","","","","","","","confidence","","","2","8","","","","","","","","","","5"
"","","","","","","","","","","","preload","234","423436","0.0-234.0","","","","","true","","","","","","","","","","","preload","","","2","9","false","[]","[]","[]","","","","","",""
"","","","","","","","","","","","canvas-keyboard-response","235","423752","0.0-235.0","null","null","","","","","","","","","","","","","","fixation","","","2","9","","","","","","","","","",""
"","","","","","","","","","","","canvas-keyboard-response","236","424057","0.0-236.0","null","null","","","","","","","","","","","","","","stimulus","","","2","9","","","","","","","","","",""
"","","","","","","","","","","","canvas-button-response","237","433162","0.0-237.0","9102","flower","","","","","","","","","","","","","","perceptual","","","2","9","","","","","230","flower","10","0","1",""
"","","","","","","","","","","","canvas-button-response","238","434150","0.0-238.0","987","5","","","","","","","","","","","","","","confidence","","","2","9","","","","","","","","","","6"
"","","","","","","","","","","","preload","239","434151","0.0-239.0","","","","","true","","","","","","","","","","","preload","","","2","10","false","[]","[]","[]","","","","","",""
"","","","","","","","","","","","canvas-keyboard-response","240","434459","0.0-240.0","null","null","","","","","","","","","","","","","","fixation","","","2","10","","","","","","","","","",""
"","","","","","","","","","","","canvas-keyboard-response","241","434773","0.0-241.0","null","null","","","","","","","","","","","","","","stimulus","","","2","10","","","","","","","","","",""
"","","","","","","","","","","","canvas-button-response","242","436406","0.0-242.0","1630","phone","","","","","","","","","","","","","","perceptual","","","2","10","","","","","104","phone","10","0","1",""
"","","","","","","","","","","","canvas-button-response","243","437500","0.0-243.0","1092","8","","","","","","","","","","","","","","confidence","","","2","10","","","","","","","","","","7"
"","","","","","","","","","","","preload","244","437501","0.0-244.0","","","","","true","","","","","","","","","","","preload","","","2","11","false","[]","[]","[]","","","","","",""
"","","","","","","","","","","","canvas-keyboard-response","245","437808","0.0-245.0","null","null","","","","","","","","","","","","","","fixation","","","2","11","","","","","","","","","",""
"","","","","","","","","","","","canvas-keyboard-response","246","438119","0.0-246.0","null","null","","","","","","","","","","","","","","stimulus","","","2","11","","","","","","","","","",""
"","","","","","","","","","","","canvas-button-response","247","440232","0.0-247.0","2111","elephant","","","","","","","","","","","","","","perceptual","","","2","11","","","","","179","bridge","6","0","0",""
"","","","","","","","","","","","canvas-button-response","248","440944","0.0-248.0","709","8","","","","","","","","","","","","","","confidence","","","2","11","","","","","","","","","","7"
"","","","","","","","","","","","preload","249","440945","0.0-249.0","","","","","true","","","","","","","","","","","preload","","","2","12","false","[]","[]","[]","","","","","",""
"","","","","","","","","","","","canvas-keyboard-response","250","441252","0.0-250.0","null","null","","","","","","","","","","","","","","fixation","","","2","12","","","","","","","","","",""
"","","","","","","","","","","","canvas-keyboard-response","251","441554","0.0-251.0","null","null","","","","","","","","","","","","","","stimulus","","","2","12","","","","","","","","","",""
"","","","","","","","","","","","canvas-button-response","252","442903","0.0-252.0","1346","car","","","","","","","","","","","","","","perceptual","","","2","12","","","","","260","train","10","0","0",""
"","","","","","","","","","","","canvas-button-response","253","443592","0.0-253.0","686","5","","","","","","","","","","","","","","confidence","","","2","12","","","","","","","","","","7"
"","","","","","","","","","","","preload","254","443593","0.0-254.0","","","","","true","","","","","","","","","","","preload","","","2","13","false","[]","[]","[]","","","","","",""
"","","","","","","","","","","","canvas-keyboard-response","255","443903","0.0-255.0","null","null","","","","","","","","","","","","","","fixation","","","2","13","","","","","","","","","",""
"","","","","","","","","","","","canvas-keyboard-response","256","444207","0.0-256.0","null","null","","","","","","","","","","","","","","stimulus","","","2","13","","","","","","","","","",""
"","","","","","","","","","","","canvas-button-response","257","445412","0.0-257.0","1203","flower","","","","","","","","","","","","","","perceptual","","","2","13","","","","","233","flower","10","0","1",""
"","","","","","","","","","","","canvas-button-response","258","446969","0.0-258.0","1554","9","","","","","","","","","","","","","","confidence","","","2","13","","","","","","","","","","8"
"","","","","","","","","","","","preload","259","446970","0.0-259.0","","","","","true","","","","","","","","","","","preload","","","2","14","false","[]","[]","[]","","","","","",""
"","","","","","","","","","","","canvas-keyboard-response","260","447273","0.0-260.0","null","null","","","","","","","","","","","","","","fixation","","","2","14","","","","","","","","","",""
"","","","","","","","","","","","canvas-keyboard-response","261","447580","0.0-261.0","null","null","","","","","","","","","","","","","","stimulus","","","2","14","","","","","","","","","",""
"","","","","","","","","","","","canvas-button-response","262","450910","0.0-262.0","3327","knife","","","","","","","","","","","","","","perceptual","","","2","14","","","","","225","flower","10","0","0",""
"","","","","","","","","","","","canvas-button-response","263","451628","0.0-263.0","715","7","","","","","","","","","","","","","","confidence","","","2","14","","","","","","","","","","8"
"","","","","","","","","","","","preload","264","451629","0.0-264.0","","","","","true","","","","","","","","","","","preload","","","2","15","false","[]","[]","[]","","","","","",""
"","","","","","","","","","","","canvas-keyboard-response","265","451939","0.0-265.0","null","null","","","","","","","","","","","","","","fixation","","","2","15","","","","","","","","","",""
"","","","","","","","","","","","canvas-keyboard-response","266","452252","0.0-266.0","null","null","","","","","","","","","","","","","","stimulus","","","2","15","","","","","","","","","",""
"","","","","","","","","","","","canvas-button-response","267","456122","0.0-267.0","3868","house","","","","","","","","","","","","","","perceptual","","","2","15","","","","","189","bridge","10","0","0",""
"","","","","","","","","","","","canvas-button-response","268","456940","0.0-268.0","815","4","","","","","","","","","","","","","","confidence","","","2","15","","","","","","","","","","8"
"","","","","","","","","","","","preload","269","456941","0.0-269.0","","","","","true","","","","","","","","","","","preload","","","2","16","false","[]","[]","[]","","","","","",""
"","","","","","","","","","","","canvas-keyboard-response","270","457253","0.0-270.0","null","null","","","","","","","","","","","","","","fixation","","","2","16","","","","","","","","","",""
"","","","","","","","","","","","canvas-keyboard-response","271","457561","0.0-271.0","null","null","","","","","","","","","","","","","","stimulus","","","2","16","","","","","","","","","",""
"","","","","","","","","","","","canvas-button-response","272","459258","0.0-272.0","1695","bridge","","","","","","","","","","","","","","perceptual","","","2","16","","","","","258","train","6","0","0",""
"","","","","","","","","","","","canvas-button-response","273","460028","0.0-273.0","767","3","","","","","","","","","","","","","","confidence","","","2","16","","","","","","","","","","8"
"","","","","","","","","","","","preload","274","460029","0.0-274.0","","","","","true","","","","","","","","","","","preload","","","2","17","false","[]","[]","[]","","","","","",""
"","","","","","","","","","","","canvas-keyboard-response","275","460338","0.0-275.0","null","null","","","","","","","","","","","","","","fixation","","","2","17","","","","","","","","","",""
"","","","","","","","","","","","canvas-keyboard-response","276","460648","0.0-276.0","null","null","","","","","","","","","","","","","","stimulus","","","2","17","","","","","","","","","",""
"","","","","","","","","","","","canvas-button-response","277","461956","0.0-277.0","1306","car","","","","","","","","","","","","","","perceptual","","","2","17","","","","","127","bed","6","0","0",""
"","","","","","","","","","","","canvas-button-response","278","462730","0.0-278.0","772","4","","","","","","","","","","","","","","confidence","","","2","17","","","","","","","","","","8"
"","","","","","","","","","","","preload","279","462731","0.0-279.0","","","","","true","","","","","","","","","","","preload","","","2","18","false","[]","[]","[]","","","","","",""
"","","","","","","","","","","","canvas-keyboard-response","280","463038","0.0-280.0","null","null","","","","","","","","","","","","","","fixation","","","2","18","","","","","","","","","",""
"","","","","","","","","","","","canvas-keyboard-response","281","463346","0.0-281.0","null","null","","","","","","","","","","","","","","stimulus","","","2","18","","","","","","","","","",""
"","","","","","","","","","","","canvas-button-response","282","466281","0.0-282.0","2933","flower","","","","","","","","","","","","","","perceptual","","","2","18","","","","","29","house","10","0","0",""
"","","","","","","","","","","","canvas-button-response","283","467113","0.0-283.0","830","6","","","","","","","","","","","","","","confidence","","","2","18","","","","","","","","","","8"
"","","","","","","","","","","","preload","284","467114","0.0-284.0","","","","","true","","","","","","","","","","","preload","","","2","19","false","[]","[]","[]","","","","","",""
"","","","","","","","","","","","canvas-keyboard-response","285","467418","0.0-285.0","null","null","","","","","","","","","","","","","","fixation","","","2","19","","","","","","","","","",""
"","","","","","","","","","","","canvas-keyboard-response","286","467728","0.0-286.0","null","null","","","","","","","","","","","","","","stimulus","","","2","19","","","","","","","","","",""
"","","","","","","","","","","","canvas-button-response","287","470681","0.0-287.0","2950","flower","","","","","","","","","","","","","","perceptual","","","2","19","","","","","150","bed","10","0","0",""
"","","","","","","","","","","","canvas-button-response","288","471407","0.0-288.0","724","4","","","","","","","","","","","","","","confidence","","","2","19","","","","","","","","","","8"
"","","","","","","","","","","","preload","289","471408","0.0-289.0","","","","","true","","","","","","","","","","","preload","","","2","20","false","[]","[]","[]","","","","","",""
"","","","","","","","","","","","canvas-keyboard-response","290","471715","0.0-290.0","null","null","","","","","","","","","","","","","","fixation","","","2","20","","","","","","","","","",""
"","","","","","","","","","","","canvas-keyboard-response","291","472024","0.0-291.0","null","null","","","","","","","","","","","","","","stimulus","","","2","20","","","","","","","","","",""
"","","","","","","","","","","","canvas-button-response","292","473145","0.0-292.0","1118","flower","","","","","","","","","","","","","","perceptual","","","2","20","","","","","237","flower","10","0","1",""
"","","","","","","","","","","","canvas-button-response","293","474124","0.0-293.0","978","9","","","","","","","","","","","","","","confidence","","","2","20","","","","","","","","","","9"
"","","","","","","","","","","","preload","294","474125","0.0-294.0","","","","","true","","","","","","","","","","","preload","","","2","21","false","[]","[]","[]","","","","","",""
"","","","","","","","","","","","canvas-keyboard-response","295","474431","0.0-295.0","null","null","","","","","","","","","","","","","","fixation","","","2","21","","","","","","","","","",""
"","","","","","","","","","","","canvas-keyboard-response","296","474734","0.0-296.0","null","null","","","","","","","","","","","","","","stimulus","","","2","21","","","","","","","","","",""
"","","","","","","","","","","","canvas-button-response","297","477241","0.0-297.0","2504","knife","","","","","","","","","","","","","","perceptual","","","2","21","","","","","290","cat","6","0","0",""
"","","","","","","","","","","","canvas-button-response","298","478147","0.0-298.0","904","5","","","","","","","","","","","","","","confidence","","","2","21","","","","","","","","","","9"
"","","","","","","","","","","","preload","299","478148","0.0-299.0","","","","","true","","","","","","","","","","","preload","","","2","22","false","[]","[]","[]","","","","","",""
"","","","","","","","","","","","canvas-keyboard-response","300","478454","0.0-300.0","null","null","","","","","","","","","","","","","","fixation","","","2","22","","","","","","","","","",""
"","","","","","","","","","","","canvas-keyboard-response","301","478756","0.0-301.0","null","null","","","","","","","","","","","","","","stimulus","","","2","22","","","","","","","","","",""
"","","","","","","","","","","","canvas-button-response","302","479732","0.0-302.0","974","house","","","","","","","","","","","","","","perceptual","","","2","22","","","","","7","house","6","0","1",""
"","","","","","","","","","","","canvas-button-response","303","480615","0.0-303.0","881","8","","","","","","","","","","","","","","confidence","","","2","22","","","","","","","","","","10"
"","","","","","","","","","","","preload","304","480616","0.0-304.0","","","","","true","","","","","","","","","","","preload","","","2","23","false","[]","[]","[]","","","","","",""
"","","","","","","","","","","","canvas-keyboard-response","305","480922","0.0-305.0","null","null","","","","","","","","","","","","","","fixation","","","2","23","","","","","","","","","",""
"","","","","","","","","","","","canvas-keyboard-response","306","481226","0.0-306.0","null","null","","","","","","","","","","","","","","stimulus","","","2","23","","","","","","","","","",""
"","","","","","","","","","","","canvas-button-response","307","482361","0.0-307.0","1133","elephant","","","","","","","","","","","","","","perceptual","","","2","23","","","","","327","elephant","6","0","1",""
"","","","","","","","","","","","canvas-button-response","308","482952","0.0-308.0","589","9","","","","","","","","","","","","","","confidence","","","2","23","","","","","","","","","","11"
"","","","","","","","","","","","preload","309","482953","0.0-309.0","","","","","true","","","","","","","","","","","preload","","","2","24","false","[]","[]","[]","","","","","",""
"","","","","","","","","","","","canvas-keyboard-response","310","483256","0.0-310.0","null","null","","","","","","","","","","","","","","fixation","","","2","24","","","","","","","","","",""
"","","","","","","","","","","","canvas-keyboard-response","311","483559","0.0-311.0","null","null","","","","","","","","","","","","","","stimulus","","","2","24","","","","","","","","","",""
"","","","","","","","","","","","canvas-button-response","312","488397","0.0-312.0","4836","bed","","","","","","","","","","","","","","perceptual","","","2","24","","","","","371","knife","6","0","0",""
"","","","","","","","","","","","canvas-button-response","313","489207","0.0-313.0","808","5","","","","","","","","","","","","","","confidence","","","2","24","","","","","","","","","","11"
"","","","","","","","","","","","preload","314","489208","0.0-314.0","","","","","true","","","","","","","","","","","preload","","","2","25","false","[]","[]","[]","","","","","",""
"","","","","","","","","","","","canvas-keyboard-response","315","489513","0.0-315.0","null","null","","","","","","","","","","","","","","fixation","","","2","25","","","","","","","","","",""
"","","","","","","","","","","","canvas-keyboard-response","316","489822","0.0-316.0","null","null","","","","","","","","","","","","","","stimulus","","","2","25","","","","","","","","","",""
"","","","","","","","","","","","canvas-button-response","317","491792","0.0-317.0","1967","bed","","","","","","","","","","","","","","perceptual","","","2","25","","","","","137","bed","6","0","1",""
"","","","","","","","","","","","canvas-button-response","318","492445","0.0-318.0","652","3","","","","","","","","","","","","","","confidence","","","2","25","","","","","","","","","","12"
"","","","","","","","","","","","preload","319","492447","0.0-319.0","","","","","true","","","","","","","","","","","preload","","","2","26","false","[]","[]","[]","","","","","",""
"","","","","","","","","","","","canvas-keyboard-response","320","492749","0.0-320.0","null","null","","","","","","","","","","","","","","fixation","","","2","26","","","","","","","","","",""
"","","","","","","","","","","","canvas-keyboard-response","321","493060","0.0-321.0","null","null","","","","","","","","","","","","","","stimulus","","","2","26","","","","","","","","","",""
"","","","","","","","","","","","canvas-button-response","322","495414","0.0-322.0","2352","knife","","","","","","","","","","","","","","perceptual","","","2","26","","","","","152","bed","10","0","0",""
"","","","","","","","","","","","canvas-button-response","323","496089","0.0-323.0","673","6","","","","","","","","","","","","","","confidence","","","2","26","","","","","","","","","","12"
"","","","","","","","","","","","preload","324","496090","0.0-324.0","","","","","true","","","","","","","","","","","preload","","","2","27","false","[]","[]","[]","","","","","",""
"","","","","","","","","","","","canvas-keyboard-response","325","496399","0.0-325.0","null","null","","","","","","","","","","","","","","fixation","","","2","27","","","","","","","","","",""
"","","","","","","","","","","","canvas-keyboard-response","326","496706","0.0-326.0","null","null","","","","","","","","","","","","","","stimulus","","","2","27","","","","","","","","","",""
"","","","","","","","","","","","canvas-button-response","327","501000","0.0-327.0","4292","train","","","","","","","","","","","","","","perceptual","","","2","27","","","","","151","bed","10","0","0",""
"","","","","","","","","","","","canvas-button-response","328","501833","0.0-328.0","830","7","","","","","","","","","","","","","","confidence","","","2","27","","","","","","","","","","12"
"","","","","","","","","","","","preload","329","501834","0.0-329.0","","","","","true","","","","","","","","","","","preload","","","2","28","false","[]","[]","[]","","","","","",""
"","","","","","","","","","","","canvas-keyboard-response","330","502138","0.0-330.0","null","null","","","","","","","","","","","","","","fixation","","","2","28","","","","","","","","","",""
"","","","","","","","","","","","canvas-keyboard-response","331","502448","0.0-331.0","null","null","","","","","","","","","","","","","","stimulus","","","2","28","","","","","","","","","",""
"","","","","","","","","","","","canvas-button-response","332","509694","0.0-332.0","7243","elephant","","","","","","","","","","","","","","perceptual","","","2","28","","","","","124","bed","6","0","0",""
"","","","","","","","","","","","canvas-button-response","333","513045","0.0-333.0","3348","3","","","","","","","","","","","","","","confidence","","","2","28","","","","","","","","","","12"
"","","","","","","","","","","","preload","334","513046","0.0-334.0","","","","","true","","","","","","","","","","","preload","","","2","29","false","[]","[]","[]","","","","","",""
"","","","","","","","","","","","canvas-keyboard-response","335","513349","0.0-335.0","null","null","","","","","","","","","","","","","","fixation","","","2","29","","","","","","","","","",""
"","","","","","","","","","","","canvas-keyboard-response","336","513658","0.0-336.0","null","null","","","","","","","","","","","","","","stimulus","","","2","29","","","","","","","","","",""
"","","","","","","","","","","","canvas-button-response","337","516768","0.0-337.0","3107","knife","","","","","","","","","","","","","","perceptual","","","2","29","","","","","374","knife","6","0","1",""
"","","","","","","","","","","","canvas-button-response","338","518169","0.0-338.0","1399","8","","","","","","","","","","","","","","confidence","","","2","29","","","","","","","","","","13"
"","","","","","","","","","","","preload","339","518170","0.0-339.0","","","","","true","","","","","","","","","","","preload","","","2","30","false","[]","[]","[]","","","","","",""
"","","","","","","","","","","","canvas-keyboard-response","340","518473","0.0-340.0","null","null","","","","","","","","","","","","","","fixation","","","2","30","","","","","","","","","",""
"","","","","","","","","","","","canvas-keyboard-response","341","518776","0.0-341.0","null","null","","","","","","","","","","","","","","stimulus","","","2","30","","","","","","","","","",""
"","","","","","","","","","","","canvas-button-response","342","519982","0.0-342.0","1204","car","","","","","","","","","","","","","","perceptual","","","2","30","","","","","48","car","6","0","1",""
"","","","","","","","","","","","canvas-button-response","343","521048","0.0-343.0","1064","8","","","","","","","","","","","","","","confidence","","","2","30","","","","","","","","","","14"
"","","","","","","","","","","","preload","344","521049","0.0-344.0","","","","","true","","","","","","","","","","","preload","","","2","31","false","[]","[]","[]","","","","","",""
"","","","","","","","","","","","canvas-keyboard-response","345","521355","0.0-345.0","null","null","","","","","","","","","","","","","","fixation","","","2","31","","","","","","","","","",""
"","","","","","","","","","","","canvas-keyboard-response","346","521659","0.0-346.0","null","null","","","","","","","","","","","","","","stimulus","","","2","31","","","","","","","","","",""
"","","","","","","","","","","","canvas-button-response","347","522662","0.0-347.0","1000","car","","","","","","","","","","","","","","perceptual","","","2","31","","","","","74","car","10","0","1",""
"","","","","","","","","","","","canvas-button-response","348","523740","0.0-348.0","1076","9","","","","","","","","","","","","","","confidence","","","2","31","","","","","","","","","","15"
"","","","","","","","","","","","preload","349","523741","0.0-349.0","","","","","true","","","","","","","","","","","preload","","","2","32","false","[]","[]","[]","","","","","",""
"","","","","","","","","","","","canvas-keyboard-response","350","524046","0.0-350.0","null","null","","","","","","","","","","","","","","fixation","","","2","32","","","","","","","","","",""
"","","","","","","","","","","","canvas-keyboard-response","351","524351","0.0-351.0","null","null","","","","","","","","","","","","","","stimulus","","","2","32","","","","","","","","","",""
"","","","","","","","","","","","canvas-button-response","352","531951","0.0-352.0","7597","phone","","","","","","","","","","","","","","perceptual","","","2","32","","","","","112","phone","10","0","1",""
"","","","","","","","","","","","canvas-button-response","353","533808","0.0-353.0","1855","8","","","","","","","","","","","","","","confidence","","","2","32","","","","","","","","","","16"
"","","","","","","","","","","","preload","354","533809","0.0-354.0","","","","","true","","","","","","","","","","","preload","","","2","33","false","[]","[]","[]","","","","","",""
"","","","","","","","","","","","canvas-keyboard-response","355","534118","0.0-355.0","null","null","","","","","","","","","","","","","","fixation","","","2","33","","","","","","","","","",""
"","","","","","","","","","","","canvas-keyboard-response","356","534428","0.0-356.0","null","null","","","","","","","","","","","","","","stimulus","","","2","33","","","","","","","","","",""
"","","","","","","","","","","","canvas-button-response","357","535778","0.0-357.0","1348","flower","","","","","","","","","","","","","","perceptual","","","2","33","","","","","219","flower","6","0","1",""
"","","","","","","","","","","","canvas-button-response","358","536751","0.0-358.0","971","9","","","","","","","","","","","","","","confidence","","","2","33","","","","","","","","","","17"
"","","","","","","","","","","","preload","359","536752","0.0-359.0","","","","","true","","","","","","","","","","","preload","","","2","34","false","[]","[]","[]","","","","","",""
"","","","","","","","","","","","canvas-keyboard-response","360","537061","0.0-360.0","null","null","","","","","","","","","","","","","","fixation","","","2","34","","","","","","","","","",""
"","","","","","","","","","","","canvas-keyboard-response","361","537369","0.0-361.0","null","null","","","","","","","","","","","","","","stimulus","","","2","34","","","","","","","","","",""
"","","","","","","","","","","","canvas-button-response","362","538763","0.0-362.0","1391","elephant","","","","","","","","","","","","","","perceptual","","","2","34","","","","","348","elephant","10","0","1",""
"","","","","","","","","","","","canvas-button-response","363","539764","0.0-363.0","999","9","","","","","","","","","","","","","","confidence","","","2","34","","","","","","","","","","18"
"","","","","","","","","","","","preload","364","539764","0.0-364.0","","","","","true","","","","","","","","","","","preload","","","2","35","false","[]","[]","[]","","","","","",""
"","","","","","","","","","","","canvas-keyboard-response","365","540068","0.0-365.0","null","null","","","","","","","","","","","","","","fixation","","","2","35","","","","","","","","","",""
"","","","","","","","","","","","canvas-keyboard-response","366","540378","0.0-366.0","null","null","","","","","","","","","","","","","","stimulus","","","2","35","","","","","","","","","",""
"","","","","","","","","","","","canvas-button-response","367","544272","0.0-367.0","3891","house","","","","","","","","","","","","","","perceptual","","","2","35","","","","","157","bed","10","0","0",""
"","","","","","","","","","","","canvas-button-response","368","545623","0.0-368.0","1349","5","","","","","","","","","","","","","","confidence","","","2","35","","","","","","","","","","18"
"","","","","","","","","","","","preload","369","545624","0.0-369.0","","","","","true","","","","","","","","","","","preload","","","2","36","false","[]","[]","[]","","","","","",""
"","","","","","","","","","","","canvas-keyboard-response","370","545932","0.0-370.0","null","null","","","","","","","","","","","","","","fixation","","","2","36","","","","","","","","","",""
"","","","","","","","","","","","canvas-keyboard-response","371","546248","0.0-371.0","null","null","","","","","","","","","","","","","","stimulus","","","2","36","","","","","","","","","",""
"","","","","","","","","","","","canvas-button-response","372","547552","0.0-372.0","1301","house","","","","","","","","","","","","","","perceptual","","","2","36","","","","","4","house","6","0","1",""
"","","","","","","","","","","","canvas-button-response","373","548284","0.0-373.0","730","5","","","","","","","","","","","","","","confidence","","","2","36","","","","","","","","","","19"
"","","","","","","","","","","","preload","374","548285","0.0-374.0","","","","","true","","","","","","","","","","","preload","","","2","37","false","[]","[]","[]","","","","","",""
"","","","","","","","","","","","canvas-keyboard-response","375","548596","0.0-375.0","null","null","","","","","","","","","","","","","","fixation","","","2","37","","","","","","","","","",""
"","","","","","","","","","","","canvas-keyboard-response","376","548905","0.0-376.0","null","null","","","","","","","","","","","","","","stimulus","","","2","37","","","","","","","","","",""
"","","","","","","","","","","","canvas-button-response","377","549713","0.0-377.0","805","elephant","","","","","","","","","","","","","","perceptual","","","2","37","","","","","339","elephant","6","0","1",""
"","","","","","","","","","","","canvas-button-response","378","550426","0.0-378.0","711","10","","","","","","","","","","","","","","confidence","","","2","37","","","","","","","","","","20"
"","","","","","","","","","","","preload","379","550427","0.0-379.0","","","","","true","","","","","","","","","","","preload","","","2","38","false","[]","[]","[]","","","","","",""
"","","","","","","","","","","","canvas-keyboard-response","380","550731","0.0-380.0","null","null","","","","","","","","","","","","","","fixation","","","2","38","","","","","","","","","",""
"","","","","","","","","","","","canvas-keyboard-response","381","551035","0.0-381.0","null","null","","","","","","","","","","","","","","stimulus","","","2","38","","","","","","","","","",""
"","","","","","","","","","","","canvas-button-response","382","552681","0.0-382.0","1644","bridge","","","","","","","","","","","","","","perceptual","","","2","38","","","","","184","bridge","10","0","1",""
"","","","","","","","","","","","canvas-button-response","383","554040","0.0-383.0","1356","7","","","","","","","","","","","","","","confidence","","","2","38","","","","","","","","","","21"
"","","","","","","","","","","","preload","384","554041","0.0-384.0","","","","","true","","","","","","","","","","","preload","","","2","39","false","[]","[]","[]","","","","","",""
"","","","","","","","","","","","canvas-keyboard-response","385","554343","0.0-385.0","null","null","","","","","","","","","","","","","","fixation","","","2","39","","","","","","","","","",""
"","","","","","","","","","","","canvas-keyboard-response","386","554653","0.0-386.0","null","null","","","","","","","","","","","","","","stimulus","","","2","39","","","","","","","","","",""
"","","","","","","","","","","","canvas-button-response","387","555864","0.0-387.0","1209","elephant","","","","","","","","","","","","","","perceptual","","","2","39","","","","","346","elephant","10","0","1",""
"","","","","","","","","","","","canvas-button-response","388","556545","0.0-388.0","679","10","","","","","","","","","","","","","","confidence","","","2","39","","","","","","","","","","22"
"","","","","","","","","","","","preload","389","556546","0.0-389.0","","","","","true","","","","","","","","","","","preload","","","2","40","false","[]","[]","[]","","","","","",""
"","","","","","","","","","","","canvas-keyboard-response","390","556857","0.0-390.0","null","null","","","","","","","","","","","","","","fixation","","","2","40","","","","","","","","","",""
"","","","","","","","","","","","canvas-keyboard-response","391","557163","0.0-391.0","null","null","","","","","","","","","","","","","","stimulus","","","2","40","","","","","","","","","",""
"","","","","","","","","","","","canvas-button-response","392","559196","0.0-392.0","2030","cat","","","","","","","","","","","","","","perceptual","","","2","40","","","","","84","phone","6","0","0",""
"","","","","","","","","","","","canvas-button-response","393","559817","0.0-393.0","618","6","","","","","","","","","","","","","","confidence","","","2","40","","","","","","","","","","22"
"","","","","","","","","","","","preload","394","559817","0.0-394.0","","","","","true","","","","","","","","","","","preload","","","2","41","false","[]","[]","[]","","","","","",""
"","","","","","","","","","","","canvas-keyboard-response","395","560136","0.0-395.0","null","null","","","","","","","","","","","","","","fixation","","","2","41","","","","","","","","","",""
"","","","","","","","","","","","canvas-keyboard-response","396","560449","0.0-396.0","null","null","","","","","","","","","","","","","","stimulus","","","2","41","","","","","","","","","",""
"","","","","","","","","","","","canvas-button-response","397","561255","0.0-397.0","803","phone","","","","","","","","","","","","","","perceptual","","","2","41","","","","","80","phone","6","0","1",""
"","","","","","","","","","","","canvas-button-response","398","562215","0.0-398.0","958","8","","","","","","","","","","","","","","confidence","","","2","41","","","","","","","","","","23"
"","","","","","","","","","","","preload","399","562216","0.0-399.0","","","","","true","","","","","","","","","","","preload","","","2","42","false","[]","[]","[]","","","","","",""
"","","","","","","","","","","","canvas-keyboard-response","400","562529","0.0-400.0","null","null","","","","","","","","","","","","","","fixation","","","2","42","","","","","","","","","",""
"","","","","","","","","","","","canvas-keyboard-response","401","562837","0.0-401.0","null","null","","","","","","","","","","","","","","stimulus","","","2","42","","","","","","","","","",""
"","","","","","","","","","","","canvas-button-response","402","563805","0.0-402.0","965","flower","","","","","","","","","","","","","","perceptual","","","2","42","","","","","210","flower","6","0","1",""
"","","","","","","","","","","","canvas-button-response","403","564559","0.0-403.0","752","10","","","","","","","","","","","","","","confidence","","","2","42","","","","","","","","","","24"
"","","","","","","","","","","","preload","404","564560","0.0-404.0","","","","","true","","","","","","","","","","","preload","","","2","43","false","[]","[]","[]","","","","","",""
"","","","","","","","","","","","canvas-keyboard-response","405","564869","0.0-405.0","null","null","","","","","","","","","","","","","","fixation","","","2","43","","","","","","","","","",""
"","","","","","","","","","","","canvas-keyboard-response","406","565175","0.0-406.0","null","null","","","","","","","","","","","","","","stimulus","","","2","43","","","","","","","","","",""
"","","","","","","","","","","","canvas-button-response","407","566003","0.0-407.0","826","elephant","","","","","","","","","","","","","","perceptual","","","2","43","","","","","359","elephant","10","0","1",""
"","","","","","","","","","","","canvas-button-response","408","566727","0.0-408.0","722","8","","","","","","","","","","","","","","confidence","","","2","43","","","","","","","","","","25"
"","","","","","","","","","","","preload","409","566728","0.0-409.0","","","","","true","","","","","","","","","","","preload","","","2","44","false","[]","[]","[]","","","","","",""
"","","","","","","","","","","","canvas-keyboard-response","410","567033","0.0-410.0","null","null","","","","","","","","","","","","","","fixation","","","2","44","","","","","","","","","",""
"","","","","","","","","","","","canvas-keyboard-response","411","567340","0.0-411.0","null","null","","","","","","","","","","","","","","stimulus","","","2","44","","","","","","","","","",""
"","","","","","","","","","","","canvas-button-response","412","568087","0.0-412.0","745","cat","","","","","","","","","","","","","","perceptual","","","2","44","","","","","296","cat","6","0","1",""
"","","","","","","","","","","","canvas-button-response","413","568776","0.0-413.0","687","9","","","","","","","","","","","","","","confidence","","","2","44","","","","","","","","","","26"
"","","","","","","","","","","","preload","414","568777","0.0-414.0","","","","","true","","","","","","","","","","","preload","","","2","45","false","[]","[]","[]","","","","","",""
"","","","","","","","","","","","canvas-keyboard-response","415","569079","0.0-415.0","null","null","","","","","","","","","","","","","","fixation","","","2","45","","","","","","","","","",""
"","","","","","","","","","","","canvas-keyboard-response","416","569382","0.0-416.0","null","null","","","","","","","","","","","","","","stimulus","","","2","45","","","","","","","","","",""
"","","","","","","","","","","","canvas-button-response","417","570165","0.0-417.0","781","car","","","","","","","","","","","","","","perceptual","","","2","45","","","","","78","car","10","0","1",""
"","","","","","","","","","","","canvas-button-response","418","570826","0.0-418.0","658","10","","","","","","","","","","","","","","confidence","","","2","45","","","","","","","","","","27"
"","","","","","","","","","","","preload","419","570827","0.0-419.0","","","","","true","","","","","","","","","","","preload","","","2","46","false","[]","[]","[]","","","","","",""
"","","","","","","","","","","","canvas-keyboard-response","420","571130","0.0-420.0","null","null","","","","","","","","","","","","","","fixation","","","2","46","","","","","","","","","",""
"","","","","","","","","","","","canvas-keyboard-response","421","571440","0.0-421.0","null","null","","","","","","","","","","","","","","stimulus","","","2","46","","","","","","","","","",""
"","","","","","","","","","","","canvas-button-response","422","572677","0.0-422.0","1234","house","","","","","","","","","","","","","","perceptual","","","2","46","","","","","1","house","6","0","1",""
"","","","","","","","","","","","canvas-button-response","423","573395","0.0-423.0","716","10","","","","","","","","","","","","","","confidence","","","2","46","","","","","","","","","","28"
"","","","","","","","","","","","preload","424","573396","0.0-424.0","","","","","true","","","","","","","","","","","preload","","","2","47","false","[]","[]","[]","","","","","",""
"","","","","","","","","","","","canvas-keyboard-response","425","573699","0.0-425.0","null","null","","","","","","","","","","","","","","fixation","","","2","47","","","","","","","","","",""
"","","","","","","","","","","","canvas-keyboard-response","426","574007","0.0-426.0","null","null","","","","","","","","","","","","","","stimulus","","","2","47","","","","","","","","","",""
"","","","","","","","","","","","canvas-button-response","427","575607","0.0-427.0","1598","knife","","","","","","","","","","","","","","perceptual","","","2","47","","","","","118","phone","10","0","0",""
"","","","","","","","","","","","canvas-button-response","428","576548","0.0-428.0","938","8","","","","","","","","","","","","","","confidence","","","2","47","","","","","","","","","","28"
"","","","","","","","","","","","preload","429","576549","0.0-429.0","","","","","true","","","","","","","","","","","preload","","","2","48","false","[]","[]","[]","","","","","",""
"","","","","","","","","","","","canvas-keyboard-response","430","576851","0.0-430.0","null","null","","","","","","","","","","","","","","fixation","","","2","48","","","","","","","","","",""
"","","","","","","","","","","","canvas-keyboard-response","431","577160","0.0-431.0","null","null","","","","","","","","","","","","","","stimulus","","","2","48","","","","","","","","","",""
"","","","","","","","","","","","canvas-button-response","432","578334","0.0-432.0","1172","bridge","","","","","","","","","","","","","","perceptual","","","2","48","","","","","265","train","10","0","0",""
"","","","","","","","","","","","canvas-button-response","433","579131","0.0-433.0","794","7","","","","","","","","","","","","","","confidence","","","2","48","","","","","","","","","","28"
"","","","","","","","","","","","preload","434","579131","0.0-434.0","","","","","true","","","","","","","","","","","preload","","","2","49","false","[]","[]","[]","","","","","",""
"","","","","","","","","","","","canvas-keyboard-response","435","579439","0.0-435.0","null","null","","","","","","","","","","","","","","fixation","","","2","49","","","","","","","","","",""
"","","","","","","","","","","","canvas-keyboard-response","436","579749","0.0-436.0","null","null","","","","","","","","","","","","","","stimulus","","","2","49","","","","","","","","","",""
"","","","","","","","","","","","canvas-button-response","437","580618","0.0-437.0","866","bed","","","","","","","","","","","","","","perceptual","","","2","49","","","","","120","bed","6","0","1",""
"","","","","","","","","","","","canvas-button-response","438","581651","0.0-438.0","1031","10","","","","","","","","","","","","","","confidence","","","2","49","","","","","","","","","","29"
"","","","","","","","","","","","html-button-response","439","594986","0.0-439.0","13333","0","","","","","","","","","","","","","","<p style=""font-size:20px;color:#000000"">You got 29 out of 50 trials correct in this block.<br><br>You have completed 6% of the experiment.<br><br>Take a short break.<br><br>When you are ready, click Continue to proceed.","","","2","49","","","","","","","","","",""
"","","","","","","","","","","","html-keyboard-response","440","595996","0.0-440.0","null","null","","","","","","","","","","","","","","<p style=""font-size:32px;color:#000000""><br><br> RUN: &nbsp 1/4 <br><br> BLOCK: 2/4 ","","","2","49","","","","","","","","","",""
"","","","","","","","","","","","preload","441","595997","0.0-441.0","","","","","true","","","","","","","","","","","preload","","","2","50","false","[]","[]","[]","","","","","",""
"","","","","","","","","","","","canvas-keyboard-response","442","596311","0.0-442.0","null","null","","","","","","","","","","","","","","fixation","","","2","50","","","","","","","","","",""
"","","","","","","","","","","","canvas-keyboard-response","443","596617","0.0-443.0","null","null","","","","","","","","","","","","","","stimulus","","","2","50","","","","","","","","","",""
"","","","","","","","","","","","canvas-button-response","444","599371","0.0-444.0","2750","house","","","","","","","","","","","","","","perceptual","","","2","50","","","","","171","bridge","6","0","0",""
"","","","","","","","","","","","canvas-button-response","445","600246","0.0-445.0","873","10","","","","","","","","","","","","","","confidence","","","2","50","","","","","","","","","","0"
"","","","","","","","","","","","preload","446","600247","0.0-446.0","","","","","true","","","","","","","","","","","preload","","","2","51","false","[]","[]","[]","","","","","",""
"","","","","","","","","","","","canvas-keyboard-response","447","600550","0.0-447.0","null","null","","","","","","","","","","","","","","fixation","","","2","51","","","","","","","","","",""
"","","","","","","","","","","","canvas-keyboard-response","448","600859","0.0-448.0","null","null","","","","","","","","","","","","","","stimulus","","","2","51","","","","","","","","","",""
"","","","","","","","","","","","canvas-button-response","449","601824","0.0-449.0","963","train","","","","","","","","","","","","","","perceptual","","","2","51","","","","","240","train","6","0","1",""
"","","","","","","","","","","","canvas-button-response","450","602396","0.0-450.0","570","10","","","","","","","","","","","","","","confidence","","","2","51","","","","","","","","","","1"
"","","","","","","","","","","","preload","451","602397","0.0-451.0","","","","","true","","","","","","","","","","","preload","","","2","52","false","[]","[]","[]","","","","","",""
"","","","","","","","","","","","canvas-keyboard-response","452","602703","0.0-452.0","null","null","","","","","","","","","","","","","","fixation","","","2","52","","","","","","","","","",""
"","","","","","","","","","","","canvas-keyboard-response","453","603009","0.0-453.0","null","null","","","","","","","","","","","","","","stimulus","","","2","52","","","","","","","","","",""
"","","","","","","","","","","","canvas-button-response","454","604075","0.0-454.0","1064","elephant","","","","","","","","","","","","","","perceptual","","","2","52","","","","","384","knife","10","0","0",""
"","","","","","","","","","","","canvas-button-response","455","604764","0.0-455.0","687","8","","","","","","","","","","","","","","confidence","","","2","52","","","","","","","","","","1"
"","","","","","","","","","","","preload","456","604765","0.0-456.0","","","","","true","","","","","","","","","","","preload","","","2","53","false","[]","[]","[]","","","","","",""
"","","","","","","","","","","","canvas-keyboard-response","457","605074","0.0-457.0","null","null","","","","","","","","","","","","","","fixation","","","2","53","","","","","","","","","",""
"","","","","","","","","","","","canvas-keyboard-response","458","605377","0.0-458.0","null","null","","","","","","","","","","","","","","stimulus","","","2","53","","","","","","","","","",""
"","","","","","","","","","","","canvas-button-response","459","607292","0.0-459.0","1912","house","","","","","","","","","","","","","","perceptual","","","2","53","","","","","334","elephant","6","0","0",""
"","","","","","","","","","","","canvas-button-response","460","608850","0.0-460.0","1556","3","","","","","","","","","","","","","","confidence","","","2","53","","","","","","","","","","1"
"","","","","","","","","","","","preload","461","608851","0.0-461.0","","","","","true","","","","","","","","","","","preload","","","2","54","false","[]","[]","[]","","","","","",""
"","","","","","","","","","","","canvas-keyboard-response","462","609156","0.0-462.0","null","null","","","","","","","","","","","","","","fixation","","","2","54","","","","","","","","","",""
"","","","","","","","","","","","canvas-keyboard-response","463","609461","0.0-463.0","null","null","","","","","","","","","","","","","","stimulus","","","2","54","","","","","","","","","",""
"","","","","","","","","","","","canvas-button-response","464","610410","0.0-464.0","947","train","","","","","","","","","","","","","","perceptual","","","2","54","","","","","383","knife","10","0","0",""
"","","","","","","","","","","","canvas-button-response","465","611299","0.0-465.0","886","6","","","","","","","","","","","","","","confidence","","","2","54","","","","","","","","","","1"
"","","","","","","","","","","","preload","466","611300","0.0-466.0","","","","","true","","","","","","","","","","","preload","","","2","55","false","[]","[]","[]","","","","","",""
"","","","","","","","","","","","canvas-keyboard-response","467","611609","0.0-467.0","null","null","","","","","","","","","","","","","","fixation","","","2","55","","","","","","","","","",""
"","","","","","","","","","","","canvas-keyboard-response","468","611918","0.0-468.0","null","null","","","","","","","","","","","","","","stimulus","","","2","55","","","","","","","","","",""
"","","","","","","","","","","","canvas-button-response","469","613611","0.0-469.0","1691","knife","","","","","","","","","","","","","","perceptual","","","2","55","","","","","317","cat","10","0","0",""
"","","","","","","","","","","","canvas-button-response","470","614415","0.0-470.0","802","8","","","","","","","","","","","","","","confidence","","","2","55","","","","","","","","","","1"
"","","","","","","","","","","","preload","471","614416","0.0-471.0","","","","","true","","","","","","","","","","","preload","","","2","56","false","[]","[]","[]","","","","","",""
"","","","","","","","","","","","canvas-keyboard-response","472","614731","0.0-472.0","null","null","","","","","","","","","","","","","","fixation","","","2","56","","","","","","","","","",""
"","","","","","","","","","","","canvas-keyboard-response","473","615038","0.0-473.0","null","null","","","","","","","","","","","","","","stimulus","","","2","56","","","","","","","","","",""
"","","","","","","","","","","","canvas-button-response","474","616018","0.0-474.0","977","house","","","","","","","","","","","","","","perceptual","","","2","56","","","","","0","house","6","0","1",""
"","","","","","","","","","","","canvas-button-response","475","617040","0.0-475.0","1020","7","","","","","","","","","","","","","","confidence","","","2","56","","","","","","","","","","2"
"","","","","","","","","","","","preload","476","617041","0.0-476.0","","","","","true","","","","","","","","","","","preload","","","2","57","false","[]","[]","[]","","","","","",""
"","","","","","","","","","","","canvas-keyboard-response","477","617349","0.0-477.0","null","null","","","","","","","","","","","","","","fixation","","","2","57","","","","","","","","","",""
"","","","","","","","","","","","canvas-keyboard-response","478","617658","0.0-478.0","null","null","","","","","","","","","","","","","","stimulus","","","2","57","","","","","","","","","",""
"","","","","","","","","","","","canvas-button-response","479","619068","0.0-479.0","1408","bridge","","","","","","","","","","","","","","perceptual","","","2","57","","","","","105","phone","10","0","0",""
"","","","","","","","","","","","canvas-button-response","480","619802","0.0-480.0","732","3","","","","","","","","","","","","","","confidence","","","2","57","","","","","","","","","","2"
"","","","","","","","","","","","preload","481","619803","0.0-481.0","","","","","true","","","","","","","","","","","preload","","","2","58","false","[]","[]","[]","","","","","",""
"","","","","","","","","","","","canvas-keyboard-response","482","620113","0.0-482.0","null","null","","","","","","","","","","","","","","fixation","","","2","58","","","","","","","","","",""
"","","","","","","","","","","","canvas-keyboard-response","483","620422","0.0-483.0","null","null","","","","","","","","","","","","","","stimulus","","","2","58","","","","","","","","","",""
"","","","","","","","","","","","canvas-button-response","484","621374","0.0-484.0","949","car","","","","","","","","","","","","","","perceptual","","","2","58","","","","","67","car","10","0","1",""
"","","","","","","","","","","","canvas-button-response","485","622064","0.0-485.0","688","10","","","","","","","","","","","","","","confidence","","","2","58","","","","","","","","","","3"
"","","","","","","","","","","","preload","486","622064","0.0-486.0","","","","","true","","","","","","","","","","","preload","","","2","59","false","[]","[]","[]","","","","","",""
"","","","","","","","","","","","canvas-keyboard-response","487","622369","0.0-487.0","null","null","","","","","","","","","","","","","","fixation","","","2","59","","","","","","","","","",""
"","","","","","","","","","","","canvas-keyboard-response","488","622678","0.0-488.0","null","null","","","","","","","","","","","","","","stimulus","","","2","59","","","","","","","","","",""
"","","","","","","","","","","","canvas-button-response","489","623930","0.0-489.0","1249","phone","","","","","","","","","","","","","","perceptual","","","2","59","","","","","26","house","10","0","0",""
"","","","","","","","","","","","canvas-button-response","490","624564","0.0-490.0","632","7","","","","","","","","","","","","","","confidence","","","2","59","","","","","","","","","","3"
"","","","","","","","","","","","preload","491","624565","0.0-491.0","","","","","true","","","","","","","","","","","preload","","","2","60","false","[]","[]","[]","","","","","",""
