"width","height","webaudio","browser","browser_version","mobile","os","fullscreen","vsync_rate","webcam","microphone","trial_type","trial_index","time_elapsed","internal_node_id","rt","response","accuracy","view_history","success","item_width_mm","item_height_mm","item_width_px","px2mm","view_dist_mm","item_width_deg","px2deg","scale_factor","win_width_deg","win_height_deg","stimulus","datetime","subjectID","curr_triallist","trial_no","timeout","failed_images","failed_audio","failed_video","image_index","category","blur","reps","correct","running_score"
"1280","665","true","chrome","141.0.0","false","Windows 10","true","59.99","true","true","browser-check","0","1009","0.0-0.0","","","","","","","","","","","","","","","","","","","","","","","","","","","","","",""
"","","","","","","","","","","","survey","1","30950","0.0-1.0","29927","{""P0_Q0"":""903982180"",""P0_Q1"":""19"",""P1_Q0"":""Male"",""P1_Q1"":""Not Hispanic or Latino"",""P1_Q2"":""Black or African American"",""P1_Q3"":""Normal"",""P1_Q4"":""Right-Handed""}","[]","","","","","","","","","","","","","","","","","","","","","","","","","","",""
"","","","","","","","","","","","instructions","2","34694","0.0-2.0","3743","","","[{""page_index"":0,""viewing_time"":2718},{""page_index"":1,""viewing_time"":309},{""page_index"":2,""viewing_time"":310},{""page_index"":3,""viewing_time"":405}]","","","","","","","","","","","","","","","","","","","","","","","","","",""
"","","","","","","","","","","","fullscreen","3","38008","0.0-3.0","2305","","","","true","","","","","","","","","","","","","","","","","","","","","","","","",""
"","","","","","","","","","","","virtual-chinrest","4","113913","0.0-4.0","75905","","","","","85.6","53.98","277.46664042305224","3.239694293207705","529.13","9.248888014101741","30","1.2902451965186117","42.666666666666664","26.666666666666668","","","","","","","","","","","","","","",""
"","","","","","","","","","","","instructions","5","156014","0.0-5.0","42101","","","[{""page_index"":0,""viewing_time"":7811},{""page_index"":1,""viewing_time"":6812},{""page_index"":2,""viewing_time"":2769},{""page_index"":3,""viewing_time"":1554},{""page_index"":4,""viewing_time"":7360},{""page_index"":5,""viewing_time"":15050},{""page_index"":6,""viewing_time"":744}]","","","","","","","","","","","","","","","","","","","","","","","","","",""
"","","","","","","","","","","","html-button-response","6","165159","0.0-6.0","9144","0","","","","","","","","","","","","","","start_practice","Mon Oct 13 2025 18:52:11 GMT-0400 (Eastern Daylight Time)","27745","","","","","","","","","","","",""
"","","","","","","","","","","","preload","7","165160","0.0-7.0","","","","","true","","","","","","","","","","","preload","","","0","0","false","[]","[]","[]","","","","","",""
"","","","","","","","","","","","canvas-keyboard-response","8","165462","0.0-8.0","null","null","","","","","","","","","","","","","","fixation","","","0","0","","","","","","","","","",""
"","","","","","","","","","","","canvas-keyboard-response","9","165768","0.0-9.0","null","null","","","","","","","","","","","","","","stimulus","","","0","0","","","","","","","","","",""
"","","","","","","","","","","","canvas-button-response","10","170545","0.0-10.0","4777","bridge","","","","","","","","","","","","","","perceptual","","","0","0","","","","","42","bridge","1","","1",""
"","","","","","","","","","","","canvas-button-response","11","172627","0.0-11.0","2080","10","","","","","","","","","","","","","","confidence","","","0","0","","","","","","","","","","1"
"","","","","","","","","","","","html-keyboard-response","12","173638","0.0-12.0","null","null","","","","","","","","","","","","","","feedback","Mon Oct 13 2025 18:52:28 GMT-0400 (Eastern Daylight Time)","27745","0","0","","","","","","","","","",""
"","","","","","","","","","","","preload","13","173639","0.0-13.0","","","","","true","","","","","","","","","","","preload","","","0","1","false","[]","[]","[]","","","","","",""
"","","","","","","","","","","","canvas-keyboard-response","14","173944","0.0-14.0","null","null","","","","","","","","","","","","","","fixation","","","0","1","","","","","","","","","",""
"","","","","","","","","","","","canvas-keyboard-response","15","174251","0.0-15.0","null","null","","","","","","","","","","","","","","stimulus","","","0","1","","","","","","","","","",""
"","","","","","","","","","","","canvas-button-response","16","175754","0.0-16.0","1501","car","","","","","","","","","","","","","","perceptual","","","0","1","","","","","12","car","1","","1",""
"","","","","","","","","","","","canvas-button-response","17","177207","0.0-17.0","1451","10","","","","","","","","","","","","","","confidence","","","0","1","","","","","","","","","","2"
"","","","","","","","","","","","html-keyboard-response","18","178215","0.0-18.0","null","null","","","","","","","","","","","","","","feedback","Mon Oct 13 2025 18:52:32 GMT-0400 (Eastern Daylight Time)","27745","0","1","","","","","","","","","",""
"","","","","","","","","","","","preload","19","178215","0.0-19.0","","","","","true","","","","","","","","","","","preload","","","0","2","false","[]","[]","[]","","","","","",""
"","","","","","","","","","","","canvas-keyboard-response","20","178528","0.0-20.0","null","null","","","","","","","","","","","","","","fixation","","","0","2","","","","","","","","","",""
"","","","","","","","","","","","canvas-keyboard-response","21","178841","0.0-21.0","null","null","","","","","","","","","","","","","","stimulus","","","0","2","","","","","","","","","",""
"","","","","","","","","","","","canvas-button-response","22","186758","0.0-22.0","7916","flower","","","","","","","","","","","","","","perceptual","","","0","2","","","","","92","knife","1","","0",""
"","","","","","","","","","","","canvas-button-response","23","188823","0.0-23.0","2064","6","","","","","","","","","","","","","","confidence","","","0","2","","","","","","","","","","2"
"","","","","","","","","","","","html-keyboard-response","24","189829","0.0-24.0","null","null","","","","","","","","","","","","","","feedback","Mon Oct 13 2025 18:52:44 GMT-0400 (Eastern Daylight Time)","27745","0","2","","","","","","","","","",""
"","","","","","","","","","","","preload","25","189830","0.0-25.0","","","","","true","","","","","","","","","","","preload","","","0","3","false","[]","[]","[]","","","","","",""
"","","","","","","","","","","","canvas-keyboard-response","26","190142","0.0-26.0","null","null","","","","","","","","","","","","","","fixation","","","0","3","","","","","","","","","",""
"","","","","","","","","","","","canvas-keyboard-response","27","190454","0.0-27.0","null","null","","","","","","","","","","","","","","stimulus","","","0","3","","","","","","","","","",""
"","","","","","","","","","","","canvas-button-response","28","192852","0.0-28.0","2396","phone","","","","","","","","","","","","","","perceptual","","","0","3","","","","","22","phone","1","","1",""
"","","","","","","","","","","","canvas-button-response","29","194209","0.0-29.0","1355","10","","","","","","","","","","","","","","confidence","","","0","3","","","","","","","","","","3"
"","","","","","","","","","","","html-keyboard-response","30","195224","0.0-30.0","null","null","","","","","","","","","","","","","","feedback","Mon Oct 13 2025 18:52:49 GMT-0400 (Eastern Daylight Time)","27745","0","3","","","","","","","","","",""
"","","","","","","","","","","","preload","31","195224","0.0-31.0","","","","","true","","","","","","","","","","","preload","","","0","4","false","[]","[]","[]","","","","","",""
"","","","","","","","","","","","canvas-keyboard-response","32","195540","0.0-32.0","null","null","","","","","","","","","","","","","","fixation","","","0","4","","","","","","","","","",""
"","","","","","","","","","","","canvas-keyboard-response","33","195849","0.0-33.0","null","null","","","","","","","","","","","","","","stimulus","","","0","4","","","","","","","","","",""
"","","","","","","","","","","","canvas-button-response","34","197347","0.0-34.0","1496","train","","","","","","","","","","","","","","perceptual","","","0","4","","","","","62","train","1","","1",""
"","","","","","","","","","","","canvas-button-response","35","198325","0.0-35.0","976","10","","","","","","","","","","","","","","confidence","","","0","4","","","","","","","","","","4"
"","","","","","","","","","","","html-keyboard-response","36","199342","0.0-36.0","null","null","","","","","","","","","","","","","","feedback","Mon Oct 13 2025 18:52:53 GMT-0400 (Eastern Daylight Time)","27745","0","4","","","","","","","","","",""
"","","","","","","","","","","","preload","37","199343","0.0-37.0","","","","","true","","","","","","","","","","","preload","","","0","5","false","[]","[]","[]","","","","","",""
"","","","","","","","","","","","canvas-keyboard-response","38","199654","0.0-38.0","null","null","","","","","","","","","","","","","","fixation","","","0","5","","","","","","","","","",""
"","","","","","","","","","","","canvas-keyboard-response","39","199968","0.0-39.0","null","null","","","","","","","","","","","","","","stimulus","","","0","5","","","","","","","","","",""
"","","","","","","","","","","","canvas-button-response","40","201090","0.0-40.0","1119","cat","","","","","","","","","","","","","","perceptual","","","0","5","","","","","72","cat","1","","1",""
"","","","","","","","","","","","canvas-button-response","41","202021","0.0-41.0","930","10","","","","","","","","","","","","","","confidence","","","0","5","","","","","","","","","","5"
"","","","","","","","","","","","html-keyboard-response","42","203023","0.0-42.0","null","null","","","","","","","","","","","","","","feedback","Mon Oct 13 2025 18:52:57 GMT-0400 (Eastern Daylight Time)","27745","0","5","","","","","","","","","",""
"","","","","","","","","","","","preload","43","203024","0.0-43.0","","","","","true","","","","","","","","","","","preload","","","0","6","false","[]","[]","[]","","","","","",""
"","","","","","","","","","","","canvas-keyboard-response","44","203330","0.0-44.0","null","null","","","","","","","","","","","","","","fixation","","","0","6","","","","","","","","","",""
"","","","","","","","","","","","canvas-keyboard-response","45","203639","0.0-45.0","null","null","","","","","","","","","","","","","","stimulus","","","0","6","","","","","","","","","",""
"","","","","","","","","","","","canvas-button-response","46","205495","0.0-46.0","1855","house","","","","","","","","","","","","","","perceptual","","","0","6","","","","","2","house","1","","1",""
"","","","","","","","","","","","canvas-button-response","47","206674","0.0-47.0","1177","10","","","","","","","","","","","","","","confidence","","","0","6","","","","","","","","","","6"
"","","","","","","","","","","","html-keyboard-response","48","207680","0.0-48.0","null","null","","","","","","","","","","","","","","feedback","Mon Oct 13 2025 18:53:02 GMT-0400 (Eastern Daylight Time)","27745","0","6","","","","","","","","","",""
"","","","","","","","","","","","preload","49","207681","0.0-49.0","","","","","true","","","","","","","","","","","preload","","","0","7","false","[]","[]","[]","","","","","",""
"","","","","","","","","","","","canvas-keyboard-response","50","207982","0.0-50.0","null","null","","","","","","","","","","","","","","fixation","","","0","7","","","","","","","","","",""
"","","","","","","","","","","","canvas-keyboard-response","51","208285","0.0-51.0","null","null","","","","","","","","","","","","","","stimulus","","","0","7","","","","","","","","","",""
"","","","","","","","","","","","canvas-button-response","52","211303","0.0-52.0","3017","bed","","","","","","","","","","","","","","perceptual","","","0","7","","","","","32","bed","1","","1",""
"","","","","","","","","","","","canvas-button-response","53","212484","0.0-53.0","1180","10","","","","","","","","","","","","","","confidence","","","0","7","","","","","","","","","","7"
"","","","","","","","","","","","html-keyboard-response","54","213499","0.0-54.0","null","null","","","","","","","","","","","","","","feedback","Mon Oct 13 2025 18:53:08 GMT-0400 (Eastern Daylight Time)","27745","0","7","","","","","","","","","",""
"","","","","","","","","","","","preload","55","213499","0.0-55.0","","","","","true","","","","","","","","","","","preload","","","0","8","false","[]","[]","[]","","","","","",""
"","","","","","","","","","","","canvas-keyboard-response","56","213800","0.0-56.0","null","null","","","","","","","","","","","","","","fixation","","","0","8","","","","","","","","","",""
"","","","","","","","","","","","canvas-keyboard-response","57","214106","0.0-57.0","null","null","","","","","","","","","","","","","","stimulus","","","0","8","","","","","","","","","",""
"","","","","","","","","","","","canvas-button-response","58","227112","0.0-58.0","13004","elephant","","","","","","","","","","","","","","perceptual","","","0","8","","","","","82","elephant","1","","1",""
"","","","","","","","","","","","canvas-button-response","59","231704","0.0-59.0","4591","4","","","","","","","","","","","","","","confidence","","","0","8","","","","","","","","","","8"
"","","","","","","","","","","","html-keyboard-response","60","232719","0.0-60.0","null","null","","","","","","","","","","","","","","feedback","Mon Oct 13 2025 18:53:27 GMT-0400 (Eastern Daylight Time)","27745","0","8","","","","","","","","","",""
"","","","","","","","","","","","preload","61","232720","0.0-61.0","","","","","true","","","","","","","","","","","preload","","","0","9","false","[]","[]","[]","","","","","",""
"","","","","","","","","","","","canvas-keyboard-response","62","233030","0.0-62.0","null","null","","","","","","","","","","","","","","fixation","","","0","9","","","","","","","","","",""
"","","","","","","","","","","","canvas-keyboard-response","63","233345","0.0-63.0","null","null","","","","","","","","","","","","","","stimulus","","","0","9","","","","","","","","","",""
"","","","","","","","","","","","canvas-button-response","64","238574","0.0-64.0","5228","flower","","","","","","","","","","","","","","perceptual","","","0","9","","","","","52","flower","1","","1",""
"","","","","","","","","","","","canvas-button-response","65","244525","0.0-65.0","5951","7","","","","","","","","","","","","","","confidence","","","0","9","","","","","","","","","","9"
"","","","","","","","","","","","html-keyboard-response","66","245528","0.0-66.0","null","null","","","","","","","","","","","","","","feedback","Mon Oct 13 2025 18:53:40 GMT-0400 (Eastern Daylight Time)","27745","0","9","","","","","","","","","",""
"","","","","","","","","","","","html-button-response","67","270324","0.0-67.0","24792","0","","","","","","","","","","","","","","start_practice","Mon Oct 13 2025 18:53:41 GMT-0400 (Eastern Daylight Time)","27745","0","9","","","","","","","","","",""
"","","","","","","","","","","","preload","68","270324","0.0-68.0","","","","","true","","","","","","","","","","","preload","","","1","0","false","[]","[]","[]","","","","","",""
"","","","","","","","","","","","canvas-keyboard-response","69","270629","0.0-69.0","null","null","","","","","","","","","","","","","","fixation","","","1","0","","","","","","","","","",""
"","","","","","","","","","","","canvas-keyboard-response","70","270945","0.0-70.0","null","null","","","","","","","","","","","","","","stimulus","","","1","0","","","","","","","","","",""
"","","","","","","","","","","","canvas-button-response","71","276197","0.0-71.0","5250","cat","","","","","","","","","","","","","","perceptual","","","1","0","","","","","67","train","10","","0",""
"","","","","","","","","","","","canvas-button-response","72","278063","0.0-72.0","1862","1","","","","","","","","","","","","","","confidence","","","1","0","","","","","","","","","","0"
"","","","","","","","","","","","html-keyboard-response","73","279068","0.0-73.0","null","null","","","","","","","","","","","","","","feedback","Mon Oct 13 2025 18:54:13 GMT-0400 (Eastern Daylight Time)","27745","1","0","","","","","","","","","",""
"","","","","","","","","","","","preload","74","279068","0.0-74.0","","","","","true","","","","","","","","","","","preload","","","1","1","false","[]","[]","[]","","","","","",""
"","","","","","","","","","","","canvas-keyboard-response","75","279370","0.0-75.0","null","null","","","","","","","","","","","","","","fixation","","","1","1","","","","","","","","","",""
"","","","","","","","","","","","canvas-keyboard-response","76","279685","0.0-76.0","null","null","","","","","","","","","","","","","","stimulus","","","1","1","","","","","","","","","",""
"","","","","","","","","","","","canvas-button-response","77","281964","0.0-77.0","2277","knife","","","","","","","","","","","","","","perceptual","","","1","1","","","","","44","bridge","6","","0",""
"","","","","","","","","","","","canvas-button-response","78","284330","0.0-78.0","2365","1","","","","","","","","","","","","","","confidence","","","1","1","","","","","","","","","","0"
"","","","","","","","","","","","html-keyboard-response","79","285335","0.0-79.0","null","null","","","","","","","","","","","","","","feedback","Mon Oct 13 2025 18:54:19 GMT-0400 (Eastern Daylight Time)","27745","1","1","","","","","","","","","",""
"","","","","","","","","","","","preload","80","285335","0.0-80.0","","","","","true","","","","","","","","","","","preload","","","1","2","false","[]","[]","[]","","","","","",""
"","","","","","","","","","","","canvas-keyboard-response","81","285650","0.0-81.0","null","null","","","","","","","","","","","","","","fixation","","","1","2","","","","","","","","","",""
"","","","","","","","","","","","canvas-keyboard-response","82","285952","0.0-82.0","null","null","","","","","","","","","","","","","","stimulus","","","1","2","","","","","","","","","",""
"","","","","","","","","","","","canvas-button-response","83","289349","0.0-83.0","3395","knife","","","","","","","","","","","","","","perceptual","","","1","2","","","","","94","knife","6","","1",""
"","","","","","","","","","","","canvas-button-response","84","290720","0.0-84.0","1370","8","","","","","","","","","","","","","","confidence","","","1","2","","","","","","","","","","1"
"","","","","","","","","","","","html-keyboard-response","85","291723","0.0-85.0","null","null","","","","","","","","","","","","","","feedback","Mon Oct 13 2025 18:54:26 GMT-0400 (Eastern Daylight Time)","27745","1","2","","","","","","","","","",""
"","","","","","","","","","","","preload","86","291723","0.0-86.0","","","","","true","","","","","","","","","","","preload","","","1","3","false","[]","[]","[]","","","","","",""
"","","","","","","","","","","","canvas-keyboard-response","87","292040","0.0-87.0","null","null","","","","","","","","","","","","","","fixation","","","1","3","","","","","","","","","",""
"","","","","","","","","","","","canvas-keyboard-response","88","292349","0.0-88.0","null","null","","","","","","","","","","","","","","stimulus","","","1","3","","","","","","","","","",""
"","","","","","","","","","","","canvas-button-response","89","295495","0.0-89.0","3145","cat","","","","","","","","","","","","","","perceptual","","","1","3","","","","","37","bed","10","","0",""
"","","","","","","","","","","","canvas-button-response","90","296711","0.0-90.0","1215","1","","","","","","","","","","","","","","confidence","","","1","3","","","","","","","","","","1"
"","","","","","","","","","","","html-keyboard-response","91","297726","0.0-91.0","null","null","","","","","","","","","","","","","","feedback","Mon Oct 13 2025 18:54:32 GMT-0400 (Eastern Daylight Time)","27745","1","3","","","","","","","","","",""
"","","","","","","","","","","","preload","92","297727","0.0-92.0","","","","","true","","","","","","","","","","","preload","","","1","4","false","[]","[]","[]","","","","","",""
"","","","","","","","","","","","canvas-keyboard-response","93","298029","0.0-93.0","null","null","","","","","","","","","","","","","","fixation","","","1","4","","","","","","","","","",""
"","","","","","","","","","","","canvas-keyboard-response","94","298338","0.0-94.0","null","null","","","","","","","","","","","","","","stimulus","","","1","4","","","","","","","","","",""
"","","","","","","","","","","","canvas-button-response","95","300689","0.0-95.0","2349","bridge","","","","","","","","","","","","","","perceptual","","","1","4","","","","","17","car","10","","0",""
"","","","","","","","","","","","canvas-button-response","96","302073","0.0-96.0","1382","0","","","","","","","","","","","","","","confidence","","","1","4","","","","","","","","","","1"
"","","","","","","","","","","","html-keyboard-response","97","303086","0.0-97.0","null","null","","","","","","","","","","","","","","feedback","Mon Oct 13 2025 18:54:37 GMT-0400 (Eastern Daylight Time)","27745","1","4","","","","","","","","","",""
"","","","","","","","","","","","preload","98","303087","0.0-98.0","","","","","true","","","","","","","","","","","preload","","","1","5","false","[]","[]","[]","","","","","",""
"","","","","","","","","","","","canvas-keyboard-response","99","303397","0.0-99.0","null","null","","","","","","","","","","","","","","fixation","","","1","5","","","","","","","","","",""
"","","","","","","","","","","","canvas-keyboard-response","100","303709","0.0-100.0","null","null","","","","","","","","","","","","","","stimulus","","","1","5","","","","","","","","","",""
"","","","","","","","","","","","canvas-button-response","101","305983","0.0-101.0","2272","elephant","","","","","","","","","","","","","","perceptual","","","1","5","","","","","54","flower","6","","0",""
"","","","","","","","","","","","canvas-button-response","102","306904","0.0-102.0","920","0","","","","","","","","","","","","","","confidence","","","1","5","","","","","","","","","","1"
"","","","","","","","","","","","html-keyboard-response","103","307926","0.0-103.0","null","null","","","","","","","","","","","","","","feedback","Mon Oct 13 2025 18:54:42 GMT-0400 (Eastern Daylight Time)","27745","1","5","","","","","","","","","",""
"","","","","","","","","","","","preload","104","307927","0.0-104.0","","","","","true","","","","","","","","","","","preload","","","1","6","false","[]","[]","[]","","","","","",""
"","","","","","","","","","","","canvas-keyboard-response","105","308230","0.0-105.0","null","null","","","","","","","","","","","","","","fixation","","","1","6","","","","","","","","","",""
"","","","","","","","","","","","canvas-keyboard-response","106","308533","0.0-106.0","null","null","","","","","","","","","","","","","","stimulus","","","1","6","","","","","","","","","",""
"","","","","","","","","","","","canvas-button-response","107","309909","0.0-107.0","1374","house","","","","","","","","","","","","","","perceptual","","","1","6","","","","","4","house","6","","1",""
"","","","","","","","","","","","canvas-button-response","108","311198","0.0-108.0","1288","10","","","","","","","","","","","","","","confidence","","","1","6","","","","","","","","","","2"
"","","","","","","","","","","","html-keyboard-response","109","312209","0.0-109.0","null","null","","","","","","","","","","","","","","feedback","Mon Oct 13 2025 18:54:46 GMT-0400 (Eastern Daylight Time)","27745","1","6","","","","","","","","","",""
"","","","","","","","","","","","preload","110","312210","0.0-110.0","","","","","true","","","","","","","","","","","preload","","","1","7","false","[]","[]","[]","","","","","",""
"","","","","","","","","","","","canvas-keyboard-response","111","312513","0.0-111.0","null","null","","","","","","","","","","","","","","fixation","","","1","7","","","","","","","","","",""
"","","","","","","","","","","","canvas-keyboard-response","112","312817","0.0-112.0","null","null","","","","","","","","","","","","","","stimulus","","","1","7","","","","","","","","","",""
"","","","","","","","","","","","canvas-button-response","113","315604","0.0-113.0","2785","phone","","","","","","","","","","","","","","perceptual","","","1","7","","","","","47","bridge","10","","0",""
"","","","","","","","","","","","canvas-button-response","114","316697","0.0-114.0","1092","1","","","","","","","","","","","","","","confidence","","","1","7","","","","","","","","","","2"
"","","","","","","","","","","","html-keyboard-response","115","317701","0.0-115.0","null","null","","","","","","","","","","","","","","feedback","Mon Oct 13 2025 18:54:52 GMT-0400 (Eastern Daylight Time)","27745","1","7","","","","","","","","","",""
"","","","","","","","","","","","preload","116","317701","0.0-116.0","","","","","true","","","","","","","","","","","preload","","","1","8","false","[]","[]","[]","","","","","",""
"","","","","","","","","","","","canvas-keyboard-response","117","318004","0.0-117.0","null","null","","","","","","","","","","","","","","fixation","","","1","8","","","","","","","","","",""
"","","","","","","","","","","","canvas-keyboard-response","118","318307","0.0-118.0","null","null","","","","","","","","","","","","","","stimulus","","","1","8","","","","","","","","","",""
"","","","","","","","","","","","canvas-button-response","119","319695","0.0-119.0","1384","knife","","","","","","","","","","","","","","perceptual","","","1","8","","","","","97","knife","10","","1",""
"","","","","","","","","","","","canvas-button-response","120","320634","0.0-120.0","935","10","","","","","","","","","","","","","","confidence","","","1","8","","","","","","","","","","3"
"","","","","","","","","","","","html-keyboard-response","121","321636","0.0-121.0","null","null","","","","","","","","","","","","","","feedback","Mon Oct 13 2025 18:54:56 GMT-0400 (Eastern Daylight Time)","27745","1","8","","","","","","","","","",""
"","","","","","","","","","","","preload","122","321636","0.0-122.0","","","","","true","","","","","","","","","","","preload","","","1","9","false","[]","[]","[]","","","","","",""
"","","","","","","","","","","","canvas-keyboard-response","123","321946","0.0-123.0","null","null","","","","","","","","","","","","","","fixation","","","1","9","","","","","","","","","",""
"","","","","","","","","","","","canvas-keyboard-response","124","322262","0.0-124.0","null","null","","","","","","","","","","","","","","stimulus","","","1","9","","","","","","","","","",""
"","","","","","","","","","","","canvas-button-response","125","325862","0.0-125.0","3599","cat","","","","","","","","","","","","","","perceptual","","","1","9","","","","","84","elephant","6","","0",""
"","","","","","","","","","","","canvas-button-response","126","327537","0.0-126.0","1673","3","","","","","","","","","","","","","","confidence","","","1","9","","","","","","","","","","3"
"","","","","","","","","","","","html-keyboard-response","127","328544","0.0-127.0","null","null","","","","","","","","","","","","","","feedback","Mon Oct 13 2025 18:55:03 GMT-0400 (Eastern Daylight Time)","27745","1","9","","","","","","","","","",""
"","","","","","","","","","","","preload","128","328544","0.0-128.0","","","","","true","","","","","","","","","","","preload","","","1","10","false","[]","[]","[]","","","","","",""
"","","","","","","","","","","","canvas-keyboard-response","129","328854","0.0-129.0","null","null","","","","","","","","","","","","","","fixation","","","1","10","","","","","","","","","",""
"","","","","","","","","","","","canvas-keyboard-response","130","329157","0.0-130.0","null","null","","","","","","","","","","","","","","stimulus","","","1","10","","","","","","","","","",""
"","","","","","","","","","","","canvas-button-response","131","331632","0.0-131.0","2473","phone","","","","","","","","","","","","","","perceptual","","","1","10","","","","","14","car","6","","0",""
"","","","","","","","","","","","canvas-button-response","132","333160","0.0-132.0","1526","0","","","","","","","","","","","","","","confidence","","","1","10","","","","","","","","","","3"
"","","","","","","","","","","","html-keyboard-response","133","334169","0.0-133.0","null","null","","","","","","","","","","","","","","feedback","Mon Oct 13 2025 18:55:08 GMT-0400 (Eastern Daylight Time)","27745","1","10","","","","","","","","","",""
"","","","","","","","","","","","preload","134","334169","0.0-134.0","","","","","true","","","","","","","","","","","preload","","","1","11","false","[]","[]","[]","","","","","",""
"","","","","","","","","","","","canvas-keyboard-response","135","334470","0.0-135.0","null","null","","","","","","","","","","","","","","fixation","","","1","11","","","","","","","","","",""
"","","","","","","","","","","","canvas-keyboard-response","136","334771","0.0-136.0","null","null","","","","","","","","","","","","","","stimulus","","","1","11","","","","","","","","","",""
"","","","","","","","","","","","canvas-button-response","137","336151","0.0-137.0","1379","phone","","","","","","","","","","","","","","perceptual","","","1","11","","","","","24","phone","6","","1",""
"","","","","","","","","","","","canvas-button-response","138","337031","0.0-138.0","878","10","","","","","","","","","","","","","","confidence","","","1","11","","","","","","","","","","4"
"","","","","","","","","","","","html-keyboard-response","139","338040","0.0-139.0","null","null","","","","","","","","","","","","","","feedback","Mon Oct 13 2025 18:55:12 GMT-0400 (Eastern Daylight Time)","27745","1","11","","","","","","","","","",""
"","","","","","","","","","","","preload","140","338041","0.0-140.0","","","","","true","","","","","","","","","","","preload","","","1","12","false","[]","[]","[]","","","","","",""
"","","","","","","","","","","","canvas-keyboard-response","141","338342","0.0-141.0","null","null","","","","","","","","","","","","","","fixation","","","1","12","","","","","","","","","",""
"","","","","","","","","","","","canvas-keyboard-response","142","338658","0.0-142.0","null","null","","","","","","","","","","","","","","stimulus","","","1","12","","","","","","","","","",""
"","","","","","","","","","","","canvas-button-response","143","339870","0.0-143.0","1211","cat","","","","","","","","","","","","","","perceptual","","","1","12","","","","","74","cat","6","","1",""
"","","","","","","","","","","","canvas-button-response","144","340725","0.0-144.0","853","10","","","","","","","","","","","","","","confidence","","","1","12","","","","","","","","","","5"
"","","","","","","","","","","","html-keyboard-response","145","341742","0.0-145.0","null","null","","","","","","","","","","","","","","feedback","Mon Oct 13 2025 18:55:16 GMT-0400 (Eastern Daylight Time)","27745","1","12","","","","","","","","","",""
"","","","","","","","","","","","preload","146","341743","0.0-146.0","","","","","true","","","","","","","","","","","preload","","","1","13","false","[]","[]","[]","","","","","",""
"","","","","","","","","","","","canvas-keyboard-response","147","342053","0.0-147.0","null","null","","","","","","","","","","","","","","fixation","","","1","13","","","","","","","","","",""
"","","","","","","","","","","","canvas-keyboard-response","148","342356","0.0-148.0","null","null","","","","","","","","","","","","","","stimulus","","","1","13","","","","","","","","","",""
"","","","","","","","","","","","canvas-button-response","149","344264","0.0-149.0","1907","flower","","","","","","","","","","","","","","perceptual","","","1","13","","","","","57","flower","10","","1",""
"","","","","","","","","","","","canvas-button-response","150","345571","0.0-150.0","1305","10","","","","","","","","","","","","","","confidence","","","1","13","","","","","","","","","","6"
"","","","","","","","","","","","html-keyboard-response","151","346586","0.0-151.0","null","null","","","","","","","","","","","","","","feedback","Mon Oct 13 2025 18:55:21 GMT-0400 (Eastern Daylight Time)","27745","1","13","","","","","","","","","",""
"","","","","","","","","","","","preload","152","346587","0.0-152.0","","","","","true","","","","","","","","","","","preload","","","1","14","false","[]","[]","[]","","","","","",""
"","","","","","","","","","","","canvas-keyboard-response","153","346889","0.0-153.0","null","null","","","","","","","","","","","","","","fixation","","","1","14","","","","","","","","","",""
"","","","","","","","","","","","canvas-keyboard-response","154","347193","0.0-154.0","null","null","","","","","","","","","","","","","","stimulus","","","1","14","","","","","","","","","",""
"","","","","","","","","","","","canvas-button-response","155","348523","0.0-155.0","1328","bed","","","","","","","","","","","","","","perceptual","","","1","14","","","","","34","bed","6","","1",""
"","","","","","","","","","","","canvas-button-response","156","349676","0.0-156.0","1152","10","","","","","","","","","","","","","","confidence","","","1","14","","","","","","","","","","7"
"","","","","","","","","","","","html-keyboard-response","157","350681","0.0-157.0","null","null","","","","","","","","","","","","","","feedback","Mon Oct 13 2025 18:55:25 GMT-0400 (Eastern Daylight Time)","27745","1","14","","","","","","","","","",""
"","","","","","","","","","","","preload","158","350682","0.0-158.0","","","","","true","","","","","","","","","","","preload","","","1","15","false","[]","[]","[]","","","","","",""
"","","","","","","","","","","","canvas-keyboard-response","159","350987","0.0-159.0","null","null","","","","","","","","","","","","","","fixation","","","1","15","","","","","","","","","",""
"","","","","","","","","","","","canvas-keyboard-response","160","351290","0.0-160.0","null","null","","","","","","","","","","","","","","stimulus","","","1","15","","","","","","","","","",""
"","","","","","","","","","","","canvas-button-response","161","352127","0.0-161.0","836","train","","","","","","","","","","","","","","perceptual","","","1","15","","","","","64","train","6","","1",""
"","","","","","","","","","","","canvas-button-response","162","352349","0.0-162.0","221","9","","","","","","","","","","","","","","confidence","","","1","15","","","","","","","","","","8"
"","","","","","","","","","","","html-keyboard-response","163","353365","0.0-163.0","null","null","","","","","","","","","","","","","","feedback","Mon Oct 13 2025 18:55:27 GMT-0400 (Eastern Daylight Time)","27745","1","15","","","","","","","","","",""
"","","","","","","","","","","","preload","164","353366","0.0-164.0","","","","","true","","","","","","","","","","","preload","","","1","16","false","[]","[]","[]","","","","","",""
"","","","","","","","","","","","canvas-keyboard-response","165","353669","0.0-165.0","null","null","","","","","","","","","","","","","","fixation","","","1","16","","","","","","","","","",""
"","","","","","","","","","","","canvas-keyboard-response","166","353970","0.0-166.0","null","null","","","","","","","","","","","","","","stimulus","","","1","16","","","","","","","","","",""
"","","","","","","","","","","","canvas-button-response","167","354848","0.0-167.0","877","train","","","","","","","","","","","","","","perceptual","","","1","16","","","","","27","phone","10","","0",""
"","","","","","","","","","","","canvas-button-response","168","356533","0.0-168.0","1683","0","","","","","","","","","","","","","","confidence","","","1","16","","","","","","","","","","8"
"","","","","","","","","","","","html-keyboard-response","169","357535","0.0-169.0","null","null","","","","","","","","","","","","","","feedback","Mon Oct 13 2025 18:55:32 GMT-0400 (Eastern Daylight Time)","27745","1","16","","","","","","","","","",""
"","","","","","","","","","","","preload","170","357536","0.0-170.0","","","","","true","","","","","","","","","","","preload","","","1","17","false","[]","[]","[]","","","","","",""
"","","","","","","","","","","","canvas-keyboard-response","171","357837","0.0-171.0","null","null","","","","","","","","","","","","","","fixation","","","1","17","","","","","","","","","",""
"","","","","","","","","","","","canvas-keyboard-response","172","358145","0.0-172.0","null","null","","","","","","","","","","","","","","stimulus","","","1","17","","","","","","","","","",""
"","","","","","","","","","","","canvas-button-response","173","359848","0.0-173.0","1701","house","","","","","","","","","","","","","","perceptual","","","1","17","","","","","7","house","10","","1",""
"","","","","","","","","","","","canvas-button-response","174","360865","0.0-174.0","1016","10","","","","","","","","","","","","","","confidence","","","1","17","","","","","","","","","","9"
"","","","","","","","","","","","html-keyboard-response","175","361875","0.0-175.0","null","null","","","","","","","","","","","","","","feedback","Mon Oct 13 2025 18:55:36 GMT-0400 (Eastern Daylight Time)","27745","1","17","","","","","","","","","",""
"","","","","","","","","","","","preload","176","361876","0.0-176.0","","","","","true","","","","","","","","","","","preload","","","1","18","false","[]","[]","[]","","","","","",""
"","","","","","","","","","","","canvas-keyboard-response","177","362178","0.0-177.0","null","null","","","","","","","","","","","","","","fixation","","","1","18","","","","","","","","","",""
"","","","","","","","","","","","canvas-keyboard-response","178","362493","0.0-178.0","null","null","","","","","","","","","","","","","","stimulus","","","1","18","","","","","","","","","",""
"","","","","","","","","","","","canvas-button-response","179","363684","0.0-179.0","1190","cat","","","","","","","","","","","","","","perceptual","","","1","18","","","","","77","cat","10","","1",""
"","","","","","","","","","","","canvas-button-response","180","364649","0.0-180.0","963","10","","","","","","","","","","","","","","confidence","","","1","18","","","","","","","","","","10"
"","","","","","","","","","","","html-keyboard-response","181","365659","0.0-181.0","null","null","","","","","","","","","","","","","","feedback","Mon Oct 13 2025 18:55:40 GMT-0400 (Eastern Daylight Time)","27745","1","18","","","","","","","","","",""
"","","","","","","","","","","","preload","182","365661","0.0-182.0","","","","","true","","","","","","","","","","","preload","","","1","19","false","[]","[]","[]","","","","","",""
"","","","","","","","","","","","canvas-keyboard-response","183","365963","0.0-183.0","null","null","","","","","","","","","","","","","","fixation","","","1","19","","","","","","","","","",""
"","","","","","","","","","","","canvas-keyboard-response","184","366269","0.0-184.0","null","null","","","","","","","","","","","","","","stimulus","","","1","19","","","","","","","","","",""
"","","","","","","","","","","","canvas-button-response","185","368840","0.0-185.0","2569","bridge","","","","","","","","","","","","","","perceptual","","","1","19","","","","","87","elephant","10","","0",""
"","","","","","","","","","","","canvas-button-response","186","370226","0.0-186.0","1384","5","","","","","","","","","","","","","","confidence","","","1","19","","","","","","","","","","10"
"","","","","","","","","","","","html-keyboard-response","187","371239","0.0-187.0","null","null","","","","","","","","","","","","","","feedback","Mon Oct 13 2025 18:55:45 GMT-0400 (Eastern Daylight Time)","27745","1","19","","","","","","","","","",""
"","","","","","","","","","","","html-button-response","188","592826","0.0-188.0","221585","0","","","","","","","","","","","","","","start experiment","Mon Oct 13 2025 18:55:46 GMT-0400 (Eastern Daylight Time)","27745","1","19","","","","","","","","","",""
"","","","","","","","","","","","preload","189","592826","0.0-189.0","","","","","true","","","","","","","","","","","preload","","","2","0","false","[]","[]","[]","","","","","",""
"","","","","","","","","","","","canvas-keyboard-response","190","593127","0.0-190.0","null","null","","","","","","","","","","","","","","fixation","","","2","0","","","","","","","","","",""
"","","","","","","","","","","","canvas-keyboard-response","191","593441","0.0-191.0","null","null","","","","","","","","","","","","","","stimulus","","","2","0","","","","","","","","","",""
"","","","","","","","","","","","canvas-button-response","192","594953","0.0-192.0","1512","bridge","","","","","","","","","","","","","","perceptual","","","2","0","","","","","83","phone","6","0","0",""
"","","","","","","","","","","","canvas-button-response","193","596984","0.0-193.0","2030","0","","","","","","","","","","","","","","confidence","","","2","0","","","","","","","","","","0"
"","","","","","","","","","","","preload","194","596984","0.0-194.0","","","","","true","","","","","","","","","","","preload","","","2","1","false","[]","[]","[]","","","","","",""
"","","","","","","","","","","","canvas-keyboard-response","195","597286","0.0-195.0","null","null","","","","","","","","","","","","","","fixation","","","2","1","","","","","","","","","",""
"","","","","","","","","","","","canvas-keyboard-response","196","597602","0.0-196.0","null","null","","","","","","","","","","","","","","stimulus","","","2","1","","","","","","","","","",""
"","","","","","","","","","","","canvas-button-response","197","599390","0.0-197.0","1787","cat","","","","","","","","","","","","","","perceptual","","","2","1","","","","","324","elephant","6","0","0",""
"","","","","","","","","","","","canvas-button-response","198","600863","0.0-198.0","1472","1","","","","","","","","","","","","","","confidence","","","2","1","","","","","","","","","","0"
"","","","","","","","","","","","preload","199","600864","0.0-199.0","","","","","true","","","","","","","","","","","preload","","","2","2","false","[]","[]","[]","","","","","",""
"","","","","","","","","","","","canvas-keyboard-response","200","601167","0.0-200.0","null","null","","","","","","","","","","","","","","fixation","","","2","2","","","","","","","","","",""
"","","","","","","","","","","","canvas-keyboard-response","201","601477","0.0-201.0","null","null","","","","","","","","","","","","","","stimulus","","","2","2","","","","","","","","","",""
"","","","","","","","","","","","canvas-button-response","202","603982","0.0-202.0","2501","bed","","","","","","","","","","","","","","perceptual","","","2","2","","","","","387","knife","10","0","0",""
"","","","","","","","","","","","canvas-button-response","203","607508","0.0-203.0","3524","1","","","","","","","","","","","","","","confidence","","","2","2","","","","","","","","","","0"
"","","","","","","","","","","","preload","204","607509","0.0-204.0","","","","","true","","","","","","","","","","","preload","","","2","3","false","[]","[]","[]","","","","","",""
"","","","","","","","","","","","canvas-keyboard-response","205","607818","0.0-205.0","null","null","","","","","","","","","","","","","","fixation","","","2","3","","","","","","","","","",""
"","","","","","","","","","","","canvas-keyboard-response","206","608129","0.0-206.0","null","null","","","","","","","","","","","","","","stimulus","","","2","3","","","","","","","","","",""
"","","","","","","","","","","","canvas-button-response","207","612775","0.0-207.0","4644","train","","","","","","","","","","","","","","perceptual","","","2","3","","","","","167","bridge","6","0","0",""
"","","","","","","","","","","","canvas-button-response","208","614782","0.0-208.0","2007","1","","","","","","","","","","","","","","confidence","","","2","3","","","","","","","","","","0"
"","","","","","","","","","","","preload","209","614783","0.0-209.0","","","","","true","","","","","","","","","","","preload","","","2","4","false","[]","[]","[]","","","","","",""
"","","","","","","","","","","","canvas-keyboard-response","210","615091","0.0-210.0","null","null","","","","","","","","","","","","","","fixation","","","2","4","","","","","","","","","",""
"","","","","","","","","","","","canvas-keyboard-response","211","615399","0.0-211.0","null","null","","","","","","","","","","","","","","stimulus","","","2","4","","","","","","","","","",""
"","","","","","","","","","","","canvas-button-response","212","618195","0.0-212.0","2795","flower","","","","","","","","","","","","","","perceptual","","","2","4","","","","","190","bridge","10","0","0",""
"","","","","","","","","","","","canvas-button-response","213","619353","0.0-213.0","1156","1","","","","","","","","","","","","","","confidence","","","2","4","","","","","","","","","","0"
"","","","","","","","","","","","preload","214","619353","0.0-214.0","","","","","true","","","","","","","","","","","preload","","","2","5","false","[]","[]","[]","","","","","",""
"","","","","","","","","","","","canvas-keyboard-response","215","619662","0.0-215.0","null","null","","","","","","","","","","","","","","fixation","","","2","5","","","","","","","","","",""
"","","","","","","","","","","","canvas-keyboard-response","216","619968","0.0-216.0","null","null","","","","","","","","","","","","","","stimulus","","","2","5","","","","","","","","","",""
"","","","","","","","","","","","canvas-button-response","217","623522","0.0-217.0","3553","knife","","","","","","","","","","","","","","perceptual","","","2","5","","","","","391","knife","10","0","1",""
"","","","","","","","","","","","canvas-button-response","218","625233","0.0-218.0","1709","5","","","","","","","","","","","","","","confidence","","","2","5","","","","","","","","","","1"
"","","","","","","","","","","","preload","219","625233","0.0-219.0","","","","","true","","","","","","","","","","","preload","","","2","6","false","[]","[]","[]","","","","","",""
"","","","","","","","","","","","canvas-keyboard-response","220","625544","0.0-220.0","null","null","","","","","","","","","","","","","","fixation","","","2","6","","","","","","","","","",""
"","","","","","","","","","","","canvas-keyboard-response","221","625852","0.0-221.0","null","null","","","","","","","","","","","","","","stimulus","","","2","6","","","","","","","","","",""
"","","","","","","","","","","","canvas-button-response","222","628276","0.0-222.0","2422","elephant","","","","","","","","","","","","","","perceptual","","","2","6","","","","","358","elephant","10","0","1",""
"","","","","","","","","","","","canvas-button-response","223","629915","0.0-223.0","1637","5","","","","","","","","","","","","","","confidence","","","2","6","","","","","","","","","","2"
"","","","","","","","","","","","preload","224","629916","0.0-224.0","","","","","true","","","","","","","","","","","preload","","","2","7","false","[]","[]","[]","","","","","",""
"","","","","","","","","","","","canvas-keyboard-response","225","630221","0.0-225.0","null","null","","","","","","","","","","","","","","fixation","","","2","7","","","","","","","","","",""
"","","","","","","","","","","","canvas-keyboard-response","226","630525","0.0-226.0","null","null","","","","","","","","","","","","","","stimulus","","","2","7","","","","","","","","","",""
"","","","","","","","","","","","canvas-button-response","227","633556","0.0-227.0","3030","car","","","","","","","","","","","","","","perceptual","","","2","7","","","","","72","car","10","0","1",""
"","","","","","","","","","","","canvas-button-response","228","636317","0.0-228.0","2759","1","","","","","","","","","","","","","","confidence","","","2","7","","","","","","","","","","3"
"","","","","","","","","","","","preload","229","636318","0.0-229.0","","","","","true","","","","","","","","","","","preload","","","2","8","false","[]","[]","[]","","","","","",""
"","","","","","","","","","","","canvas-keyboard-response","230","636623","0.0-230.0","null","null","","","","","","","","","","","","","","fixation","","","2","8","","","","","","","","","",""
"","","","","","","","","","","","canvas-keyboard-response","231","636934","0.0-231.0","null","null","","","","","","","","","","","","","","stimulus","","","2","8","","","","","","","","","",""
"","","","","","","","","","","","canvas-button-response","232","641777","0.0-232.0","4841","elephant","","","","","","","","","","","","","","perceptual","","","2","8","","","","","243","train","6","0","0",""
"","","","","","","","","","","","canvas-button-response","233","643843","0.0-233.0","2065","1","","","","","","","","","","","","","","confidence","","","2","8","","","","","","","","","","3"
"","","","","","","","","","","","preload","234","643844","0.0-234.0","","","","","true","","","","","","","","","","","preload","","","2","9","false","[]","[]","[]","","","","","",""
"","","","","","","","","","","","canvas-keyboard-response","235","644149","0.0-235.0","null","null","","","","","","","","","","","","","","fixation","","","2","9","","","","","","","","","",""
"","","","","","","","","","","","canvas-keyboard-response","236","644452","0.0-236.0","null","null","","","","","","","","","","","","","","stimulus","","","2","9","","","","","","","","","",""
"","","","","","","","","","","","canvas-button-response","237","646067","0.0-237.0","1613","cat","","","","","","","","","","","","","","perceptual","","","2","9","","","","","316","cat","10","0","1",""
"","","","","","","","","","","","canvas-button-response","238","647023","0.0-238.0","954","8","","","","","","","","","","","","","","confidence","","","2","9","","","","","","","","","","4"
"","","","","","","","","","","","preload","239","647024","0.0-239.0","","","","","true","","","","","","","","","","","preload","","","2","10","false","[]","[]","[]","","","","","",""
"","","","","","","","","","","","canvas-keyboard-response","240","647332","0.0-240.0","null","null","","","","","","","","","","","","","","fixation","","","2","10","","","","","","","","","",""
"","","","","","","","","","","","canvas-keyboard-response","241","647637","0.0-241.0","null","null","","","","","","","","","","","","","","stimulus","","","2","10","","","","","","","","","",""
"","","","","","","","","","","","canvas-button-response","242","649285","0.0-242.0","1647","knife","","","","","","","","","","","","","","perceptual","","","2","10","","","","","148","bed","10","0","0",""
"","","","","","","","","","","","canvas-button-response","243","650836","0.0-243.0","1548","1","","","","","","","","","","","","","","confidence","","","2","10","","","","","","","","","","4"
"","","","","","","","","","","","preload","244","650837","0.0-244.0","","","","","true","","","","","","","","","","","preload","","","2","11","false","[]","[]","[]","","","","","",""
"","","","","","","","","","","","canvas-keyboard-response","245","651145","0.0-245.0","null","null","","","","","","","","","","","","","","fixation","","","2","11","","","","","","","","","",""
"","","","","","","","","","","","canvas-keyboard-response","246","651447","0.0-246.0","null","null","","","","","","","","","","","","","","stimulus","","","2","11","","","","","","","","","",""
"","","","","","","","","","","","canvas-button-response","247","653707","0.0-247.0","2258","bridge","","","","","","","","","","","","","","perceptual","","","2","11","","","","","193","bridge","10","0","1",""
"","","","","","","","","","","","canvas-button-response","248","654644","0.0-248.0","936","1","","","","","","","","","","","","","","confidence","","","2","11","","","","","","","","","","5"
"","","","","","","","","","","","preload","249","654645","0.0-249.0","","","","","true","","","","","","","","","","","preload","","","2","12","false","[]","[]","[]","","","","","",""
"","","","","","","","","","","","canvas-keyboard-response","250","654951","0.0-250.0","null","null","","","","","","","","","","","","","","fixation","","","2","12","","","","","","","","","",""
"","","","","","","","","","","","canvas-keyboard-response","251","655252","0.0-251.0","null","null","","","","","","","","","","","","","","stimulus","","","2","12","","","","","","","","","",""
"","","","","","","","","","","","canvas-button-response","252","656526","0.0-252.0","1272","bridge","","","","","","","","","","","","","","perceptual","","","2","12","","","","","331","elephant","6","0","0",""
"","","","","","","","","","","","canvas-button-response","253","657468","0.0-253.0","940","1","","","","","","","","","","","","","","confidence","","","2","12","","","","","","","","","","5"
"","","","","","","","","","","","preload","254","657469","0.0-254.0","","","","","true","","","","","","","","","","","preload","","","2","13","false","[]","[]","[]","","","","","",""
"","","","","","","","","","","","canvas-keyboard-response","255","657779","0.0-255.0","null","null","","","","","","","","","","","","","","fixation","","","2","13","","","","","","","","","",""
"","","","","","","","","","","","canvas-keyboard-response","256","658096","0.0-256.0","null","null","","","","","","","","","","","","","","stimulus","","","2","13","","","","","","","","","",""
"","","","","","","","","","","","canvas-button-response","257","661403","0.0-257.0","3304","phone","","","","","","","","","","","","","","perceptual","","","2","13","","","","","105","phone","10","0","1",""
"","","","","","","","","","","","canvas-button-response","258","663514","0.0-258.0","2110","1","","","","","","","","","","","","","","confidence","","","2","13","","","","","","","","","","6"
"","","","","","","","","","","","preload","259","663515","0.0-259.0","","","","","true","","","","","","","","","","","preload","","","2","14","false","[]","[]","[]","","","","","",""
"","","","","","","","","","","","canvas-keyboard-response","260","663833","0.0-260.0","null","null","","","","","","","","","","","","","","fixation","","","2","14","","","","","","","","","",""
"","","","","","","","","","","","canvas-keyboard-response","261","664137","0.0-261.0","null","null","","","","","","","","","","","","","","stimulus","","","2","14","","","","","","","","","",""
"","","","","","","","","","","","canvas-button-response","262","665872","0.0-262.0","1731","house","","","","","","","","","","","","","","perceptual","","","2","14","","","","","330","elephant","6","0","0",""
"","","","","","","","","","","","canvas-button-response","263","666881","0.0-263.0","1007","1","","","","","","","","","","","","","","confidence","","","2","14","","","","","","","","","","6"
"","","","","","","","","","","","preload","264","666882","0.0-264.0","","","","","true","","","","","","","","","","","preload","","","2","15","false","[]","[]","[]","","","","","",""
"","","","","","","","","","","","canvas-keyboard-response","265","667189","0.0-265.0","null","null","","","","","","","","","","","","","","fixation","","","2","15","","","","","","","","","",""
"","","","","","","","","","","","canvas-keyboard-response","266","667492","0.0-266.0","null","null","","","","","","","","","","","","","","stimulus","","","2","15","","","","","","","","","",""
"","","","","","","","","","","","canvas-button-response","267","669698","0.0-267.0","2204","bridge","","","","","","","","","","","","","","perceptual","","","2","15","","","","","188","bridge","10","0","1",""
"","","","","","","","","","","","canvas-button-response","268","670942","0.0-268.0","1243","1","","","","","","","","","","","","","","confidence","","","2","15","","","","","","","","","","7"
"","","","","","","","","","","","preload","269","670943","0.0-269.0","","","","","true","","","","","","","","","","","preload","","","2","16","false","[]","[]","[]","","","","","",""
"","","","","","","","","","","","canvas-keyboard-response","270","671253","0.0-270.0","null","null","","","","","","","","","","","","","","fixation","","","2","16","","","","","","","","","",""
"","","","","","","","","","","","canvas-keyboard-response","271","671557","0.0-271.0","null","null","","","","","","","","","","","","","","stimulus","","","2","16","","","","","","","","","",""
"","","","","","","","","","","","canvas-button-response","272","673256","0.0-272.0","1696","bed","","","","","","","","","","","","","","perceptual","","","2","16","","","","","9","house","6","0","0",""
"","","","","","","","","","","","canvas-button-response","273","674407","0.0-273.0","1149","1","","","","","","","","","","","","","","confidence","","","2","16","","","","","","","","","","7"
"","","","","","","","","","","","preload","274","674408","0.0-274.0","","","","","true","","","","","","","","","","","preload","","","2","17","false","[]","[]","[]","","","","","",""
"","","","","","","","","","","","canvas-keyboard-response","275","674713","0.0-275.0","null","null","","","","","","","","","","","","","","fixation","","","2","17","","","","","","","","","",""
"","","","","","","","","","","","canvas-keyboard-response","276","675016","0.0-276.0","null","null","","","","","","","","","","","","","","stimulus","","","2","17","","","","","","","","","",""
"","","","","","","","","","","","canvas-button-response","277","676361","0.0-277.0","1343","bed","","","","","","","","","","","","","","perceptual","","","2","17","","","","","138","bed","6","0","1",""
"","","","","","","","","","","","canvas-button-response","278","677425","0.0-278.0","1061","1","","","","","","","","","","","","","","confidence","","","2","17","","","","","","","","","","8"
"","","","","","","","","","","","preload","279","677426","0.0-279.0","","","","","true","","","","","","","","","","","preload","","","2","18","false","[]","[]","[]","","","","","",""
"","","","","","","","","","","","canvas-keyboard-response","280","677735","0.0-280.0","null","null","","","","","","","","","","","","","","fixation","","","2","18","","","","","","","","","",""
"","","","","","","","","","","","canvas-keyboard-response","281","678046","0.0-281.0","null","null","","","","","","","","","","","","","","stimulus","","","2","18","","","","","","","","","",""
"","","","","","","","","","","","canvas-button-response","282","679435","0.0-282.0","1387","bridge","","","","","","","","","","","","","","perceptual","","","2","18","","","","","169","bridge","6","0","1",""
"","","","","","","","","","","","canvas-button-response","283","680762","0.0-283.0","1324","10","","","","","","","","","","","","","","confidence","","","2","18","","","","","","","","","","9"
"","","","","","","","","","","","preload","284","680763","0.0-284.0","","","","","true","","","","","","","","","","","preload","","","2","19","false","[]","[]","[]","","","","","",""
"","","","","","","","","","","","canvas-keyboard-response","285","681065","0.0-285.0","null","null","","","","","","","","","","","","","","fixation","","","2","19","","","","","","","","","",""
"","","","","","","","","","","","canvas-keyboard-response","286","681376","0.0-286.0","null","null","","","","","","","","","","","","","","stimulus","","","2","19","","","","","","","","","",""
"","","","","","","","","","","","canvas-button-response","287","682774","0.0-287.0","1395","cat","","","","","","","","","","","","","","perceptual","","","2","19","","","","","74","car","10","0","0",""
"","","","","","","","","","","","canvas-button-response","288","684449","0.0-288.0","1672","0","","","","","","","","","","","","","","confidence","","","2","19","","","","","","","","","","9"
"","","","","","","","","","","","preload","289","684450","0.0-289.0","","","","","true","","","","","","","","","","","preload","","","2","20","false","[]","[]","[]","","","","","",""
"","","","","","","","","","","","canvas-keyboard-response","290","684762","0.0-290.0","null","null","","","","","","","","","","","","","","fixation","","","2","20","","","","","","","","","",""
"","","","","","","","","","","","canvas-keyboard-response","291","685072","0.0-291.0","null","null","","","","","","","","","","","","","","stimulus","","","2","20","","","","","","","","","",""
"","","","","","","","","","","","canvas-button-response","292","686666","0.0-292.0","1591","cat","","","","","","","","","","","","","","perceptual","","","2","20","","","","","296","cat","6","0","1",""
"","","","","","","","","","","","canvas-button-response","293","688222","0.0-293.0","1555","5","","","","","","","","","","","","","","confidence","","","2","20","","","","","","","","","","10"
"","","","","","","","","","","","preload","294","688223","0.0-294.0","","","","","true","","","","","","","","","","","preload","","","2","21","false","[]","[]","[]","","","","","",""
"","","","","","","","","","","","canvas-keyboard-response","295","688530","0.0-295.0","null","null","","","","","","","","","","","","","","fixation","","","2","21","","","","","","","","","",""
"","","","","","","","","","","","canvas-keyboard-response","296","688834","0.0-296.0","null","null","","","","","","","","","","","","","","stimulus","","","2","21","","","","","","","","","",""
"","","","","","","","","","","","canvas-button-response","297","690044","0.0-297.0","1209","car","","","","","","","","","","","","","","perceptual","","","2","21","","","","","3","house","6","0","0",""
"","","","","","","","","","","","canvas-button-response","298","691596","0.0-298.0","1551","1","","","","","","","","","","","","","","confidence","","","2","21","","","","","","","","","","10"
"","","","","","","","","","","","preload","299","691597","0.0-299.0","","","","","true","","","","","","","","","","","preload","","","2","22","false","[]","[]","[]","","","","","",""
"","","","","","","","","","","","canvas-keyboard-response","300","691901","0.0-300.0","null","null","","","","","","","","","","","","","","fixation","","","2","22","","","","","","","","","",""
"","","","","","","","","","","","canvas-keyboard-response","301","692213","0.0-301.0","null","null","","","","","","","","","","","","","","stimulus","","","2","22","","","","","","","","","",""
"","","","","","","","","","","","canvas-button-response","302","694515","0.0-302.0","2301","bridge","","","","","","","","","","","","","","perceptual","","","2","22","","","","","217","flower","6","0","0",""
"","","","","","","","","","","","canvas-button-response","303","695447","0.0-303.0","930","0","","","","","","","","","","","","","","confidence","","","2","22","","","","","","","","","","10"
"","","","","","","","","","","","preload","304","695448","0.0-304.0","","","","","true","","","","","","","","","","","preload","","","2","23","false","[]","[]","[]","","","","","",""
"","","","","","","","","","","","canvas-keyboard-response","305","695749","0.0-305.0","null","null","","","","","","","","","","","","","","fixation","","","2","23","","","","","","","","","",""
"","","","","","","","","","","","canvas-keyboard-response","306","696060","0.0-306.0","null","null","","","","","","","","","","","","","","stimulus","","","2","23","","","","","","","","","",""
"","","","","","","","","","","","canvas-button-response","307","697487","0.0-307.0","1425","car","","","","","","","","","","","","","","perceptual","","","2","23","","","","","57","car","6","0","1",""
"","","","","","","","","","","","canvas-button-response","308","698127","0.0-308.0","639","10","","","","","","","","","","","","","","confidence","","","2","23","","","","","","","","","","11"
"","","","","","","","","","","","preload","309","698127","0.0-309.0","","","","","true","","","","","","","","","","","preload","","","2","24","false","[]","[]","[]","","","","","",""
"","","","","","","","","","","","canvas-keyboard-response","310","698438","0.0-310.0","null","null","","","","","","","","","","","","","","fixation","","","2","24","","","","","","","","","",""
"","","","","","","","","","","","canvas-keyboard-response","311","698753","0.0-311.0","null","null","","","","","","","","","","","","","","stimulus","","","2","24","","","","","","","","","",""
"","","","","","","","","","","","canvas-button-response","312","699719","0.0-312.0","966","elephant","","","","","","","","","","","","","","perceptual","","","2","24","","","","","127","bed","6","0","0",""
"","","","","","","","","","","","canvas-button-response","313","701311","0.0-313.0","1589","1","","","","","","","","","","","","","","confidence","","","2","24","","","","","","","","","","11"
"","","","","","","","","","","","preload","314","701312","0.0-314.0","","","","","true","","","","","","","","","","","preload","","","2","25","false","[]","[]","[]","","","","","",""
"","","","","","","","","","","","canvas-keyboard-response","315","701616","0.0-315.0","null","null","","","","","","","","","","","","","","fixation","","","2","25","","","","","","","","","",""
"","","","","","","","","","","","canvas-keyboard-response","316","701918","0.0-316.0","null","null","","","","","","","","","","","","","","stimulus","","","2","25","","","","","","","","","",""
"","","","","","","","","","","","canvas-button-response","317","702384","0.0-317.0","464","phone","","","","","","","","","","","","","","perceptual","","","2","25","","","","","179","bridge","6","0","0",""
"","","","","","","","","","","","canvas-button-response","318","703185","0.0-318.0","800","1","","","","","","","","","","","","","","confidence","","","2","25","","","","","","","","","","11"
"","","","","","","","","","","","preload","319","703186","0.0-319.0","","","","","true","","","","","","","","","","","preload","","","2","26","false","[]","[]","[]","","","","","",""
"","","","","","","","","","","","canvas-keyboard-response","320","703501","0.0-320.0","null","null","","","","","","","","","","","","","","fixation","","","2","26","","","","","","","","","",""
"","","","","","","","","","","","canvas-keyboard-response","321","703810","0.0-321.0","null","null","","","","","","","","","","","","","","stimulus","","","2","26","","","","","","","","","",""
"","","","","","","","","","","","canvas-button-response","322","704711","0.0-322.0","899","elephant","","","","","","","","","","","","","","perceptual","","","2","26","","","","","349","elephant","10","0","1",""
"","","","","","","","","","","","canvas-button-response","323","705779","0.0-323.0","1067","5","","","","","","","","","","","","","","confidence","","","2","26","","","","","","","","","","12"
"","","","","","","","","","","","preload","324","705780","0.0-324.0","","","","","true","","","","","","","","","","","preload","","","2","27","false","[]","[]","[]","","","","","",""
"","","","","","","","","","","","canvas-keyboard-response","325","706093","0.0-325.0","null","null","","","","","","","","","","","","","","fixation","","","2","27","","","","","","","","","",""
"","","","","","","","","","","","canvas-keyboard-response","326","706406","0.0-326.0","null","null","","","","","","","","","","","","","","stimulus","","","2","27","","","","","","","","","",""
"","","","","","","","","","","","canvas-button-response","327","707188","0.0-327.0","781","cat","","","","","","","","","","","","","","perceptual","","","2","27","","","","","289","cat","6","0","1",""
"","","","","","","","","","","","canvas-button-response","328","708165","0.0-328.0","976","8","","","","","","","","","","","","","","confidence","","","2","27","","","","","","","","","","13"
"","","","","","","","","","","","preload","329","708166","0.0-329.0","","","","","true","","","","","","","","","","","preload","","","2","28","false","[]","[]","[]","","","","","",""
"","","","","","","","","","","","canvas-keyboard-response","330","708471","0.0-330.0","null","null","","","","","","","","","","","","","","fixation","","","2","28","","","","","","","","","",""
"","","","","","","","","","","","canvas-keyboard-response","331","708775","0.0-331.0","null","null","","","","","","","","","","","","","","stimulus","","","2","28","","","","","","","","","",""
"","","","","","","","","","","","canvas-button-response","332","713816","0.0-332.0","5040","flower","","","","","","","","","","","","","","perceptual","","","2","28","","","","","214","flower","6","0","1",""
"","","","","","","","","","","","canvas-button-response","333","714812","0.0-333.0","995","1","","","","","","","","","","","","","","confidence","","","2","28","","","","","","","","","","14"
"","","","","","","","","","","","preload","334","714813","0.0-334.0","","","","","true","","","","","","","","","","","preload","","","2","29","false","[]","[]","[]","","","","","",""
"","","","","","","","","","","","canvas-keyboard-response","335","715125","0.0-335.0","null","null","","","","","","","","","","","","","","fixation","","","2","29","","","","","","","","","",""
"","","","","","","","","","","","canvas-keyboard-response","336","715437","0.0-336.0","null","null","","","","","","","","","","","","","","stimulus","","","2","29","","","","","","","","","",""
"","","","","","","","","","","","canvas-button-response","337","716545","0.0-337.0","1107","cat","","","","","","","","","","","","","","perceptual","","","2","29","","","","","302","cat","10","0","1",""
"","","","","","","","","","","","canvas-button-response","338","717303","0.0-338.0","756","5","","","","","","","","","","","","","","confidence","","","2","29","","","","","","","","","","15"
"","","","","","","","","","","","preload","339","717304","0.0-339.0","","","","","true","","","","","","","","","","","preload","","","2","30","false","[]","[]","[]","","","","","",""
"","","","","","","","","","","","canvas-keyboard-response","340","717617","0.0-340.0","null","null","","","","","","","","","","","","","","fixation","","","2","30","","","","","","","","","",""
"","","","","","","","","","","","canvas-keyboard-response","341","717928","0.0-341.0","null","null","","","","","","","","","","","","","","stimulus","","","2","30","","","","","","","","","",""
"","","","","","","","","","","","canvas-button-response","342","721715","0.0-342.0","3785","bridge","","","","","","","","","","","","","","perceptual","","","2","30","","","","","133","bed","6","0","0",""
"","","","","","","","","","","","canvas-button-response","343","722749","0.0-343.0","1033","1","","","","","","","","","","","","","","confidence","","","2","30","","","","","","","","","","15"
"","","","","","","","","","","","preload","344","722750","0.0-344.0","","","","","true","","","","","","","","","","","preload","","","2","31","false","[]","[]","[]","","","","","",""
"","","","","","","","","","","","canvas-keyboard-response","345","723054","0.0-345.0","null","null","","","","","","","","","","","","","","fixation","","","2","31","","","","","","","","","",""
"","","","","","","","","","","","canvas-keyboard-response","346","723370","0.0-346.0","null","null","","","","","","","","","","","","","","stimulus","","","2","31","","","","","","","","","",""
"","","","","","","","","","","","canvas-button-response","347","724405","0.0-347.0","1034","cat","","","","","","","","","","","","","","perceptual","","","2","31","","","","","84","phone","6","0","0",""
"","","","","","","","","","","","canvas-button-response","348","725710","0.0-348.0","1303","7","","","","","","","","","","","","","","confidence","","","2","31","","","","","","","","","","15"
"","","","","","","","","","","","preload","349","725711","0.0-349.0","","","","","true","","","","","","","","","","","preload","","","2","32","false","[]","[]","[]","","","","","",""
"","","","","","","","","","","","canvas-keyboard-response","350","726028","0.0-350.0","null","null","","","","","","","","","","","","","","fixation","","","2","32","","","","","","","","","",""
"","","","","","","","","","","","canvas-keyboard-response","351","726331","0.0-351.0","null","null","","","","","","","","","","","","","","stimulus","","","2","32","","","","","","","","","",""
"","","","","","","","","","","","canvas-button-response","352","727428","0.0-352.0","1095","car","","","","","","","","","","","","","","perceptual","","","2","32","","","","","177","bridge","6","0","0",""
"","","","","","","","","","","","canvas-button-response","353","728389","0.0-353.0","960","1","","","","","","","","","","","","","","confidence","","","2","32","","","","","","","","","","15"
"","","","","","","","","","","","preload","354","728390","0.0-354.0","","","","","true","","","","","","","","","","","preload","","","2","33","false","[]","[]","[]","","","","","",""
"","","","","","","","","","","","canvas-keyboard-response","355","728703","0.0-355.0","null","null","","","","","","","","","","","","","","fixation","","","2","33","","","","","","","","","",""
"","","","","","","","","","","","canvas-keyboard-response","356","729010","0.0-356.0","null","null","","","","","","","","","","","","","","stimulus","","","2","33","","","","","","","","","",""
"","","","","","","","","","","","canvas-button-response","357","730388","0.0-357.0","1377","cat","","","","","","","","","","","","","","perceptual","","","2","33","","","","","10","house","6","0","0",""
"","","","","","","","","","","","canvas-button-response","358","731202","0.0-358.0","812","5","","","","","","","","","","","","","","confidence","","","2","33","","","","","","","","","","15"
"","","","","","","","","","","","preload","359","731202","0.0-359.0","","","","","true","","","","","","","","","","","preload","","","2","34","false","[]","[]","[]","","","","","",""
"","","","","","","","","","","","canvas-keyboard-response","360","731513","0.0-360.0","null","null","","","","","","","","","","","","","","fixation","","","2","34","","","","","","","","","",""
"","","","","","","","","","","","canvas-keyboard-response","361","731825","0.0-361.0","null","null","","","","","","","","","","","","","","stimulus","","","2","34","","","","","","","","","",""
"","","","","","","","","","","","canvas-button-response","362","732864","0.0-362.0","1038","cat","","","","","","","","","","","","","","perceptual","","","2","34","","","","","109","phone","10","0","0",""
"","","","","","","","","","","","canvas-button-response","363","733567","0.0-363.0","701","0","","","","","","","","","","","","","","confidence","","","2","34","","","","","","","","","","15"
"","","","","","","","","","","","preload","364","733567","0.0-364.0","","","","","true","","","","","","","","","","","preload","","","2","35","false","[]","[]","[]","","","","","",""
"","","","","","","","","","","","canvas-keyboard-response","365","733873","0.0-365.0","null","null","","","","","","","","","","","","","","fixation","","","2","35","","","","","","","","","",""
"","","","","","","","","","","","canvas-keyboard-response","366","734181","0.0-366.0","null","null","","","","","","","","","","","","","","stimulus","","","2","35","","","","","","","","","",""
"","","","","","","","","","","","canvas-button-response","367","737489","0.0-367.0","3307","house","","","","","","","","","","","","","","perceptual","","","2","35","","","","","153","bed","10","0","0",""
"","","","","","","","","","","","canvas-button-response","368","738708","0.0-368.0","1218","1","","","","","","","","","","","","","","confidence","","","2","35","","","","","","","","","","15"
"","","","","","","","","","","","preload","369","738710","0.0-369.0","","","","","true","","","","","","","","","","","preload","","","2","36","false","[]","[]","[]","","","","","",""
"","","","","","","","","","","","canvas-keyboard-response","370","739018","0.0-370.0","null","null","","","","","","","","","","","","","","fixation","","","2","36","","","","","","","","","",""
"","","","","","","","","","","","canvas-keyboard-response","371","739323","0.0-371.0","null","null","","","","","","","","","","","","","","stimulus","","","2","36","","","","","","","","","",""
"","","","","","","","","","","","canvas-button-response","372","740335","0.0-372.0","1009","house","","","","","","","","","","","","","","perceptual","","","2","36","","","","","363","knife","6","0","0",""
"","","","","","","","","","","","canvas-button-response","373","741555","0.0-373.0","1219","1","","","","","","","","","","","","","","confidence","","","2","36","","","","","","","","","","15"
"","","","","","","","","","","","preload","374","741556","0.0-374.0","","","","","true","","","","","","","","","","","preload","","","2","37","false","[]","[]","[]","","","","","",""
"","","","","","","","","","","","canvas-keyboard-response","375","741858","0.0-375.0","null","null","","","","","","","","","","","","","","fixation","","","2","37","","","","","","","","","",""
"","","","","","","","","","","","canvas-keyboard-response","376","742168","0.0-376.0","null","null","","","","","","","","","","","","","","stimulus","","","2","37","","","","","","","","","",""
"","","","","","","","","","","","canvas-button-response","377","744956","0.0-377.0","2787","phone","","","","","","","","","","","","","","perceptual","","","2","37","","","","","103","phone","10","0","1",""
"","","","","","","","","","","","canvas-button-response","378","745898","0.0-378.0","941","8","","","","","","","","","","","","","","confidence","","","2","37","","","","","","","","","","16"
"","","","","","","","","","","","preload","379","745899","0.0-379.0","","","","","true","","","","","","","","","","","preload","","","2","38","false","[]","[]","[]","","","","","",""
"","","","","","","","","","","","canvas-keyboard-response","380","746211","0.0-380.0","null","null","","","","","","","","","","","","","","fixation","","","2","38","","","","","","","","","",""
"","","","","","","","","","","","canvas-keyboard-response","381","746524","0.0-381.0","null","null","","","","","","","","","","","","","","stimulus","","","2","38","","","","","","","","","",""
"","","","","","","","","","","","canvas-button-response","382","747235","0.0-382.0","710","cat","","","","","","","","","","","","","","perceptual","","","2","38","","","","","312","cat","10","0","1",""
"","","","","","","","","","","","canvas-button-response","383","747898","0.0-383.0","661","10","","","","","","","","","","","","","","confidence","","","2","38","","","","","","","","","","17"
"","","","","","","","","","","","preload","384","747899","0.0-384.0","","","","","true","","","","","","","","","","","preload","","","2","39","false","[]","[]","[]","","","","","",""
"","","","","","","","","","","","canvas-keyboard-response","385","748203","0.0-385.0","null","null","","","","","","","","","","","","","","fixation","","","2","39","","","","","","","","","",""
"","","","","","","","","","","","canvas-keyboard-response","386","748517","0.0-386.0","null","null","","","","","","","","","","","","","","stimulus","","","2","39","","","","","","","","","",""
"","","","","","","","","","","","canvas-button-response","387","749325","0.0-387.0","807","phone","","","","","","","","","","","","","","perceptual","","","2","39","","","","","88","phone","6","0","1",""
"","","","","","","","","","","","canvas-button-response","388","749834","0.0-388.0","507","10","","","","","","","","","","","","","","confidence","","","2","39","","","","","","","","","","18"
"","","","","","","","","","","","preload","389","749834","0.0-389.0","","","","","true","","","","","","","","","","","preload","","","2","40","false","[]","[]","[]","","","","","",""
"","","","","","","","","","","","canvas-keyboard-response","390","750146","0.0-390.0","null","null","","","","","","","","","","","","","","fixation","","","2","40","","","","","","","","","",""
"","","","","","","","","","","","canvas-keyboard-response","391","750449","0.0-391.0","null","null","","","","","","","","","","","","","","stimulus","","","2","40","","","","","","","","","",""
"","","","","","","","","","","","canvas-button-response","392","751411","0.0-392.0","960","house","","","","","","","","","","","","","","perceptual","","","2","40","","","","","7","house","6","0","1",""
"","","","","","","","","","","","canvas-button-response","393","752050","0.0-393.0","638","10","","","","","","","","","","","","","","confidence","","","2","40","","","","","","","","","","19"
"","","","","","","","","","","","preload","394","752050","0.0-394.0","","","","","true","","","","","","","","","","","preload","","","2","41","false","[]","[]","[]","","","","","",""
"","","","","","","","","","","","canvas-keyboard-response","395","752358","0.0-395.0","null","null","","","","","","","","","","","","","","fixation","","","2","41","","","","","","","","","",""
"","","","","","","","","","","","canvas-keyboard-response","396","752669","0.0-396.0","null","null","","","","","","","","","","","","","","stimulus","","","2","41","","","","","","","","","",""
"","","","","","","","","","","","canvas-button-response","397","754349","0.0-397.0","1679","bridge","","","","","","","","","","","","","","perceptual","","","2","41","","","","","25","house","10","0","0",""
"","","","","","","","","","","","canvas-button-response","398","755511","0.0-398.0","1161","1","","","","","","","","","","","","","","confidence","","","2","41","","","","","","","","","","19"
"","","","","","","","","","","","preload","399","755511","0.0-399.0","","","","","true","","","","","","","","","","","preload","","","2","42","false","[]","[]","[]","","","","","",""
"","","","","","","","","","","","canvas-keyboard-response","400","755822","0.0-400.0","null","null","","","","","","","","","","","","","","fixation","","","2","42","","","","","","","","","",""
"","","","","","","","","","","","canvas-keyboard-response","401","756132","0.0-401.0","null","null","","","","","","","","","","","","","","stimulus","","","2","42","","","","","","","","","",""
"","","","","","","","","","","","canvas-button-response","402","756800","0.0-402.0","667","cat","","","","","","","","","","","","","","perceptual","","","2","42","","","","","298","cat","6","0","1",""
"","","","","","","","","","","","canvas-button-response","403","757336","0.0-403.0","534","10","","","","","","","","","","","","","","confidence","","","2","42","","","","","","","","","","20"
"","","","","","","","","","","","preload","404","757337","0.0-404.0","","","","","true","","","","","","","","","","","preload","","","2","43","false","[]","[]","[]","","","","","",""
"","","","","","","","","","","","canvas-keyboard-response","405","757653","0.0-405.0","null","null","","","","","","","","","","","","","","fixation","","","2","43","","","","","","","","","",""
"","","","","","","","","","","","canvas-keyboard-response","406","757960","0.0-406.0","null","null","","","","","","","","","","","","","","stimulus","","","2","43","","","","","","","","","",""
"","","","","","","","","","","","canvas-button-response","407","759482","0.0-407.0","1521","train","","","","","","","","","","","","","","perceptual","","","2","43","","","","","368","knife","6","0","0",""
"","","","","","","","","","","","canvas-button-response","408","760062","0.0-408.0","578","8","","","","","","","","","","","","","","confidence","","","2","43","","","","","","","","","","20"
"","","","","","","","","","","","preload","409","760063","0.0-409.0","","","","","true","","","","","","","","","","","preload","","","2","44","false","[]","[]","[]","","","","","",""
"","","","","","","","","","","","canvas-keyboard-response","410","760370","0.0-410.0","null","null","","","","","","","","","","","","","","fixation","","","2","44","","","","","","","","","",""
"","","","","","","","","","","","canvas-keyboard-response","411","760684","0.0-411.0","null","null","","","","","","","","","","","","","","stimulus","","","2","44","","","","","","","","","",""
"","","","","","","","","","","","canvas-button-response","412","761646","0.0-412.0","960","house","","","","","","","","","","","","","","perceptual","","","2","44","","","","","19","house","6","0","1",""
"","","","","","","","","","","","canvas-button-response","413","762261","0.0-413.0","614","10","","","","","","","","","","","","","","confidence","","","2","44","","","","","","","","","","21"
"","","","","","","","","","","","preload","414","762262","0.0-414.0","","","","","true","","","","","","","","","","","preload","","","2","45","false","[]","[]","[]","","","","","",""
"","","","","","","","","","","","canvas-keyboard-response","415","762565","0.0-415.0","null","null","","","","","","","","","","","","","","fixation","","","2","45","","","","","","","","","",""
"","","","","","","","","","","","canvas-keyboard-response","416","762875","0.0-416.0","null","null","","","","","","","","","","","","","","stimulus","","","2","45","","","","","","","","","",""
"","","","","","","","","","","","canvas-button-response","417","765469","0.0-417.0","2592","house","","","","","","","","","","","","","","perceptual","","","2","45","","","","","21","house","10","0","1",""
"","","","","","","","","","","","canvas-button-response","418","766969","0.0-418.0","1498","1","","","","","","","","","","","","","","confidence","","","2","45","","","","","","","","","","22"
"","","","","","","","","","","","preload","419","766970","0.0-419.0","","","","","true","","","","","","","","","","","preload","","","2","46","false","[]","[]","[]","","","","","",""
"","","","","","","","","","","","canvas-keyboard-response","420","767273","0.0-420.0","null","null","","","","","","","","","","","","","","fixation","","","2","46","","","","","","","","","",""
"","","","","","","","","","","","canvas-keyboard-response","421","767584","0.0-421.0","null","null","","","","","","","","","","","","","","stimulus","","","2","46","","","","","","","","","",""
"","","","","","","","","","","","canvas-button-response","422","768816","0.0-422.0","1229","cat","","","","","","","","","","","","","","perceptual","","","2","46","","","","","263","train","10","0","0",""
"","","","","","","","","","","","canvas-button-response","423","770613","0.0-423.0","1796","1","","","","","","","","","","","","","","confidence","","","2","46","","","","","","","","","","22"
"","","","","","","","","","","","preload","424","770613","0.0-424.0","","","","","true","","","","","","","","","","","preload","","","2","47","false","[]","[]","[]","","","","","",""
"","","","","","","","","","","","canvas-keyboard-response","425","770929","0.0-425.0","null","null","","","","","","","","","","","","","","fixation","","","2","47","","","","","","","","","",""
"","","","","","","","","","","","canvas-keyboard-response","426","771238","0.0-426.0","null","null","","","","","","","","","","","","","","stimulus","","","2","47","","","","","","","","","",""
"","","","","","","","","","","","canvas-button-response","427","772253","0.0-427.0","1013","flower","","","","","","","","","","","","","","perceptual","","","2","47","","","","","215","flower","6","0","1",""
"","","","","","","","","","","","canvas-button-response","428","772926","0.0-428.0","672","10","","","","","","","","","","","","","","confidence","","","2","47","","","","","","","","","","23"
"","","","","","","","","","","","preload","429","772927","0.0-429.0","","","","","true","","","","","","","","","","","preload","","","2","48","false","[]","[]","[]","","","","","",""
"","","","","","","","","","","","canvas-keyboard-response","430","773231","0.0-430.0","null","null","","","","","","","","","","","","","","fixation","","","2","48","","","","","","","","","",""
"","","","","","","","","","","","canvas-keyboard-response","431","773543","0.0-431.0","null","null","","","","","","","","","","","","","","stimulus","","","2","48","","","","","","","","","",""
"","","","","","","","","","","","canvas-button-response","432","775591","0.0-432.0","2046","house","","","","","","","","","","","","","","perceptual","","","2","48","","","","","38","house","10","0","1",""
"","","","","","","","","","","","canvas-button-response","433","776930","0.0-433.0","1337","1","","","","","","","","","","","","","","confidence","","","2","48","","","","","","","","","","24"
"","","","","","","","","","","","preload","434","776931","0.0-434.0","","","","","true","","","","","","","","","","","preload","","","2","49","false","[]","[]","[]","","","","","",""
"","","","","","","","","","","","canvas-keyboard-response","435","777246","0.0-435.0","null","null","","","","","","","","","","","","","","fixation","","","2","49","","","","","","","","","",""
"","","","","","","","","","","","canvas-keyboard-response","436","777548","0.0-436.0","null","null","","","","","","","","","","","","","","stimulus","","","2","49","","","","","","","","","",""
"","","","","","","","","","","","canvas-button-response","437","778739","0.0-437.0","1191","car","","","","","","","","","","","","","","perceptual","","","2","49","","","","","41","car","6","0","1",""
"","","","","","","","","","","","canvas-button-response","438","779356","0.0-438.0","616","10","","","","","","","","","","","","","","confidence","","","2","49","","","","","","","","","","25"
"","","","","","","","","","","","html-button-response","439","783083","0.0-439.0","3726","0","","","","","","","","","","","","","","<p style=""font-size:20px;color:#000000"">You got 25 out of 50 trials correct in this block.<br><br>You have completed 6% of the experiment.<br><br>Take a short break.<br><br>When you are ready, click Continue to proceed.","","","2","49","","","","","","","","","",""
"","","","","","","","","","","","html-keyboard-response","440","784094","0.0-440.0","null","null","","","","","","","","","","","","","","<p style=""font-size:32px;color:#000000""><br><br> RUN: &nbsp 1/4 <br><br> BLOCK: 2/4 ","","","2","49","","","","","","","","","",""
"","","","","","","","","","","","preload","441","784095","0.0-441.0","","","","","true","","","","","","","","","","","preload","","","2","50","false","[]","[]","[]","","","","","",""
"","","","","","","","","","","","canvas-keyboard-response","442","784401","0.0-442.0","null","null","","","","","","","","","","","","","","fixation","","","2","50","","","","","","","","","",""
"","","","","","","","","","","","canvas-keyboard-response","443","784715","0.0-443.0","null","null","","","","","","","","","","","","","","stimulus","","","2","50","","","","","","","","","",""
"","","","","","","","","","","","canvas-button-response","444","790007","0.0-444.0","5289","phone","","","","","","","","","","","","","","perceptual","","","2","50","","","","","373","knife","6","0","0",""
"","","","","","","","","","","","canvas-button-response","445","791946","0.0-445.0","1938","4","","","","","","","","","","","","","","confidence","","","2","50","","","","","","","","","","0"
"","","","","","","","","","","","preload","446","791947","0.0-446.0","","","","","true","","","","","","","","","","","preload","","","2","51","false","[]","[]","[]","","","","","",""
"","","","","","","","","","","","canvas-keyboard-response","447","792255","0.0-447.0","null","null","","","","","","","","","","","","","","fixation","","","2","51","","","","","","","","","",""
"","","","","","","","","","","","canvas-keyboard-response","448","792570","0.0-448.0","null","null","","","","","","","","","","","","","","stimulus","","","2","51","","","","","","","","","",""
"","","","","","","","","","","","canvas-button-response","449","794429","0.0-449.0","1857","phone","","","","","","","","","","","","","","perceptual","","","2","51","","","","","365","knife","6","0","0",""
"","","","","","","","","","","","canvas-button-response","450","797494","0.0-450.0","3063","6","","","","","","","","","","","","","","confidence","","","2","51","","","","","","","","","","0"
"","","","","","","","","","","","preload","451","797495","0.0-451.0","","","","","true","","","","","","","","","","","preload","","","2","52","false","[]","[]","[]","","","","","",""
"","","","","","","","","","","","canvas-keyboard-response","452","797798","0.0-452.0","null","null","","","","","","","","","","","","","","fixation","","","2","52","","","","","","","","","",""
"","","","","","","","","","","","canvas-keyboard-response","453","798112","0.0-453.0","null","null","","","","","","","","","","","","","","stimulus","","","2","52","","","","","","","","","",""
"","","","","","","","","","","","canvas-button-response","454","803738","0.0-454.0","5624","elephant","","","","","","","","","","","","","","perceptual","","","2","52","","","","","339","elephant","6","0","1",""
"","","","","","","","","","","","canvas-button-response","455","804629","0.0-455.0","890","10","","","","","","","","","","","","","","confidence","","","2","52","","","","","","","","","","1"
"","","","","","","","","","","","preload","456","804630","0.0-456.0","","","","","true","","","","","","","","","","","preload","","","2","53","false","[]","[]","[]","","","","","",""
"","","","","","","","","","","","canvas-keyboard-response","457","804932","0.0-457.0","null","null","","","","","","","","","","","","","","fixation","","","2","53","","","","","","","","","",""
"","","","","","","","","","","","canvas-keyboard-response","458","805243","0.0-458.0","null","null","","","","","","","","","","","","","","stimulus","","","2","53","","","","","","","","","",""
"","","","","","","","","","","","canvas-button-response","459","806780","0.0-459.0","1534","phone","","","","","","","","","","","","","","perceptual","","","2","53","","","","","71","car","10","0","0",""
"","","","","","","","","","","","canvas-button-response","460","807806","0.0-460.0","1025","0","","","","","","","","","","","","","","confidence","","","2","53","","","","","","","","","","1"
"","","","","","","","","","","","preload","461","807807","0.0-461.0","","","","","true","","","","","","","","","","","preload","","","2","54","false","[]","[]","[]","","","","","",""
"","","","","","","","","","","","canvas-keyboard-response","462","808118","0.0-462.0","null","null","","","","","","","","","","","","","","fixation","","","2","54","","","","","","","","","",""
"","","","","","","","","","","","canvas-keyboard-response","463","808421","0.0-463.0","null","null","","","","","","","","","","","","","","stimulus","","","2","54","","","","","","","","","",""
"","","","","","","","","","","","canvas-button-response","464","809921","0.0-464.0","1499","bridge","","","","","","","","","","","","","","perceptual","","","2","54","","","","","184","bridge","10","0","1",""
"","","","","","","","","","","","canvas-button-response","465","810775","0.0-465.0","852","1","","","","","","","","","","","","","","confidence","","","2","54","","","","","","","","","","2"
"","","","","","","","","","","","preload","466","810776","0.0-466.0","","","","","true","","","","","","","","","","","preload","","","2","55","false","[]","[]","[]","","","","","",""
"","","","","","","","","","","","canvas-keyboard-response","467","811090","0.0-467.0","null","null","","","","","","","","","","","","","","fixation","","","2","55","","","","","","","","","",""
"","","","","","","","","","","","canvas-keyboard-response","468","811403","0.0-468.0","null","null","","","","","","","","","","","","","","stimulus","","","2","55","","","","","","","","","",""
"","","","","","","","","","","","canvas-button-response","469","812641","0.0-469.0","1236","bridge","","","","","","","","","","","","","","perceptual","","","2","55","","","","","211","flower","6","0","0",""
"","","","","","","","","","","","canvas-button-response","470","813612","0.0-470.0","969","1","","","","","","","","","","","","","","confidence","","","2","55","","","","","","","","","","2"
"","","","","","","","","","","","preload","471","813613","0.0-471.0","","","","","true","","","","","","","","","","","preload","","","2","56","false","[]","[]","[]","","","","","",""
"","","","","","","","","","","","canvas-keyboard-response","472","813926","0.0-472.0","null","null","","","","","","","","","","","","","","fixation","","","2","56","","","","","","","","","",""
"","","","","","","","","","","","canvas-keyboard-response","473","814240","0.0-473.0","null","null","","","","","","","","","","","","","","stimulus","","","2","56","","","","","","","","","",""
"","","","","","","","","","","","canvas-button-response","474","828473","0.0-474.0","14232","train","","","","","","","","","","","","","","perceptual","","","2","56","","","","","258","train","6","0","1",""
"","","","","","","","","","","","canvas-button-response","475","829713","0.0-475.0","1239","1","","","","","","","","","","","","","","confidence","","","2","56","","","","","","","","","","3"
"","","","","","","","","","","","preload","476","829714","0.0-476.0","","","","","true","","","","","","","","","","","preload","","","2","57","false","[]","[]","[]","","","","","",""
"","","","","","","","","","","","canvas-keyboard-response","477","830018","0.0-477.0","null","null","","","","","","","","","","","","","","fixation","","","2","57","","","","","","","","","",""
"","","","","","","","","","","","canvas-keyboard-response","478","830327","0.0-478.0","null","null","","","","","","","","","","","","","","stimulus","","","2","57","","","","","","","","","",""
"","","","","","","","","","","","canvas-button-response","479","833677","0.0-479.0","3349","bed","","","","","","","","","","","","","","perceptual","","","2","57","","","","","278","train","10","0","0",""
"","","","","","","","","","","","canvas-button-response","480","834491","0.0-480.0","813","1","","","","","","","","","","","","","","confidence","","","2","57","","","","","","","","","","3"
"","","","","","","","","","","","preload","481","834492","0.0-481.0","","","","","true","","","","","","","","","","","preload","","","2","58","false","[]","[]","[]","","","","","",""
"","","","","","","","","","","","canvas-keyboard-response","482","834799","0.0-482.0","null","null","","","","","","","","","","","","","","fixation","","","2","58","","","","","","","","","",""
"","","","","","","","","","","","canvas-keyboard-response","483","835115","0.0-483.0","null","null","","","","","","","","","","","","","","stimulus","","","2","58","","","","","","","","","",""
"","","","","","","","","","","","canvas-button-response","484","836263","0.0-484.0","1146","cat","","","","","","","","","","","","","","perceptual","","","2","58","","","","","318","cat","10","0","1",""
"","","","","","","","","","","","canvas-button-response","485","837571","0.0-485.0","1306","1","","","","","","","","","","","","","","confidence","","","2","58","","","","","","","","","","4"
"","","","","","","","","","","","preload","486","837571","0.0-486.0","","","","","true","","","","","","","","","","","preload","","","2","59","false","[]","[]","[]","","","","","",""
"","","","","","","","","","","","canvas-keyboard-response","487","837875","0.0-487.0","null","null","","","","","","","","","","","","","","fixation","","","2","59","","","","","","","","","",""
"","","","","","","","","","","","canvas-keyboard-response","488","838183","0.0-488.0","null","null","","","","","","","","","","","","","","stimulus","","","2","59","","","","","","","","","",""
"","","","","","","","","","","","canvas-button-response","489","840491","0.0-489.0","2307","bridge","","","","","","","","","","","","","","perceptual","","","2","59","","","","","168","bridge","6","0","1",""
"","","","","","","","","","","","canvas-button-response","490","841358","0.0-490.0","865","8","","","","","","","","","","","","","","confidence","","","2","59","","","","","","","","","","5"
"","","","","","","","","","","","preload","491","841358","0.0-491.0","","","","","true","","","","","","","","","","","preload","","","2","60","false","[]","[]","[]","","","","","",""
