"width","height","webaudio","browser","browser_version","mobile","os","fullscreen","vsync_rate","webcam","microphone","trial_type","trial_index","time_elapsed","internal_node_id","rt","response","accuracy","view_history","success","item_width_mm","item_height_mm","item_width_px","px2mm","view_dist_mm","item_width_deg","px2deg","scale_factor","win_width_deg","win_height_deg","stimulus","datetime","subjectID","curr_triallist","trial_no","timeout","failed_images","failed_audio","failed_video","image_index","category","blur","reps","correct","running_score"
"1605","870","true","chrome","140.0.0","false","Windows 10","true","83.18","true","true","browser-check","0","743","0.0-0.0","","","","","","","","","","","","","","","","","","","","","","","","","","","","","",""
"","","","","","","","","","","","survey","1","44929","0.0-1.0","44139","{""P0_Q0"":""904089708"",""P0_Q1"":""18"",""P1_Q0"":""Male"",""P1_Q1"":""Not Hispanic or Latino"",""P1_Q2"":""White"",""P1_Q3"":""Normal"",""P1_Q4"":""Right-Handed""}","[]","","","","","","","","","","","","","","","","","","","","","","","","","","",""
"","","","","","","","","","","","instructions","2","70145","0.0-2.0","25215","","","[{""page_index"":0,""viewing_time"":3408},{""page_index"":1,""viewing_time"":9011},{""page_index"":2,""viewing_time"":9182},{""page_index"":3,""viewing_time"":3613}]","","","","","","","","","","","","","","","","","","","","","","","","","",""
"","","","","","","","","","","","fullscreen","3","72972","0.0-3.0","1812","","","","true","","","","","","","","","","","","","","","","","","","","","","","","",""
"","","","","","","","","","","","virtual-chinrest","4","137028","0.0-4.0","64053","","","","","85.6","53.98","190.96048764628515","2.2292561275229374","769.71","6.365349588209505","30","2.408875289698961","54.86666666666667","34.3","","","","","","","","","","","","","","",""
"","","","","","","","","","","","instructions","5","244232","0.0-5.0","107203","","","[{""page_index"":0,""viewing_time"":8266},{""page_index"":1,""viewing_time"":14262},{""page_index"":2,""viewing_time"":10993},{""page_index"":3,""viewing_time"":3775},{""page_index"":4,""viewing_time"":7450},{""page_index"":5,""viewing_time"":60309},{""page_index"":6,""viewing_time"":2149}]","","","","","","","","","","","","","","","","","","","","","","","","","",""
"","","","","","","","","","","","html-button-response","6","261657","0.0-6.0","17422","0","","","","","","","","","","","","","","start_practice","Tue Oct 14 2025 15:11:16 GMT-0400 (Eastern Daylight Time)","27691","","","","","","","","","","","",""
"","","","","","","","","","","","preload","7","261658","0.0-7.0","","","","","true","","","","","","","","","","","preload","","","0","0","false","[]","[]","[]","","","","","",""
"","","","","","","","","","","","canvas-keyboard-response","8","261961","0.0-8.0","null","null","","","","","","","","","","","","","","fixation","","","0","0","","","","","","","","","",""
"","","","","","","","","","","","canvas-keyboard-response","9","262269","0.0-9.0","null","null","","","","","","","","","","","","","","stimulus","","","0","0","","","","","","","","","",""
"","","","","","","","","","","","canvas-button-response","10","264107","0.0-10.0","1835","house","","","","","","","","","","","","","","perceptual","","","0","0","","","","","2","house","1","","1",""
"","","","","","","","","","","","canvas-button-response","11","265371","0.0-11.0","1262","10","","","","","","","","","","","","","","confidence","","","0","0","","","","","","","","","","1"
"","","","","","","","","","","","html-keyboard-response","12","266384","0.0-12.0","null","null","","","","","","","","","","","","","","feedback","Tue Oct 14 2025 15:11:37 GMT-0400 (Eastern Daylight Time)","27691","0","0","","","","","","","","","",""
"","","","","","","","","","","","preload","13","266385","0.0-13.0","","","","","true","","","","","","","","","","","preload","","","0","1","false","[]","[]","[]","","","","","",""
"","","","","","","","","","","","canvas-keyboard-response","14","266699","0.0-14.0","null","null","","","","","","","","","","","","","","fixation","","","0","1","","","","","","","","","",""
"","","","","","","","","","","","canvas-keyboard-response","15","267011","0.0-15.0","null","null","","","","","","","","","","","","","","stimulus","","","0","1","","","","","","","","","",""
"","","","","","","","","","","","canvas-button-response","16","268203","0.0-16.0","1190","bridge","","","","","","","","","","","","","","perceptual","","","0","1","","","","","42","bridge","1","","1",""
"","","","","","","","","","","","canvas-button-response","17","269526","0.0-17.0","1321","10","","","","","","","","","","","","","","confidence","","","0","1","","","","","","","","","","2"
"","","","","","","","","","","","html-keyboard-response","18","270541","0.0-18.0","null","null","","","","","","","","","","","","","","feedback","Tue Oct 14 2025 15:11:41 GMT-0400 (Eastern Daylight Time)","27691","0","1","","","","","","","","","",""
"","","","","","","","","","","","preload","19","270542","0.0-19.0","","","","","true","","","","","","","","","","","preload","","","0","2","false","[]","[]","[]","","","","","",""
"","","","","","","","","","","","canvas-keyboard-response","20","270855","0.0-20.0","null","null","","","","","","","","","","","","","","fixation","","","0","2","","","","","","","","","",""
"","","","","","","","","","","","canvas-keyboard-response","21","271168","0.0-21.0","null","null","","","","","","","","","","","","","","stimulus","","","0","2","","","","","","","","","",""
"","","","","","","","","","","","canvas-button-response","22","272085","0.0-22.0","914","cat","","","","","","","","","","","","","","perceptual","","","0","2","","","","","72","cat","1","","1",""
"","","","","","","","","","","","canvas-button-response","23","273213","0.0-23.0","1126","10","","","","","","","","","","","","","","confidence","","","0","2","","","","","","","","","","3"
"","","","","","","","","","","","html-keyboard-response","24","274225","0.0-24.0","null","null","","","","","","","","","","","","","","feedback","Tue Oct 14 2025 15:11:44 GMT-0400 (Eastern Daylight Time)","27691","0","2","","","","","","","","","",""
"","","","","","","","","","","","preload","25","274225","0.0-25.0","","","","","true","","","","","","","","","","","preload","","","0","3","false","[]","[]","[]","","","","","",""
"","","","","","","","","","","","canvas-keyboard-response","26","274535","0.0-26.0","null","null","","","","","","","","","","","","","","fixation","","","0","3","","","","","","","","","",""
"","","","","","","","","","","","canvas-keyboard-response","27","274848","0.0-27.0","null","null","","","","","","","","","","","","","","stimulus","","","0","3","","","","","","","","","",""
"","","","","","","","","","","","canvas-button-response","28","276202","0.0-28.0","1352","bed","","","","","","","","","","","","","","perceptual","","","0","3","","","","","32","bed","1","","1",""
"","","","","","","","","","","","canvas-button-response","29","277163","0.0-29.0","959","10","","","","","","","","","","","","","","confidence","","","0","3","","","","","","","","","","4"
"","","","","","","","","","","","html-keyboard-response","30","278174","0.0-30.0","null","null","","","","","","","","","","","","","","feedback","Tue Oct 14 2025 15:11:48 GMT-0400 (Eastern Daylight Time)","27691","0","3","","","","","","","","","",""
"","","","","","","","","","","","preload","31","278176","0.0-31.0","","","","","true","","","","","","","","","","","preload","","","0","4","false","[]","[]","[]","","","","","",""
"","","","","","","","","","","","canvas-keyboard-response","32","278486","0.0-32.0","null","null","","","","","","","","","","","","","","fixation","","","0","4","","","","","","","","","",""
"","","","","","","","","","","","canvas-keyboard-response","33","278799","0.0-33.0","null","null","","","","","","","","","","","","","","stimulus","","","0","4","","","","","","","","","",""
"","","","","","","","","","","","canvas-button-response","34","279742","0.0-34.0","940","car","","","","","","","","","","","","","","perceptual","","","0","4","","","","","12","car","1","","1",""
"","","","","","","","","","","","canvas-button-response","35","280467","0.0-35.0","723","10","","","","","","","","","","","","","","confidence","","","0","4","","","","","","","","","","5"
"","","","","","","","","","","","html-keyboard-response","36","281481","0.0-36.0","null","null","","","","","","","","","","","","","","feedback","Tue Oct 14 2025 15:11:52 GMT-0400 (Eastern Daylight Time)","27691","0","4","","","","","","","","","",""
"","","","","","","","","","","","preload","37","281482","0.0-37.0","","","","","true","","","","","","","","","","","preload","","","0","5","false","[]","[]","[]","","","","","",""
"","","","","","","","","","","","canvas-keyboard-response","38","281796","0.0-38.0","null","null","","","","","","","","","","","","","","fixation","","","0","5","","","","","","","","","",""
"","","","","","","","","","","","canvas-keyboard-response","39","282109","0.0-39.0","null","null","","","","","","","","","","","","","","stimulus","","","0","5","","","","","","","","","",""
"","","","","","","","","","","","canvas-button-response","40","284666","0.0-40.0","2554","flower","","","","","","","","","","","","","","perceptual","","","0","5","","","","","52","flower","1","","1",""
"","","","","","","","","","","","canvas-button-response","41","285623","0.0-41.0","954","7","","","","","","","","","","","","","","confidence","","","0","5","","","","","","","","","","6"
"","","","","","","","","","","","html-keyboard-response","42","286635","0.0-42.0","null","null","","","","","","","","","","","","","","feedback","Tue Oct 14 2025 15:11:57 GMT-0400 (Eastern Daylight Time)","27691","0","5","","","","","","","","","",""
"","","","","","","","","","","","preload","43","286636","0.0-43.0","","","","","true","","","","","","","","","","","preload","","","0","6","false","[]","[]","[]","","","","","",""
"","","","","","","","","","","","canvas-keyboard-response","44","286946","0.0-44.0","null","null","","","","","","","","","","","","","","fixation","","","0","6","","","","","","","","","",""
"","","","","","","","","","","","canvas-keyboard-response","45","287261","0.0-45.0","null","null","","","","","","","","","","","","","","stimulus","","","0","6","","","","","","","","","",""
"","","","","","","","","","","","canvas-button-response","46","291925","0.0-46.0","4662","elephant","","","","","","","","","","","","","","perceptual","","","0","6","","","","","82","elephant","1","","1",""
"","","","","","","","","","","","canvas-button-response","47","293055","0.0-47.0","1128","5","","","","","","","","","","","","","","confidence","","","0","6","","","","","","","","","","7"
"","","","","","","","","","","","html-keyboard-response","48","294063","0.0-48.0","null","null","","","","","","","","","","","","","","feedback","Tue Oct 14 2025 15:12:04 GMT-0400 (Eastern Daylight Time)","27691","0","6","","","","","","","","","",""
"","","","","","","","","","","","preload","49","294064","0.0-49.0","","","","","true","","","","","","","","","","","preload","","","0","7","false","[]","[]","[]","","","","","",""
"","","","","","","","","","","","canvas-keyboard-response","50","294375","0.0-50.0","null","null","","","","","","","","","","","","","","fixation","","","0","7","","","","","","","","","",""
"","","","","","","","","","","","canvas-keyboard-response","51","294685","0.0-51.0","null","null","","","","","","","","","","","","","","stimulus","","","0","7","","","","","","","","","",""
"","","","","","","","","","","","canvas-button-response","52","296228","0.0-52.0","1540","phone","","","","","","","","","","","","","","perceptual","","","0","7","","","","","22","phone","1","","1",""
"","","","","","","","","","","","canvas-button-response","53","296850","0.0-53.0","620","10","","","","","","","","","","","","","","confidence","","","0","7","","","","","","","","","","8"
"","","","","","","","","","","","html-keyboard-response","54","297858","0.0-54.0","null","null","","","","","","","","","","","","","","feedback","Tue Oct 14 2025 15:12:08 GMT-0400 (Eastern Daylight Time)","27691","0","7","","","","","","","","","",""
"","","","","","","","","","","","preload","55","297859","0.0-55.0","","","","","true","","","","","","","","","","","preload","","","0","8","false","[]","[]","[]","","","","","",""
"","","","","","","","","","","","canvas-keyboard-response","56","298172","0.0-56.0","null","null","","","","","","","","","","","","","","fixation","","","0","8","","","","","","","","","",""
"","","","","","","","","","","","canvas-keyboard-response","57","298481","0.0-57.0","null","null","","","","","","","","","","","","","","stimulus","","","0","8","","","","","","","","","",""
"","","","","","","","","","","","canvas-button-response","58","300077","0.0-58.0","1593","train","","","","","","","","","","","","","","perceptual","","","0","8","","","","","62","train","1","","1",""
"","","","","","","","","","","","canvas-button-response","59","300786","0.0-59.0","707","10","","","","","","","","","","","","","","confidence","","","0","8","","","","","","","","","","9"
"","","","","","","","","","","","html-keyboard-response","60","301798","0.0-60.0","null","null","","","","","","","","","","","","","","feedback","Tue Oct 14 2025 15:12:12 GMT-0400 (Eastern Daylight Time)","27691","0","8","","","","","","","","","",""
"","","","","","","","","","","","preload","61","301799","0.0-61.0","","","","","true","","","","","","","","","","","preload","","","0","9","false","[]","[]","[]","","","","","",""
"","","","","","","","","","","","canvas-keyboard-response","62","302110","0.0-62.0","null","null","","","","","","","","","","","","","","fixation","","","0","9","","","","","","","","","",""
"","","","","","","","","","","","canvas-keyboard-response","63","302422","0.0-63.0","null","null","","","","","","","","","","","","","","stimulus","","","0","9","","","","","","","","","",""
"","","","","","","","","","","","canvas-button-response","64","304029","0.0-64.0","1604","knife","","","","","","","","","","","","","","perceptual","","","0","9","","","","","92","knife","1","","1",""
"","","","","","","","","","","","canvas-button-response","65","304863","0.0-65.0","832","10","","","","","","","","","","","","","","confidence","","","0","9","","","","","","","","","","10"
"","","","","","","","","","","","html-keyboard-response","66","305866","0.0-66.0","null","null","","","","","","","","","","","","","","feedback","Tue Oct 14 2025 15:12:16 GMT-0400 (Eastern Daylight Time)","27691","0","9","","","","","","","","","",""
"","","","","","","","","","","","html-button-response","67","313046","0.0-67.0","7178","0","","","","","","","","","","","","","","start_practice","Tue Oct 14 2025 15:12:17 GMT-0400 (Eastern Daylight Time)","27691","0","9","","","","","","","","","",""
"","","","","","","","","","","","preload","68","313047","0.0-68.0","","","","","true","","","","","","","","","","","preload","","","1","0","false","[]","[]","[]","","","","","",""
"","","","","","","","","","","","canvas-keyboard-response","69","313348","0.0-69.0","null","null","","","","","","","","","","","","","","fixation","","","1","0","","","","","","","","","",""
"","","","","","","","","","","","canvas-keyboard-response","70","313663","0.0-70.0","null","null","","","","","","","","","","","","","","stimulus","","","1","0","","","","","","","","","",""
"","","","","","","","","","","","canvas-button-response","71","318057","0.0-71.0","4392","phone","","","","","","","","","","","","","","perceptual","","","1","0","","","","","94","knife","6","","0",""
"","","","","","","","","","","","canvas-button-response","72","319305","0.0-72.0","1245","3","","","","","","","","","","","","","","confidence","","","1","0","","","","","","","","","","0"
"","","","","","","","","","","","html-keyboard-response","73","320310","0.0-73.0","null","null","","","","","","","","","","","","","","feedback","Tue Oct 14 2025 15:12:31 GMT-0400 (Eastern Daylight Time)","27691","1","0","","","","","","","","","",""
"","","","","","","","","","","","preload","74","320311","0.0-74.0","","","","","true","","","","","","","","","","","preload","","","1","1","false","[]","[]","[]","","","","","",""
"","","","","","","","","","","","canvas-keyboard-response","75","320626","0.0-75.0","null","null","","","","","","","","","","","","","","fixation","","","1","1","","","","","","","","","",""
"","","","","","","","","","","","canvas-keyboard-response","76","320937","0.0-76.0","null","null","","","","","","","","","","","","","","stimulus","","","1","1","","","","","","","","","",""
"","","","","","","","","","","","canvas-button-response","77","326114","0.0-77.0","5175","car","","","","","","","","","","","","","","perceptual","","","1","1","","","","","37","bed","10","","0",""
"","","","","","","","","","","","canvas-button-response","78","327172","0.0-78.0","1056","4","","","","","","","","","","","","","","confidence","","","1","1","","","","","","","","","","0"
"","","","","","","","","","","","html-keyboard-response","79","328189","0.0-79.0","null","null","","","","","","","","","","","","","","feedback","Tue Oct 14 2025 15:12:38 GMT-0400 (Eastern Daylight Time)","27691","1","1","","","","","","","","","",""
"","","","","","","","","","","","preload","80","328190","0.0-80.0","","","","","true","","","","","","","","","","","preload","","","1","2","false","[]","[]","[]","","","","","",""
"","","","","","","","","","","","canvas-keyboard-response","81","328500","0.0-81.0","null","null","","","","","","","","","","","","","","fixation","","","1","2","","","","","","","","","",""
"","","","","","","","","","","","canvas-keyboard-response","82","328814","0.0-82.0","null","null","","","","","","","","","","","","","","stimulus","","","1","2","","","","","","","","","",""
"","","","","","","","","","","","canvas-button-response","83","330145","0.0-83.0","1329","cat","","","","","","","","","","","","","","perceptual","","","1","2","","","","","77","cat","10","","1",""
"","","","","","","","","","","","canvas-button-response","84","331434","0.0-84.0","1287","7","","","","","","","","","","","","","","confidence","","","1","2","","","","","","","","","","1"
"","","","","","","","","","","","html-keyboard-response","85","332448","0.0-85.0","null","null","","","","","","","","","","","","","","feedback","Tue Oct 14 2025 15:12:43 GMT-0400 (Eastern Daylight Time)","27691","1","2","","","","","","","","","",""
"","","","","","","","","","","","preload","86","332449","0.0-86.0","","","","","true","","","","","","","","","","","preload","","","1","3","false","[]","[]","[]","","","","","",""
"","","","","","","","","","","","canvas-keyboard-response","87","332763","0.0-87.0","null","null","","","","","","","","","","","","","","fixation","","","1","3","","","","","","","","","",""
"","","","","","","","","","","","canvas-keyboard-response","88","333077","0.0-88.0","null","null","","","","","","","","","","","","","","stimulus","","","1","3","","","","","","","","","",""
"","","","","","","","","","","","canvas-button-response","89","335686","0.0-89.0","2606","flower","","","","","","","","","","","","","","perceptual","","","1","3","","","","","87","elephant","10","","0",""
"","","","","","","","","","","","canvas-button-response","90","336578","0.0-90.0","890","5","","","","","","","","","","","","","","confidence","","","1","3","","","","","","","","","","1"
"","","","","","","","","","","","html-keyboard-response","91","337580","0.0-91.0","null","null","","","","","","","","","","","","","","feedback","Tue Oct 14 2025 15:12:48 GMT-0400 (Eastern Daylight Time)","27691","1","3","","","","","","","","","",""
"","","","","","","","","","","","preload","92","337581","0.0-92.0","","","","","true","","","","","","","","","","","preload","","","1","4","false","[]","[]","[]","","","","","",""
"","","","","","","","","","","","canvas-keyboard-response","93","337893","0.0-93.0","null","null","","","","","","","","","","","","","","fixation","","","1","4","","","","","","","","","",""
"","","","","","","","","","","","canvas-keyboard-response","94","338205","0.0-94.0","null","null","","","","","","","","","","","","","","stimulus","","","1","4","","","","","","","","","",""
"","","","","","","","","","","","canvas-button-response","95","340104","0.0-95.0","1896","bed","","","","","","","","","","","","","","perceptual","","","1","4","","","","","34","bed","6","","1",""
"","","","","","","","","","","","canvas-button-response","96","341361","0.0-96.0","1254","5","","","","","","","","","","","","","","confidence","","","1","4","","","","","","","","","","2"
"","","","","","","","","","","","html-keyboard-response","97","342367","0.0-97.0","null","null","","","","","","","","","","","","","","feedback","Tue Oct 14 2025 15:12:53 GMT-0400 (Eastern Daylight Time)","27691","1","4","","","","","","","","","",""
"","","","","","","","","","","","preload","98","342368","0.0-98.0","","","","","true","","","","","","","","","","","preload","","","1","5","false","[]","[]","[]","","","","","",""
"","","","","","","","","","","","canvas-keyboard-response","99","342683","0.0-99.0","null","null","","","","","","","","","","","","","","fixation","","","1","5","","","","","","","","","",""
"","","","","","","","","","","","canvas-keyboard-response","100","342997","0.0-100.0","null","null","","","","","","","","","","","","","","stimulus","","","1","5","","","","","","","","","",""
"","","","","","","","","","","","canvas-button-response","101","344529","0.0-101.0","1530","phone","","","","","","","","","","","","","","perceptual","","","1","5","","","","","27","phone","10","","1",""
"","","","","","","","","","","","canvas-button-response","102","345420","0.0-102.0","889","4","","","","","","","","","","","","","","confidence","","","1","5","","","","","","","","","","3"
"","","","","","","","","","","","html-keyboard-response","103","346434","0.0-103.0","null","null","","","","","","","","","","","","","","feedback","Tue Oct 14 2025 15:12:57 GMT-0400 (Eastern Daylight Time)","27691","1","5","","","","","","","","","",""
"","","","","","","","","","","","preload","104","346435","0.0-104.0","","","","","true","","","","","","","","","","","preload","","","1","6","false","[]","[]","[]","","","","","",""
"","","","","","","","","","","","canvas-keyboard-response","105","346744","0.0-105.0","null","null","","","","","","","","","","","","","","fixation","","","1","6","","","","","","","","","",""
"","","","","","","","","","","","canvas-keyboard-response","106","347059","0.0-106.0","null","null","","","","","","","","","","","","","","stimulus","","","1","6","","","","","","","","","",""
"","","","","","","","","","","","canvas-button-response","107","353251","0.0-107.0","6190","elephant","","","","","","","","","","","","","","perceptual","","","1","6","","","","","47","bridge","10","","0",""
"","","","","","","","","","","","canvas-button-response","108","354831","0.0-108.0","1577","0","","","","","","","","","","","","","","confidence","","","1","6","","","","","","","","","","3"
"","","","","","","","","","","","html-keyboard-response","109","355844","0.0-109.0","null","null","","","","","","","","","","","","","","feedback","Tue Oct 14 2025 15:13:06 GMT-0400 (Eastern Daylight Time)","27691","1","6","","","","","","","","","",""
"","","","","","","","","","","","preload","110","355845","0.0-110.0","","","","","true","","","","","","","","","","","preload","","","1","7","false","[]","[]","[]","","","","","",""
"","","","","","","","","","","","canvas-keyboard-response","111","356160","0.0-111.0","null","null","","","","","","","","","","","","","","fixation","","","1","7","","","","","","","","","",""
"","","","","","","","","","","","canvas-keyboard-response","112","356472","0.0-112.0","null","null","","","","","","","","","","","","","","stimulus","","","1","7","","","","","","","","","",""
"","","","","","","","","","","","canvas-button-response","113","357760","0.0-113.0","1285","flower","","","","","","","","","","","","","","perceptual","","","1","7","","","","","7","house","10","","0",""
"","","","","","","","","","","","canvas-button-response","114","358289","0.0-114.0","527","4","","","","","","","","","","","","","","confidence","","","1","7","","","","","","","","","","3"
"","","","","","","","","","","","html-keyboard-response","115","359296","0.0-115.0","null","null","","","","","","","","","","","","","","feedback","Tue Oct 14 2025 15:13:10 GMT-0400 (Eastern Daylight Time)","27691","1","7","","","","","","","","","",""
"","","","","","","","","","","","preload","116","359297","0.0-116.0","","","","","true","","","","","","","","","","","preload","","","1","8","false","[]","[]","[]","","","","","",""
"","","","","","","","","","","","canvas-keyboard-response","117","359609","0.0-117.0","null","null","","","","","","","","","","","","","","fixation","","","1","8","","","","","","","","","",""
"","","","","","","","","","","","canvas-keyboard-response","118","359923","0.0-118.0","null","null","","","","","","","","","","","","","","stimulus","","","1","8","","","","","","","","","",""
"","","","","","","","","","","","canvas-button-response","119","361701","0.0-119.0","1776","elephant","","","","","","","","","","","","","","perceptual","","","1","8","","","","","17","car","10","","0",""
"","","","","","","","","","","","canvas-button-response","120","362621","0.0-120.0","918","3","","","","","","","","","","","","","","confidence","","","1","8","","","","","","","","","","3"
"","","","","","","","","","","","html-keyboard-response","121","363634","0.0-121.0","null","null","","","","","","","","","","","","","","feedback","Tue Oct 14 2025 15:13:14 GMT-0400 (Eastern Daylight Time)","27691","1","8","","","","","","","","","",""
"","","","","","","","","","","","preload","122","363635","0.0-122.0","","","","","true","","","","","","","","","","","preload","","","1","9","false","[]","[]","[]","","","","","",""
"","","","","","","","","","","","canvas-keyboard-response","123","363945","0.0-123.0","null","null","","","","","","","","","","","","","","fixation","","","1","9","","","","","","","","","",""
"","","","","","","","","","","","canvas-keyboard-response","124","364250","0.0-124.0","null","null","","","","","","","","","","","","","","stimulus","","","1","9","","","","","","","","","",""
"","","","","","","","","","","","canvas-button-response","125","366625","0.0-125.0","2372","knife","","","","","","","","","","","","","","perceptual","","","1","9","","","","","67","train","10","","0",""
"","","","","","","","","","","","canvas-button-response","126","367487","0.0-126.0","860","0","","","","","","","","","","","","","","confidence","","","1","9","","","","","","","","","","3"
"","","","","","","","","","","","html-keyboard-response","127","368496","0.0-127.0","null","null","","","","","","","","","","","","","","feedback","Tue Oct 14 2025 15:13:19 GMT-0400 (Eastern Daylight Time)","27691","1","9","","","","","","","","","",""
"","","","","","","","","","","","preload","128","368497","0.0-128.0","","","","","true","","","","","","","","","","","preload","","","1","10","false","[]","[]","[]","","","","","",""
"","","","","","","","","","","","canvas-keyboard-response","129","368810","0.0-129.0","null","null","","","","","","","","","","","","","","fixation","","","1","10","","","","","","","","","",""
"","","","","","","","","","","","canvas-keyboard-response","130","369122","0.0-130.0","null","null","","","","","","","","","","","","","","stimulus","","","1","10","","","","","","","","","",""
"","","","","","","","","","","","canvas-button-response","131","370002","0.0-131.0","878","knife","","","","","","","","","","","","","","perceptual","","","1","10","","","","","97","knife","10","","1",""
"","","","","","","","","","","","canvas-button-response","132","370586","0.0-132.0","582","10","","","","","","","","","","","","","","confidence","","","1","10","","","","","","","","","","4"
"","","","","","","","","","","","html-keyboard-response","133","371604","0.0-133.0","null","null","","","","","","","","","","","","","","feedback","Tue Oct 14 2025 15:13:22 GMT-0400 (Eastern Daylight Time)","27691","1","10","","","","","","","","","",""
"","","","","","","","","","","","preload","134","371604","0.0-134.0","","","","","true","","","","","","","","","","","preload","","","1","11","false","[]","[]","[]","","","","","",""
"","","","","","","","","","","","canvas-keyboard-response","135","371917","0.0-135.0","null","null","","","","","","","","","","","","","","fixation","","","1","11","","","","","","","","","",""
"","","","","","","","","","","","canvas-keyboard-response","136","372220","0.0-136.0","null","null","","","","","","","","","","","","","","stimulus","","","1","11","","","","","","","","","",""
"","","","","","","","","","","","canvas-button-response","137","373335","0.0-137.0","1112","cat","","","","","","","","","","","","","","perceptual","","","1","11","","","","","74","cat","6","","1",""
"","","","","","","","","","","","canvas-button-response","138","374418","0.0-138.0","1081","7","","","","","","","","","","","","","","confidence","","","1","11","","","","","","","","","","5"
"","","","","","","","","","","","html-keyboard-response","139","375433","0.0-139.0","null","null","","","","","","","","","","","","","","feedback","Tue Oct 14 2025 15:13:26 GMT-0400 (Eastern Daylight Time)","27691","1","11","","","","","","","","","",""
"","","","","","","","","","","","preload","140","375434","0.0-140.0","","","","","true","","","","","","","","","","","preload","","","1","12","false","[]","[]","[]","","","","","",""
"","","","","","","","","","","","canvas-keyboard-response","141","375748","0.0-141.0","null","null","","","","","","","","","","","","","","fixation","","","1","12","","","","","","","","","",""
"","","","","","","","","","","","canvas-keyboard-response","142","376056","0.0-142.0","null","null","","","","","","","","","","","","","","stimulus","","","1","12","","","","","","","","","",""
"","","","","","","","","","","","canvas-button-response","143","377981","0.0-143.0","1923","train","","","","","","","","","","","","","","perceptual","","","1","12","","","","","64","train","6","","1",""
"","","","","","","","","","","","canvas-button-response","144","378722","0.0-144.0","739","9","","","","","","","","","","","","","","confidence","","","1","12","","","","","","","","","","6"
"","","","","","","","","","","","html-keyboard-response","145","379737","0.0-145.0","null","null","","","","","","","","","","","","","","feedback","Tue Oct 14 2025 15:13:30 GMT-0400 (Eastern Daylight Time)","27691","1","12","","","","","","","","","",""
"","","","","","","","","","","","preload","146","379737","0.0-146.0","","","","","true","","","","","","","","","","","preload","","","1","13","false","[]","[]","[]","","","","","",""
"","","","","","","","","","","","canvas-keyboard-response","147","380047","0.0-147.0","null","null","","","","","","","","","","","","","","fixation","","","1","13","","","","","","","","","",""
"","","","","","","","","","","","canvas-keyboard-response","148","380358","0.0-148.0","null","null","","","","","","","","","","","","","","stimulus","","","1","13","","","","","","","","","",""
"","","","","","","","","","","","canvas-button-response","149","381899","0.0-149.0","1539","flower","","","","","","","","","","","","","","perceptual","","","1","13","","","","","54","flower","6","","1",""
"","","","","","","","","","","","canvas-button-response","150","382650","0.0-150.0","749","8","","","","","","","","","","","","","","confidence","","","1","13","","","","","","","","","","7"
"","","","","","","","","","","","html-keyboard-response","151","383665","0.0-151.0","null","null","","","","","","","","","","","","","","feedback","Tue Oct 14 2025 15:13:34 GMT-0400 (Eastern Daylight Time)","27691","1","13","","","","","","","","","",""
"","","","","","","","","","","","preload","152","383666","0.0-152.0","","","","","true","","","","","","","","","","","preload","","","1","14","false","[]","[]","[]","","","","","",""
"","","","","","","","","","","","canvas-keyboard-response","153","383975","0.0-153.0","null","null","","","","","","","","","","","","","","fixation","","","1","14","","","","","","","","","",""
"","","","","","","","","","","","canvas-keyboard-response","154","384285","0.0-154.0","null","null","","","","","","","","","","","","","","stimulus","","","1","14","","","","","","","","","",""
"","","","","","","","","","","","canvas-button-response","155","385663","0.0-155.0","1375","flower","","","","","","","","","","","","","","perceptual","","","1","14","","","","","57","flower","10","","1",""
"","","","","","","","","","","","canvas-button-response","156","386383","0.0-156.0","717","3","","","","","","","","","","","","","","confidence","","","1","14","","","","","","","","","","8"
"","","","","","","","","","","","html-keyboard-response","157","387390","0.0-157.0","null","null","","","","","","","","","","","","","","feedback","Tue Oct 14 2025 15:13:38 GMT-0400 (Eastern Daylight Time)","27691","1","14","","","","","","","","","",""
"","","","","","","","","","","","preload","158","387391","0.0-158.0","","","","","true","","","","","","","","","","","preload","","","1","15","false","[]","[]","[]","","","","","",""
"","","","","","","","","","","","canvas-keyboard-response","159","387705","0.0-159.0","null","null","","","","","","","","","","","","","","fixation","","","1","15","","","","","","","","","",""
"","","","","","","","","","","","canvas-keyboard-response","160","388016","0.0-160.0","null","null","","","","","","","","","","","","","","stimulus","","","1","15","","","","","","","","","",""
"","","","","","","","","","","","canvas-button-response","161","389761","0.0-161.0","1743","train","","","","","","","","","","","","","","perceptual","","","1","15","","","","","44","bridge","6","","0",""
"","","","","","","","","","","","canvas-button-response","162","390711","0.0-162.0","948","6","","","","","","","","","","","","","","confidence","","","1","15","","","","","","","","","","8"
"","","","","","","","","","","","html-keyboard-response","163","391713","0.0-163.0","null","null","","","","","","","","","","","","","","feedback","Tue Oct 14 2025 15:13:42 GMT-0400 (Eastern Daylight Time)","27691","1","15","","","","","","","","","",""
"","","","","","","","","","","","preload","164","391714","0.0-164.0","","","","","true","","","","","","","","","","","preload","","","1","16","false","[]","[]","[]","","","","","",""
"","","","","","","","","","","","canvas-keyboard-response","165","392024","0.0-165.0","null","null","","","","","","","","","","","","","","fixation","","","1","16","","","","","","","","","",""
"","","","","","","","","","","","canvas-keyboard-response","166","392334","0.0-166.0","null","null","","","","","","","","","","","","","","stimulus","","","1","16","","","","","","","","","",""
"","","","","","","","","","","","canvas-button-response","167","393685","0.0-167.0","1349","phone","","","","","","","","","","","","","","perceptual","","","1","16","","","","","24","phone","6","","1",""
"","","","","","","","","","","","canvas-button-response","168","394661","0.0-168.0","973","10","","","","","","","","","","","","","","confidence","","","1","16","","","","","","","","","","9"
"","","","","","","","","","","","html-keyboard-response","169","395674","0.0-169.0","null","null","","","","","","","","","","","","","","feedback","Tue Oct 14 2025 15:13:46 GMT-0400 (Eastern Daylight Time)","27691","1","16","","","","","","","","","",""
"","","","","","","","","","","","preload","170","395675","0.0-170.0","","","","","true","","","","","","","","","","","preload","","","1","17","false","[]","[]","[]","","","","","",""
"","","","","","","","","","","","canvas-keyboard-response","171","395989","0.0-171.0","null","null","","","","","","","","","","","","","","fixation","","","1","17","","","","","","","","","",""
"","","","","","","","","","","","canvas-keyboard-response","172","396303","0.0-172.0","null","null","","","","","","","","","","","","","","stimulus","","","1","17","","","","","","","","","",""
"","","","","","","","","","","","canvas-button-response","173","397132","0.0-173.0","827","house","","","","","","","","","","","","","","perceptual","","","1","17","","","","","4","house","6","","1",""
"","","","","","","","","","","","canvas-button-response","174","397742","0.0-174.0","608","7","","","","","","","","","","","","","","confidence","","","1","17","","","","","","","","","","10"
"","","","","","","","","","","","html-keyboard-response","175","398753","0.0-175.0","null","null","","","","","","","","","","","","","","feedback","Tue Oct 14 2025 15:13:49 GMT-0400 (Eastern Daylight Time)","27691","1","17","","","","","","","","","",""
"","","","","","","","","","","","preload","176","398754","0.0-176.0","","","","","true","","","","","","","","","","","preload","","","1","18","false","[]","[]","[]","","","","","",""
"","","","","","","","","","","","canvas-keyboard-response","177","399068","0.0-177.0","null","null","","","","","","","","","","","","","","fixation","","","1","18","","","","","","","","","",""
"","","","","","","","","","","","canvas-keyboard-response","178","399378","0.0-178.0","null","null","","","","","","","","","","","","","","stimulus","","","1","18","","","","","","","","","",""
"","","","","","","","","","","","canvas-button-response","179","402015","0.0-179.0","2635","train","","","","","","","","","","","","","","perceptual","","","1","18","","","","","14","car","6","","0",""
"","","","","","","","","","","","canvas-button-response","180","404285","0.0-180.0","2268","1","","","","","","","","","","","","","","confidence","","","1","18","","","","","","","","","","10"
"","","","","","","","","","","","html-keyboard-response","181","405287","0.0-181.0","null","null","","","","","","","","","","","","","","feedback","Tue Oct 14 2025 15:13:56 GMT-0400 (Eastern Daylight Time)","27691","1","18","","","","","","","","","",""
"","","","","","","","","","","","preload","182","405288","0.0-182.0","","","","","true","","","","","","","","","","","preload","","","1","19","false","[]","[]","[]","","","","","",""
"","","","","","","","","","","","canvas-keyboard-response","183","405602","0.0-183.0","null","null","","","","","","","","","","","","","","fixation","","","1","19","","","","","","","","","",""
"","","","","","","","","","","","canvas-keyboard-response","184","405904","0.0-184.0","null","null","","","","","","","","","","","","","","stimulus","","","1","19","","","","","","","","","",""
"","","","","","","","","","","","canvas-button-response","185","407219","0.0-185.0","1313","elephant","","","","","","","","","","","","","","perceptual","","","1","19","","","","","84","elephant","6","","1",""
"","","","","","","","","","","","canvas-button-response","186","407826","0.0-186.0","604","8","","","","","","","","","","","","","","confidence","","","1","19","","","","","","","","","","11"
"","","","","","","","","","","","html-keyboard-response","187","408834","0.0-187.0","null","null","","","","","","","","","","","","","","feedback","Tue Oct 14 2025 15:13:59 GMT-0400 (Eastern Daylight Time)","27691","1","19","","","","","","","","","",""
"","","","","","","","","","","","html-button-response","188","507623","0.0-188.0","98788","0","","","","","","","","","","","","","","start experiment","Tue Oct 14 2025 15:14:00 GMT-0400 (Eastern Daylight Time)","27691","1","19","","","","","","","","","",""
"","","","","","","","","","","","preload","189","507624","0.0-189.0","","","","","true","","","","","","","","","","","preload","","","2","0","false","[]","[]","[]","","","","","",""
"","","","","","","","","","","","canvas-keyboard-response","190","507936","0.0-190.0","null","null","","","","","","","","","","","","","","fixation","","","2","0","","","","","","","","","",""
"","","","","","","","","","","","canvas-keyboard-response","191","508247","0.0-191.0","null","null","","","","","","","","","","","","","","stimulus","","","2","0","","","","","","","","","",""
"","","","","","","","","","","","canvas-button-response","192","509306","0.0-192.0","1058","cat","","","","","","","","","","","","","","perceptual","","","2","0","","","","","290","cat","6","0","1",""
"","","","","","","","","","","","canvas-button-response","193","510211","0.0-193.0","903","4","","","","","","","","","","","","","","confidence","","","2","0","","","","","","","","","","1"
"","","","","","","","","","","","preload","194","510212","0.0-194.0","","","","","true","","","","","","","","","","","preload","","","2","1","false","[]","[]","[]","","","","","",""
"","","","","","","","","","","","canvas-keyboard-response","195","510520","0.0-195.0","null","null","","","","","","","","","","","","","","fixation","","","2","1","","","","","","","","","",""
"","","","","","","","","","","","canvas-keyboard-response","196","510832","0.0-196.0","null","null","","","","","","","","","","","","","","stimulus","","","2","1","","","","","","","","","",""
"","","","","","","","","","","","canvas-button-response","197","512487","0.0-197.0","1653","train","","","","","","","","","","","","","","perceptual","","","2","1","","","","","241","train","6","0","1",""
"","","","","","","","","","","","canvas-button-response","198","515763","0.0-198.0","3274","8","","","","","","","","","","","","","","confidence","","","2","1","","","","","","","","","","2"
"","","","","","","","","","","","preload","199","515764","0.0-199.0","","","","","true","","","","","","","","","","","preload","","","2","2","false","[]","[]","[]","","","","","",""
"","","","","","","","","","","","canvas-keyboard-response","200","516076","0.0-200.0","null","null","","","","","","","","","","","","","","fixation","","","2","2","","","","","","","","","",""
"","","","","","","","","","","","canvas-keyboard-response","201","516379","0.0-201.0","null","null","","","","","","","","","","","","","","stimulus","","","2","2","","","","","","","","","",""
"","","","","","","","","","","","canvas-button-response","202","517344","0.0-202.0","962","knife","","","","","","","","","","","","","","perceptual","","","2","2","","","","","378","knife","6","0","1",""
"","","","","","","","","","","","canvas-button-response","203","518031","0.0-203.0","685","8","","","","","","","","","","","","","","confidence","","","2","2","","","","","","","","","","3"
"","","","","","","","","","","","preload","204","518032","0.0-204.0","","","","","true","","","","","","","","","","","preload","","","2","3","false","[]","[]","[]","","","","","",""
"","","","","","","","","","","","canvas-keyboard-response","205","518334","0.0-205.0","null","null","","","","","","","","","","","","","","fixation","","","2","3","","","","","","","","","",""
"","","","","","","","","","","","canvas-keyboard-response","206","518637","0.0-206.0","null","null","","","","","","","","","","","","","","stimulus","","","2","3","","","","","","","","","",""
"","","","","","","","","","","","canvas-button-response","207","519549","0.0-207.0","911","knife","","","","","","","","","","","","","","perceptual","","","2","3","","","","","366","knife","6","0","1",""
"","","","","","","","","","","","canvas-button-response","208","521171","0.0-208.0","1619","10","","","","","","","","","","","","","","confidence","","","2","3","","","","","","","","","","4"
"","","","","","","","","","","","preload","209","521171","0.0-209.0","","","","","true","","","","","","","","","","","preload","","","2","4","false","[]","[]","[]","","","","","",""
"","","","","","","","","","","","canvas-keyboard-response","210","521482","0.0-210.0","null","null","","","","","","","","","","","","","","fixation","","","2","4","","","","","","","","","",""
"","","","","","","","","","","","canvas-keyboard-response","211","521798","0.0-211.0","null","null","","","","","","","","","","","","","","stimulus","","","2","4","","","","","","","","","",""
"","","","","","","","","","","","canvas-button-response","212","522860","0.0-212.0","1060","train","","","","","","","","","","","","","","perceptual","","","2","4","","","","","273","train","10","0","1",""
"","","","","","","","","","","","canvas-button-response","213","523553","0.0-213.0","691","7","","","","","","","","","","","","","","confidence","","","2","4","","","","","","","","","","5"
"","","","","","","","","","","","preload","214","523554","0.0-214.0","","","","","true","","","","","","","","","","","preload","","","2","5","false","[]","[]","[]","","","","","",""
"","","","","","","","","","","","canvas-keyboard-response","215","523859","0.0-215.0","null","null","","","","","","","","","","","","","","fixation","","","2","5","","","","","","","","","",""
"","","","","","","","","","","","canvas-keyboard-response","216","524173","0.0-216.0","null","null","","","","","","","","","","","","","","stimulus","","","2","5","","","","","","","","","",""
"","","","","","","","","","","","canvas-button-response","217","524894","0.0-217.0","719","elephant","","","","","","","","","","","","","","perceptual","","","2","5","","","","","331","elephant","6","0","1",""
"","","","","","","","","","","","canvas-button-response","218","525380","0.0-218.0","484","10","","","","","","","","","","","","","","confidence","","","2","5","","","","","","","","","","6"
"","","","","","","","","","","","preload","219","525381","0.0-219.0","","","","","true","","","","","","","","","","","preload","","","2","6","false","[]","[]","[]","","","","","",""
"","","","","","","","","","","","canvas-keyboard-response","220","525683","0.0-220.0","null","null","","","","","","","","","","","","","","fixation","","","2","6","","","","","","","","","",""
"","","","","","","","","","","","canvas-keyboard-response","221","525998","0.0-221.0","null","null","","","","","","","","","","","","","","stimulus","","","2","6","","","","","","","","","",""
"","","","","","","","","","","","canvas-button-response","222","528177","0.0-222.0","2176","knife","","","","","","","","","","","","","","perceptual","","","2","6","","","","","383","knife","10","0","1",""
"","","","","","","","","","","","canvas-button-response","223","529121","0.0-223.0","942","3","","","","","","","","","","","","","","confidence","","","2","6","","","","","","","","","","7"
"","","","","","","","","","","","preload","224","529122","0.0-224.0","","","","","true","","","","","","","","","","","preload","","","2","7","false","[]","[]","[]","","","","","",""
"","","","","","","","","","","","canvas-keyboard-response","225","529430","0.0-225.0","null","null","","","","","","","","","","","","","","fixation","","","2","7","","","","","","","","","",""
"","","","","","","","","","","","canvas-keyboard-response","226","529741","0.0-226.0","null","null","","","","","","","","","","","","","","stimulus","","","2","7","","","","","","","","","",""
"","","","","","","","","","","","canvas-button-response","227","530585","0.0-227.0","842","car","","","","","","","","","","","","","","perceptual","","","2","7","","","","","72","car","10","0","1",""
"","","","","","","","","","","","canvas-button-response","228","531393","0.0-228.0","806","8","","","","","","","","","","","","","","confidence","","","2","7","","","","","","","","","","8"
"","","","","","","","","","","","preload","229","531394","0.0-229.0","","","","","true","","","","","","","","","","","preload","","","2","8","false","[]","[]","[]","","","","","",""
"","","","","","","","","","","","canvas-keyboard-response","230","531708","0.0-230.0","null","null","","","","","","","","","","","","","","fixation","","","2","8","","","","","","","","","",""
"","","","","","","","","","","","canvas-keyboard-response","231","532023","0.0-231.0","null","null","","","","","","","","","","","","","","stimulus","","","2","8","","","","","","","","","",""
"","","","","","","","","","","","canvas-button-response","232","532972","0.0-232.0","947","car","","","","","","","","","","","","","","perceptual","","","2","8","","","","","57","car","6","0","1",""
"","","","","","","","","","","","canvas-button-response","233","533610","0.0-233.0","635","8","","","","","","","","","","","","","","confidence","","","2","8","","","","","","","","","","9"
"","","","","","","","","","","","preload","234","533612","0.0-234.0","","","","","true","","","","","","","","","","","preload","","","2","9","false","[]","[]","[]","","","","","",""
"","","","","","","","","","","","canvas-keyboard-response","235","533922","0.0-235.0","null","null","","","","","","","","","","","","","","fixation","","","2","9","","","","","","","","","",""
"","","","","","","","","","","","canvas-keyboard-response","236","534235","0.0-236.0","null","null","","","","","","","","","","","","","","stimulus","","","2","9","","","","","","","","","",""
"","","","","","","","","","","","canvas-button-response","237","535542","0.0-237.0","1304","knife","","","","","","","","","","","","","","perceptual","","","2","9","","","","","391","knife","10","0","1",""
"","","","","","","","","","","","canvas-button-response","238","536252","0.0-238.0","708","7","","","","","","","","","","","","","","confidence","","","2","9","","","","","","","","","","10"
"","","","","","","","","","","","preload","239","536253","0.0-239.0","","","","","true","","","","","","","","","","","preload","","","2","10","false","[]","[]","[]","","","","","",""
"","","","","","","","","","","","canvas-keyboard-response","240","536554","0.0-240.0","null","null","","","","","","","","","","","","","","fixation","","","2","10","","","","","","","","","",""
"","","","","","","","","","","","canvas-keyboard-response","241","536866","0.0-241.0","null","null","","","","","","","","","","","","","","stimulus","","","2","10","","","","","","","","","",""
"","","","","","","","","","","","canvas-button-response","242","537819","0.0-242.0","951","flower","","","","","","","","","","","","","","perceptual","","","2","10","","","","","209","flower","6","0","1",""
"","","","","","","","","","","","canvas-button-response","243","538801","0.0-243.0","980","9","","","","","","","","","","","","","","confidence","","","2","10","","","","","","","","","","11"
"","","","","","","","","","","","preload","244","538801","0.0-244.0","","","","","true","","","","","","","","","","","preload","","","2","11","false","[]","[]","[]","","","","","",""
"","","","","","","","","","","","canvas-keyboard-response","245","539116","0.0-245.0","null","null","","","","","","","","","","","","","","fixation","","","2","11","","","","","","","","","",""
"","","","","","","","","","","","canvas-keyboard-response","246","539435","0.0-246.0","null","null","","","","","","","","","","","","","","stimulus","","","2","11","","","","","","","","","",""
"","","","","","","","","","","","canvas-button-response","247","542455","0.0-247.0","3018","bridge","","","","","","","","","","","","","","perceptual","","","2","11","","","","","375","knife","6","0","0",""
"","","","","","","","","","","","canvas-button-response","248","543805","0.0-248.0","1348","4","","","","","","","","","","","","","","confidence","","","2","11","","","","","","","","","","11"
"","","","","","","","","","","","preload","249","543806","0.0-249.0","","","","","true","","","","","","","","","","","preload","","","2","12","false","[]","[]","[]","","","","","",""
"","","","","","","","","","","","canvas-keyboard-response","250","544118","0.0-250.0","null","null","","","","","","","","","","","","","","fixation","","","2","12","","","","","","","","","",""
"","","","","","","","","","","","canvas-keyboard-response","251","544425","0.0-251.0","null","null","","","","","","","","","","","","","","stimulus","","","2","12","","","","","","","","","",""
"","","","","","","","","","","","canvas-button-response","252","545315","0.0-252.0","888","elephant","","","","","","","","","","","","","","perceptual","","","2","12","","","","","337","elephant","6","0","1",""
"","","","","","","","","","","","canvas-button-response","253","546001","0.0-253.0","684","10","","","","","","","","","","","","","","confidence","","","2","12","","","","","","","","","","12"
"","","","","","","","","","","","preload","254","546002","0.0-254.0","","","","","true","","","","","","","","","","","preload","","","2","13","false","[]","[]","[]","","","","","",""
"","","","","","","","","","","","canvas-keyboard-response","255","546308","0.0-255.0","null","null","","","","","","","","","","","","","","fixation","","","2","13","","","","","","","","","",""
"","","","","","","","","","","","canvas-keyboard-response","256","546622","0.0-256.0","null","null","","","","","","","","","","","","","","stimulus","","","2","13","","","","","","","","","",""
"","","","","","","","","","","","canvas-button-response","257","547494","0.0-257.0","870","flower","","","","","","","","","","","","","","perceptual","","","2","13","","","","","238","flower","10","0","1",""
"","","","","","","","","","","","canvas-button-response","258","548294","0.0-258.0","797","8","","","","","","","","","","","","","","confidence","","","2","13","","","","","","","","","","13"
"","","","","","","","","","","","preload","259","548295","0.0-259.0","","","","","true","","","","","","","","","","","preload","","","2","14","false","[]","[]","[]","","","","","",""
"","","","","","","","","","","","canvas-keyboard-response","260","548607","0.0-260.0","null","null","","","","","","","","","","","","","","fixation","","","2","14","","","","","","","","","",""
"","","","","","","","","","","","canvas-keyboard-response","261","548923","0.0-261.0","null","null","","","","","","","","","","","","","","stimulus","","","2","14","","","","","","","","","",""
"","","","","","","","","","","","canvas-button-response","262","550377","0.0-262.0","1451","knife","","","","","","","","","","","","","","perceptual","","","2","14","","","","","372","knife","6","0","1",""
"","","","","","","","","","","","canvas-button-response","263","551080","0.0-263.0","701","7","","","","","","","","","","","","","","confidence","","","2","14","","","","","","","","","","14"
"","","","","","","","","","","","preload","264","551081","0.0-264.0","","","","","true","","","","","","","","","","","preload","","","2","15","false","[]","[]","[]","","","","","",""
"","","","","","","","","","","","canvas-keyboard-response","265","551388","0.0-265.0","null","null","","","","","","","","","","","","","","fixation","","","2","15","","","","","","","","","",""
"","","","","","","","","","","","canvas-keyboard-response","266","551700","0.0-266.0","null","null","","","","","","","","","","","","","","stimulus","","","2","15","","","","","","","","","",""
"","","","","","","","","","","","canvas-button-response","267","552840","0.0-267.0","1138","bed","","","","","","","","","","","","","","perceptual","","","2","15","","","","","90","phone","6","0","0",""
"","","","","","","","","","","","canvas-button-response","268","553467","0.0-268.0","624","8","","","","","","","","","","","","","","confidence","","","2","15","","","","","","","","","","14"
"","","","","","","","","","","","preload","269","553467","0.0-269.0","","","","","true","","","","","","","","","","","preload","","","2","16","false","[]","[]","[]","","","","","",""
"","","","","","","","","","","","canvas-keyboard-response","270","553777","0.0-270.0","null","null","","","","","","","","","","","","","","fixation","","","2","16","","","","","","","","","",""
"","","","","","","","","","","","canvas-keyboard-response","271","554092","0.0-271.0","null","null","","","","","","","","","","","","","","stimulus","","","2","16","","","","","","","","","",""
"","","","","","","","","","","","canvas-button-response","272","555150","0.0-272.0","1055","bed","","","","","","","","","","","","","","perceptual","","","2","16","","","","","129","bed","6","0","1",""
"","","","","","","","","","","","canvas-button-response","273","556404","0.0-273.0","1252","6","","","","","","","","","","","","","","confidence","","","2","16","","","","","","","","","","15"
"","","","","","","","","","","","preload","274","556405","0.0-274.0","","","","","true","","","","","","","","","","","preload","","","2","17","false","[]","[]","[]","","","","","",""
"","","","","","","","","","","","canvas-keyboard-response","275","556718","0.0-275.0","null","null","","","","","","","","","","","","","","fixation","","","2","17","","","","","","","","","",""
"","","","","","","","","","","","canvas-keyboard-response","276","557033","0.0-276.0","null","null","","","","","","","","","","","","","","stimulus","","","2","17","","","","","","","","","",""
"","","","","","","","","","","","canvas-button-response","277","560169","0.0-277.0","3134","house","","","","","","","","","","","","","","perceptual","","","2","17","","","","","104","phone","10","0","0",""
"","","","","","","","","","","","canvas-button-response","278","560780","0.0-278.0","608","0","","","","","","","","","","","","","","confidence","","","2","17","","","","","","","","","","15"
"","","","","","","","","","","","preload","279","560780","0.0-279.0","","","","","true","","","","","","","","","","","preload","","","2","18","false","[]","[]","[]","","","","","",""
"","","","","","","","","","","","canvas-keyboard-response","280","561089","0.0-280.0","null","null","","","","","","","","","","","","","","fixation","","","2","18","","","","","","","","","",""
"","","","","","","","","","","","canvas-keyboard-response","281","561391","0.0-281.0","null","null","","","","","","","","","","","","","","stimulus","","","2","18","","","","","","","","","",""
"","","","","","","","","","","","canvas-button-response","282","563577","0.0-282.0","2185","flower","","","","","","","","","","","","","","perceptual","","","2","18","","","","","205","flower","6","0","1",""
"","","","","","","","","","","","canvas-button-response","283","564328","0.0-283.0","749","7","","","","","","","","","","","","","","confidence","","","2","18","","","","","","","","","","16"
"","","","","","","","","","","","preload","284","564329","0.0-284.0","","","","","true","","","","","","","","","","","preload","","","2","19","false","[]","[]","[]","","","","","",""
"","","","","","","","","","","","canvas-keyboard-response","285","564631","0.0-285.0","null","null","","","","","","","","","","","","","","fixation","","","2","19","","","","","","","","","",""
"","","","","","","","","","","","canvas-keyboard-response","286","564942","0.0-286.0","null","null","","","","","","","","","","","","","","stimulus","","","2","19","","","","","","","","","",""
"","","","","","","","","","","","canvas-button-response","287","566150","0.0-287.0","1206","knife","","","","","","","","","","","","","","perceptual","","","2","19","","","","","84","phone","6","0","0",""
"","","","","","","","","","","","canvas-button-response","288","567068","0.0-288.0","915","4","","","","","","","","","","","","","","confidence","","","2","19","","","","","","","","","","16"
"","","","","","","","","","","","preload","289","567069","0.0-289.0","","","","","true","","","","","","","","","","","preload","","","2","20","false","[]","[]","[]","","","","","",""
"","","","","","","","","","","","canvas-keyboard-response","290","567374","0.0-290.0","null","null","","","","","","","","","","","","","","fixation","","","2","20","","","","","","","","","",""
"","","","","","","","","","","","canvas-keyboard-response","291","567684","0.0-291.0","null","null","","","","","","","","","","","","","","stimulus","","","2","20","","","","","","","","","",""
"","","","","","","","","","","","canvas-button-response","292","568932","0.0-292.0","1246","bridge","","","","","","","","","","","","","","perceptual","","","2","20","","","","","35","house","10","0","0",""
"","","","","","","","","","","","canvas-button-response","293","569731","0.0-293.0","797","6","","","","","","","","","","","","","","confidence","","","2","20","","","","","","","","","","16"
"","","","","","","","","","","","preload","294","569732","0.0-294.0","","","","","true","","","","","","","","","","","preload","","","2","21","false","[]","[]","[]","","","","","",""
"","","","","","","","","","","","canvas-keyboard-response","295","570033","0.0-295.0","null","null","","","","","","","","","","","","","","fixation","","","2","21","","","","","","","","","",""
"","","","","","","","","","","","canvas-keyboard-response","296","570347","0.0-296.0","null","null","","","","","","","","","","","","","","stimulus","","","2","21","","","","","","","","","",""
"","","","","","","","","","","","canvas-button-response","297","571195","0.0-297.0","845","car","","","","","","","","","","","","","","perceptual","","","2","21","","","","","64","car","10","0","1",""
"","","","","","","","","","","","canvas-button-response","298","571869","0.0-298.0","672","7","","","","","","","","","","","","","","confidence","","","2","21","","","","","","","","","","17"
"","","","","","","","","","","","preload","299","571870","0.0-299.0","","","","","true","","","","","","","","","","","preload","","","2","22","false","[]","[]","[]","","","","","",""
"","","","","","","","","","","","canvas-keyboard-response","300","572172","0.0-300.0","null","null","","","","","","","","","","","","","","fixation","","","2","22","","","","","","","","","",""
"","","","","","","","","","","","canvas-keyboard-response","301","572480","0.0-301.0","null","null","","","","","","","","","","","","","","stimulus","","","2","22","","","","","","","","","",""
"","","","","","","","","","","","canvas-button-response","302","573487","0.0-302.0","1004","bridge","","","","","","","","","","","","","","perceptual","","","2","22","","","","","171","bridge","6","0","1",""
"","","","","","","","","","","","canvas-button-response","303","574168","0.0-303.0","679","10","","","","","","","","","","","","","","confidence","","","2","22","","","","","","","","","","18"
"","","","","","","","","","","","preload","304","574170","0.0-304.0","","","","","true","","","","","","","","","","","preload","","","2","23","false","[]","[]","[]","","","","","",""
"","","","","","","","","","","","canvas-keyboard-response","305","574475","0.0-305.0","null","null","","","","","","","","","","","","","","fixation","","","2","23","","","","","","","","","",""
"","","","","","","","","","","","canvas-keyboard-response","306","574779","0.0-306.0","null","null","","","","","","","","","","","","","","stimulus","","","2","23","","","","","","","","","",""
"","","","","","","","","","","","canvas-button-response","307","575715","0.0-307.0","935","knife","","","","","","","","","","","","","","perceptual","","","2","23","","","","","316","cat","10","0","0",""
"","","","","","","","","","","","canvas-button-response","308","576889","0.0-308.0","1171","4","","","","","","","","","","","","","","confidence","","","2","23","","","","","","","","","","18"
"","","","","","","","","","","","preload","309","576890","0.0-309.0","","","","","true","","","","","","","","","","","preload","","","2","24","false","[]","[]","[]","","","","","",""
"","","","","","","","","","","","canvas-keyboard-response","310","577202","0.0-310.0","null","null","","","","","","","","","","","","","","fixation","","","2","24","","","","","","","","","",""
"","","","","","","","","","","","canvas-keyboard-response","311","577511","0.0-311.0","null","null","","","","","","","","","","","","","","stimulus","","","2","24","","","","","","","","","",""
"","","","","","","","","","","","canvas-button-response","312","578892","0.0-312.0","1379","house","","","","","","","","","","","","","","perceptual","","","2","24","","","","","181","bridge","10","0","0",""
"","","","","","","","","","","","canvas-button-response","313","580060","0.0-313.0","1166","1","","","","","","","","","","","","","","confidence","","","2","24","","","","","","","","","","18"
"","","","","","","","","","","","preload","314","580061","0.0-314.0","","","","","true","","","","","","","","","","","preload","","","2","25","false","[]","[]","[]","","","","","",""
"","","","","","","","","","","","canvas-keyboard-response","315","580365","0.0-315.0","null","null","","","","","","","","","","","","","","fixation","","","2","25","","","","","","","","","",""
"","","","","","","","","","","","canvas-keyboard-response","316","580668","0.0-316.0","null","null","","","","","","","","","","","","","","stimulus","","","2","25","","","","","","","","","",""
"","","","","","","","","","","","canvas-button-response","317","584125","0.0-317.0","3454","train","","","","","","","","","","","","","","perceptual","","","2","25","","","","","275","train","10","0","1",""
"","","","","","","","","","","","canvas-button-response","318","585453","0.0-318.0","1326","3","","","","","","","","","","","","","","confidence","","","2","25","","","","","","","","","","19"
"","","","","","","","","","","","preload","319","585454","0.0-319.0","","","","","true","","","","","","","","","","","preload","","","2","26","false","[]","[]","[]","","","","","",""
"","","","","","","","","","","","canvas-keyboard-response","320","585770","0.0-320.0","null","null","","","","","","","","","","","","","","fixation","","","2","26","","","","","","","","","",""
"","","","","","","","","","","","canvas-keyboard-response","321","586080","0.0-321.0","null","null","","","","","","","","","","","","","","stimulus","","","2","26","","","","","","","","","",""
"","","","","","","","","","","","canvas-button-response","322","586885","0.0-322.0","802","cat","","","","","","","","","","","","","","perceptual","","","2","26","","","","","283","cat","6","0","1",""
"","","","","","","","","","","","canvas-button-response","323","587469","0.0-323.0","581","10","","","","","","","","","","","","","","confidence","","","2","26","","","","","","","","","","20"
"","","","","","","","","","","","preload","324","587471","0.0-324.0","","","","","true","","","","","","","","","","","preload","","","2","27","false","[]","[]","[]","","","","","",""
"","","","","","","","","","","","canvas-keyboard-response","325","587773","0.0-325.0","null","null","","","","","","","","","","","","","","fixation","","","2","27","","","","","","","","","",""
"","","","","","","","","","","","canvas-keyboard-response","326","588085","0.0-326.0","null","null","","","","","","","","","","","","","","stimulus","","","2","27","","","","","","","","","",""
"","","","","","","","","","","","canvas-button-response","327","588975","0.0-327.0","887","train","","","","","","","","","","","","","","perceptual","","","2","27","","","","","243","train","6","0","1",""
"","","","","","","","","","","","canvas-button-response","328","589613","0.0-328.0","637","10","","","","","","","","","","","","","","confidence","","","2","27","","","","","","","","","","21"
"","","","","","","","","","","","preload","329","589614","0.0-329.0","","","","","true","","","","","","","","","","","preload","","","2","28","false","[]","[]","[]","","","","","",""
"","","","","","","","","","","","canvas-keyboard-response","330","589919","0.0-330.0","null","null","","","","","","","","","","","","","","fixation","","","2","28","","","","","","","","","",""
"","","","","","","","","","","","canvas-keyboard-response","331","590229","0.0-331.0","null","null","","","","","","","","","","","","","","stimulus","","","2","28","","","","","","","","","",""
"","","","","","","","","","","","canvas-button-response","332","592658","0.0-332.0","2427","bridge","","","","","","","","","","","","","","perceptual","","","2","28","","","","","363","knife","6","0","0",""
"","","","","","","","","","","","canvas-button-response","333","593271","0.0-333.0","610","0","","","","","","","","","","","","","","confidence","","","2","28","","","","","","","","","","21"
"","","","","","","","","","","","preload","334","593271","0.0-334.0","","","","","true","","","","","","","","","","","preload","","","2","29","false","[]","[]","[]","","","","","",""
"","","","","","","","","","","","canvas-keyboard-response","335","593581","0.0-335.0","null","null","","","","","","","","","","","","","","fixation","","","2","29","","","","","","","","","",""
"","","","","","","","","","","","canvas-keyboard-response","336","593882","0.0-336.0","null","null","","","","","","","","","","","","","","stimulus","","","2","29","","","","","","","","","",""
"","","","","","","","","","","","canvas-button-response","337","594859","0.0-337.0","975","train","","","","","","","","","","","","","","perceptual","","","2","29","","","","","255","train","6","0","1",""
"","","","","","","","","","","","canvas-button-response","338","595598","0.0-338.0","737","9","","","","","","","","","","","","","","confidence","","","2","29","","","","","","","","","","22"
"","","","","","","","","","","","preload","339","595598","0.0-339.0","","","","","true","","","","","","","","","","","preload","","","2","30","false","[]","[]","[]","","","","","",""
"","","","","","","","","","","","canvas-keyboard-response","340","595906","0.0-340.0","null","null","","","","","","","","","","","","","","fixation","","","2","30","","","","","","","","","",""
"","","","","","","","","","","","canvas-keyboard-response","341","596218","0.0-341.0","null","null","","","","","","","","","","","","","","stimulus","","","2","30","","","","","","","","","",""
"","","","","","","","","","","","canvas-button-response","342","599095","0.0-342.0","2875","elephant","","","","","","","","","","","","","","perceptual","","","2","30","","","","","382","knife","10","0","0",""
"","","","","","","","","","","","canvas-button-response","343","600235","0.0-343.0","1138","1","","","","","","","","","","","","","","confidence","","","2","30","","","","","","","","","","22"
"","","","","","","","","","","","preload","344","600235","0.0-344.0","","","","","true","","","","","","","","","","","preload","","","2","31","false","[]","[]","[]","","","","","",""
"","","","","","","","","","","","canvas-keyboard-response","345","600551","0.0-345.0","null","null","","","","","","","","","","","","","","fixation","","","2","31","","","","","","","","","",""
"","","","","","","","","","","","canvas-keyboard-response","346","600861","0.0-346.0","null","null","","","","","","","","","","","","","","stimulus","","","2","31","","","","","","","","","",""
"","","","","","","","","","","","canvas-button-response","347","601992","0.0-347.0","1128","knife","","","","","","","","","","","","","","perceptual","","","2","31","","","","","143","bed","10","0","0",""
"","","","","","","","","","","","canvas-button-response","348","602646","0.0-348.0","652","1","","","","","","","","","","","","","","confidence","","","2","31","","","","","","","","","","22"
"","","","","","","","","","","","preload","349","602647","0.0-349.0","","","","","true","","","","","","","","","","","preload","","","2","32","false","[]","[]","[]","","","","","",""
"","","","","","","","","","","","canvas-keyboard-response","350","602950","0.0-350.0","null","null","","","","","","","","","","","","","","fixation","","","2","32","","","","","","","","","",""
"","","","","","","","","","","","canvas-keyboard-response","351","603264","0.0-351.0","null","null","","","","","","","","","","","","","","stimulus","","","2","32","","","","","","","","","",""
"","","","","","","","","","","","canvas-button-response","352","604025","0.0-352.0","758","car","","","","","","","","","","","","","","perceptual","","","2","32","","","","","59","car","6","0","1",""
"","","","","","","","","","","","canvas-button-response","353","605039","0.0-353.0","1012","10","","","","","","","","","","","","","","confidence","","","2","32","","","","","","","","","","23"
"","","","","","","","","","","","preload","354","605040","0.0-354.0","","","","","true","","","","","","","","","","","preload","","","2","33","false","[]","[]","[]","","","","","",""
"","","","","","","","","","","","canvas-keyboard-response","355","605341","0.0-355.0","null","null","","","","","","","","","","","","","","fixation","","","2","33","","","","","","","","","",""
"","","","","","","","","","","","canvas-keyboard-response","356","605648","0.0-356.0","null","null","","","","","","","","","","","","","","stimulus","","","2","33","","","","","","","","","",""
"","","","","","","","","","","","canvas-button-response","357","606557","0.0-357.0","907","train","","","","","","","","","","","","","","perceptual","","","2","33","","","","","267","train","10","0","1",""
"","","","","","","","","","","","canvas-button-response","358","607543","0.0-358.0","984","7","","","","","","","","","","","","","","confidence","","","2","33","","","","","","","","","","24"
"","","","","","","","","","","","preload","359","607544","0.0-359.0","","","","","true","","","","","","","","","","","preload","","","2","34","false","[]","[]","[]","","","","","",""
"","","","","","","","","","","","canvas-keyboard-response","360","607847","0.0-360.0","null","null","","","","","","","","","","","","","","fixation","","","2","34","","","","","","","","","",""
"","","","","","","","","","","","canvas-keyboard-response","361","608159","0.0-361.0","null","null","","","","","","","","","","","","","","stimulus","","","2","34","","","","","","","","","",""
"","","","","","","","","","","","canvas-button-response","362","609534","0.0-362.0","1373","bed","","","","","","","","","","","","","","perceptual","","","2","34","","","","","310","cat","10","0","0",""
"","","","","","","","","","","","canvas-button-response","363","610937","0.0-363.0","1402","5","","","","","","","","","","","","","","confidence","","","2","34","","","","","","","","","","24"
"","","","","","","","","","","","preload","364","610938","0.0-364.0","","","","","true","","","","","","","","","","","preload","","","2","35","false","[]","[]","[]","","","","","",""
"","","","","","","","","","","","canvas-keyboard-response","365","611248","0.0-365.0","null","null","","","","","","","","","","","","","","fixation","","","2","35","","","","","","","","","",""
"","","","","","","","","","","","canvas-keyboard-response","366","611562","0.0-366.0","null","null","","","","","","","","","","","","","","stimulus","","","2","35","","","","","","","","","",""
"","","","","","","","","","","","canvas-button-response","367","612935","0.0-367.0","1371","flower","","","","","","","","","","","","","","perceptual","","","2","35","","","","","295","cat","6","0","0",""
"","","","","","","","","","","","canvas-button-response","368","613502","0.0-368.0","564","4","","","","","","","","","","","","","","confidence","","","2","35","","","","","","","","","","24"
"","","","","","","","","","","","preload","369","613502","0.0-369.0","","","","","true","","","","","","","","","","","preload","","","2","36","false","[]","[]","[]","","","","","",""
"","","","","","","","","","","","canvas-keyboard-response","370","613818","0.0-370.0","null","null","","","","","","","","","","","","","","fixation","","","2","36","","","","","","","","","",""
"","","","","","","","","","","","canvas-keyboard-response","371","614130","0.0-371.0","null","null","","","","","","","","","","","","","","stimulus","","","2","36","","","","","","","","","",""
"","","","","","","","","","","","canvas-button-response","372","615218","0.0-372.0","1086","bridge","","","","","","","","","","","","","","perceptual","","","2","36","","","","","170","bridge","6","0","1",""
"","","","","","","","","","","","canvas-button-response","373","616292","0.0-373.0","1072","10","","","","","","","","","","","","","","confidence","","","2","36","","","","","","","","","","25"
"","","","","","","","","","","","preload","374","616293","0.0-374.0","","","","","true","","","","","","","","","","","preload","","","2","37","false","[]","[]","[]","","","","","",""
"","","","","","","","","","","","canvas-keyboard-response","375","616599","0.0-375.0","null","null","","","","","","","","","","","","","","fixation","","","2","37","","","","","","","","","",""
"","","","","","","","","","","","canvas-keyboard-response","376","616902","0.0-376.0","null","null","","","","","","","","","","","","","","stimulus","","","2","37","","","","","","","","","",""
"","","","","","","","","","","","canvas-button-response","377","617871","0.0-377.0","966","flower","","","","","","","","","","","","","","perceptual","","","2","37","","","","","236","flower","10","0","1",""
"","","","","","","","","","","","canvas-button-response","378","618516","0.0-378.0","643","7","","","","","","","","","","","","","","confidence","","","2","37","","","","","","","","","","26"
"","","","","","","","","","","","preload","379","618517","0.0-379.0","","","","","true","","","","","","","","","","","preload","","","2","38","false","[]","[]","[]","","","","","",""
"","","","","","","","","","","","canvas-keyboard-response","380","618820","0.0-380.0","null","null","","","","","","","","","","","","","","fixation","","","2","38","","","","","","","","","",""
"","","","","","","","","","","","canvas-keyboard-response","381","619130","0.0-381.0","null","null","","","","","","","","","","","","","","stimulus","","","2","38","","","","","","","","","",""
"","","","","","","","","","","","canvas-button-response","382","620017","0.0-382.0","885","train","","","","","","","","","","","","","","perceptual","","","2","38","","","","","247","train","6","0","1",""
"","","","","","","","","","","","canvas-button-response","383","620691","0.0-383.0","672","5","","","","","","","","","","","","","","confidence","","","2","38","","","","","","","","","","27"
"","","","","","","","","","","","preload","384","620692","0.0-384.0","","","","","true","","","","","","","","","","","preload","","","2","39","false","[]","[]","[]","","","","","",""
"","","","","","","","","","","","canvas-keyboard-response","385","621007","0.0-385.0","null","null","","","","","","","","","","","","","","fixation","","","2","39","","","","","","","","","",""
"","","","","","","","","","","","canvas-keyboard-response","386","621319","0.0-386.0","null","null","","","","","","","","","","","","","","stimulus","","","2","39","","","","","","","","","",""
"","","","","","","","","","","","canvas-button-response","387","622540","0.0-387.0","1220","cat","","","","","","","","","","","","","","perceptual","","","2","39","","","","","333","elephant","6","0","0",""
"","","","","","","","","","","","canvas-button-response","388","623734","0.0-388.0","1192","6","","","","","","","","","","","","","","confidence","","","2","39","","","","","","","","","","27"
"","","","","","","","","","","","preload","389","623735","0.0-389.0","","","","","true","","","","","","","","","","","preload","","","2","40","false","[]","[]","[]","","","","","",""
"","","","","","","","","","","","canvas-keyboard-response","390","624044","0.0-390.0","null","null","","","","","","","","","","","","","","fixation","","","2","40","","","","","","","","","",""
"","","","","","","","","","","","canvas-keyboard-response","391","624347","0.0-391.0","null","null","","","","","","","","","","","","","","stimulus","","","2","40","","","","","","","","","",""
"","","","","","","","","","","","canvas-button-response","392","626218","0.0-392.0","1870","cat","","","","","","","","","","","","","","perceptual","","","2","40","","","","","291","cat","6","0","1",""
"","","","","","","","","","","","canvas-button-response","393","627207","0.0-393.0","987","2","","","","","","","","","","","","","","confidence","","","2","40","","","","","","","","","","28"
"","","","","","","","","","","","preload","394","627208","0.0-394.0","","","","","true","","","","","","","","","","","preload","","","2","41","false","[]","[]","[]","","","","","",""
"","","","","","","","","","","","canvas-keyboard-response","395","627516","0.0-395.0","null","null","","","","","","","","","","","","","","fixation","","","2","41","","","","","","","","","",""
"","","","","","","","","","","","canvas-keyboard-response","396","627828","0.0-396.0","null","null","","","","","","","","","","","","","","stimulus","","","2","41","","","","","","","","","",""
"","","","","","","","","","","","canvas-button-response","397","628727","0.0-397.0","897","bed","","","","","","","","","","","","","","perceptual","","","2","41","","","","","123","bed","6","0","1",""
"","","","","","","","","","","","canvas-button-response","398","630303","0.0-398.0","1574","5","","","","","","","","","","","","","","confidence","","","2","41","","","","","","","","","","29"
"","","","","","","","","","","","preload","399","630304","0.0-399.0","","","","","true","","","","","","","","","","","preload","","","2","42","false","[]","[]","[]","","","","","",""
"","","","","","","","","","","","canvas-keyboard-response","400","630614","0.0-400.0","null","null","","","","","","","","","","","","","","fixation","","","2","42","","","","","","","","","",""
"","","","","","","","","","","","canvas-keyboard-response","401","630924","0.0-401.0","null","null","","","","","","","","","","","","","","stimulus","","","2","42","","","","","","","","","",""
"","","","","","","","","","","","canvas-button-response","402","632224","0.0-402.0","1298","phone","","","","","","","","","","","","","","perceptual","","","2","42","","","","","86","phone","6","0","1",""
"","","","","","","","","","","","canvas-button-response","403","632897","0.0-403.0","671","8","","","","","","","","","","","","","","confidence","","","2","42","","","","","","","","","","30"
"","","","","","","","","","","","preload","404","632898","0.0-404.0","","","","","true","","","","","","","","","","","preload","","","2","43","false","[]","[]","[]","","","","","",""
"","","","","","","","","","","","canvas-keyboard-response","405","633210","0.0-405.0","null","null","","","","","","","","","","","","","","fixation","","","2","43","","","","","","","","","",""
"","","","","","","","","","","","canvas-keyboard-response","406","633522","0.0-406.0","null","null","","","","","","","","","","","","","","stimulus","","","2","43","","","","","","","","","",""
"","","","","","","","","","","","canvas-button-response","407","634280","0.0-407.0","756","cat","","","","","","","","","","","","","","perceptual","","","2","43","","","","","281","cat","6","0","1",""
"","","","","","","","","","","","canvas-button-response","408","634924","0.0-408.0","642","8","","","","","","","","","","","","","","confidence","","","2","43","","","","","","","","","","31"
"","","","","","","","","","","","preload","409","634924","0.0-409.0","","","","","true","","","","","","","","","","","preload","","","2","44","false","[]","[]","[]","","","","","",""
"","","","","","","","","","","","canvas-keyboard-response","410","635226","0.0-410.0","null","null","","","","","","","","","","","","","","fixation","","","2","44","","","","","","","","","",""
"","","","","","","","","","","","canvas-keyboard-response","411","635539","0.0-411.0","null","null","","","","","","","","","","","","","","stimulus","","","2","44","","","","","","","","","",""
"","","","","","","","","","","","canvas-button-response","412","637126","0.0-412.0","1585","bed","","","","","","","","","","","","","","perceptual","","","2","44","","","","","132","bed","6","0","1",""
"","","","","","","","","","","","canvas-button-response","413","637980","0.0-413.0","852","9","","","","","","","","","","","","","","confidence","","","2","44","","","","","","","","","","32"
"","","","","","","","","","","","preload","414","637981","0.0-414.0","","","","","true","","","","","","","","","","","preload","","","2","45","false","[]","[]","[]","","","","","",""
"","","","","","","","","","","","canvas-keyboard-response","415","638284","0.0-415.0","null","null","","","","","","","","","","","","","","fixation","","","2","45","","","","","","","","","",""
"","","","","","","","","","","","canvas-keyboard-response","416","638587","0.0-416.0","null","null","","","","","","","","","","","","","","stimulus","","","2","45","","","","","","","","","",""
"","","","","","","","","","","","canvas-button-response","417","640014","0.0-417.0","1425","house","","","","","","","","","","","","","","perceptual","","","2","45","","","","","218","flower","6","0","0",""
"","","","","","","","","","","","canvas-button-response","418","640682","0.0-418.0","666","0","","","","","","","","","","","","","","confidence","","","2","45","","","","","","","","","","32"
"","","","","","","","","","","","preload","419","640683","0.0-419.0","","","","","true","","","","","","","","","","","preload","","","2","46","false","[]","[]","[]","","","","","",""
"","","","","","","","","","","","canvas-keyboard-response","420","640986","0.0-420.0","null","null","","","","","","","","","","","","","","fixation","","","2","46","","","","","","","","","",""
"","","","","","","","","","","","canvas-keyboard-response","421","641291","0.0-421.0","null","null","","","","","","","","","","","","","","stimulus","","","2","46","","","","","","","","","",""
"","","","","","","","","","","","canvas-button-response","422","642000","0.0-422.0","707","flower","","","","","","","","","","","","","","perceptual","","","2","46","","","","","220","flower","10","0","1",""
"","","","","","","","","","","","canvas-button-response","423","642693","0.0-423.0","691","9","","","","","","","","","","","","","","confidence","","","2","46","","","","","","","","","","33"
"","","","","","","","","","","","preload","424","642694","0.0-424.0","","","","","true","","","","","","","","","","","preload","","","2","47","false","[]","[]","[]","","","","","",""
"","","","","","","","","","","","canvas-keyboard-response","425","643000","0.0-425.0","null","null","","","","","","","","","","","","","","fixation","","","2","47","","","","","","","","","",""
"","","","","","","","","","","","canvas-keyboard-response","426","643314","0.0-426.0","null","null","","","","","","","","","","","","","","stimulus","","","2","47","","","","","","","","","",""
"","","","","","","","","","","","canvas-button-response","427","644119","0.0-427.0","803","knife","","","","","","","","","","","","","","perceptual","","","2","47","","","","","381","knife","10","0","1",""
"","","","","","","","","","","","canvas-button-response","428","644750","0.0-428.0","630","9","","","","","","","","","","","","","","confidence","","","2","47","","","","","","","","","","34"
"","","","","","","","","","","","preload","429","644751","0.0-429.0","","","","","true","","","","","","","","","","","preload","","","2","48","false","[]","[]","[]","","","","","",""
"","","","","","","","","","","","canvas-keyboard-response","430","645054","0.0-430.0","null","null","","","","","","","","","","","","","","fixation","","","2","48","","","","","","","","","",""
"","","","","","","","","","","","canvas-keyboard-response","431","645368","0.0-431.0","null","null","","","","","","","","","","","","","","stimulus","","","2","48","","","","","","","","","",""
"","","","","","","","","","","","canvas-button-response","432","646026","0.0-432.0","656","knife","","","","","","","","","","","","","","perceptual","","","2","48","","","","","390","knife","10","0","1",""
"","","","","","","","","","","","canvas-button-response","433","646568","0.0-433.0","540","9","","","","","","","","","","","","","","confidence","","","2","48","","","","","","","","","","35"
"","","","","","","","","","","","preload","434","646569","0.0-434.0","","","","","true","","","","","","","","","","","preload","","","2","49","false","[]","[]","[]","","","","","",""
"","","","","","","","","","","","canvas-keyboard-response","435","646870","0.0-435.0","null","null","","","","","","","","","","","","","","fixation","","","2","49","","","","","","","","","",""
"","","","","","","","","","","","canvas-keyboard-response","436","647181","0.0-436.0","null","null","","","","","","","","","","","","","","stimulus","","","2","49","","","","","","","","","",""
"","","","","","","","","","","","canvas-button-response","437","647909","0.0-437.0","727","car","","","","","","","","","","","","","","perceptual","","","2","49","","","","","41","car","6","0","1",""
"","","","","","","","","","","","canvas-button-response","438","648670","0.0-438.0","758","9","","","","","","","","","","","","","","confidence","","","2","49","","","","","","","","","","36"
"","","","","","","","","","","","html-button-response","439","829565","0.0-439.0","180893","0","","","","","","","","","","","","","","<p style=""font-size:20px;color:#000000"">You got 36 out of 50 trials correct in this block.<br><br>You have completed 6% of the experiment.<br><br>Take a short break.<br><br>When you are ready, click Continue to proceed.","","","2","49","","","","","","","","","",""
"","","","","","","","","","","","html-keyboard-response","440","830577","0.0-440.0","null","null","","","","","","","","","","","","","","<p style=""font-size:32px;color:#000000""><br><br> RUN: &nbsp 1/4 <br><br> BLOCK: 2/4 ","","","2","49","","","","","","","","","",""
"","","","","","","","","","","","preload","441","830578","0.0-441.0","","","","","true","","","","","","","","","","","preload","","","2","50","false","[]","[]","[]","","","","","",""
"","","","","","","","","","","","canvas-keyboard-response","442","830891","0.0-442.0","null","null","","","","","","","","","","","","","","fixation","","","2","50","","","","","","","","","",""
"","","","","","","","","","","","canvas-keyboard-response","443","831207","0.0-443.0","null","null","","","","","","","","","","","","","","stimulus","","","2","50","","","","","","","","","",""
"","","","","","","","","","","","canvas-button-response","444","832453","0.0-444.0","1244","cat","","","","","","","","","","","","","","perceptual","","","2","50","","","","","308","cat","10","0","1",""
"","","","","","","","","","","","canvas-button-response","445","833254","0.0-445.0","799","4","","","","","","","","","","","","","","confidence","","","2","50","","","","","","","","","","1"
"","","","","","","","","","","","preload","446","833255","0.0-446.0","","","","","true","","","","","","","","","","","preload","","","2","51","false","[]","[]","[]","","","","","",""
"","","","","","","","","","","","canvas-keyboard-response","447","833560","0.0-447.0","null","null","","","","","","","","","","","","","","fixation","","","2","51","","","","","","","","","",""
"","","","","","","","","","","","canvas-keyboard-response","448","833869","0.0-448.0","null","null","","","","","","","","","","","","","","stimulus","","","2","51","","","","","","","","","",""
"","","","","","","","","","","","canvas-button-response","449","835364","0.0-449.0","1493","train","","","","","","","","","","","","","","perceptual","","","2","51","","","","","261","train","10","0","1",""
"","","","","","","","","","","","canvas-button-response","450","836090","0.0-450.0","724","2","","","","","","","","","","","","","","confidence","","","2","51","","","","","","","","","","2"
"","","","","","","","","","","","preload","451","836091","0.0-451.0","","","","","true","","","","","","","","","","","preload","","","2","52","false","[]","[]","[]","","","","","",""
"","","","","","","","","","","","canvas-keyboard-response","452","836402","0.0-452.0","null","null","","","","","","","","","","","","","","fixation","","","2","52","","","","","","","","","",""
"","","","","","","","","","","","canvas-keyboard-response","453","836714","0.0-453.0","null","null","","","","","","","","","","","","","","stimulus","","","2","52","","","","","","","","","",""
"","","","","","","","","","","","canvas-button-response","454","837479","0.0-454.0","763","car","","","","","","","","","","","","","","perceptual","","","2","52","","","","","44","car","6","0","1",""
"","","","","","","","","","","","canvas-button-response","455","838663","0.0-455.0","1181","9","","","","","","","","","","","","","","confidence","","","2","52","","","","","","","","","","3"
"","","","","","","","","","","","preload","456","838664","0.0-456.0","","","","","true","","","","","","","","","","","preload","","","2","53","false","[]","[]","[]","","","","","",""
"","","","","","","","","","","","canvas-keyboard-response","457","838974","0.0-457.0","null","null","","","","","","","","","","","","","","fixation","","","2","53","","","","","","","","","",""
"","","","","","","","","","","","canvas-keyboard-response","458","839286","0.0-458.0","null","null","","","","","","","","","","","","","","stimulus","","","2","53","","","","","","","","","",""
"","","","","","","","","","","","canvas-button-response","459","840043","0.0-459.0","755","cat","","","","","","","","","","","","","","perceptual","","","2","53","","","","","284","cat","6","0","1",""
"","","","","","","","","","","","canvas-button-response","460","840711","0.0-460.0","665","8","","","","","","","","","","","","","","confidence","","","2","53","","","","","","","","","","4"
"","","","","","","","","","","","preload","461","840712","0.0-461.0","","","","","true","","","","","","","","","","","preload","","","2","54","false","[]","[]","[]","","","","","",""
"","","","","","","","","","","","canvas-keyboard-response","462","841022","0.0-462.0","null","null","","","","","","","","","","","","","","fixation","","","2","54","","","","","","","","","",""
"","","","","","","","","","","","canvas-keyboard-response","463","841336","0.0-463.0","null","null","","","","","","","","","","","","","","stimulus","","","2","54","","","","","","","","","",""
"","","","","","","","","","","","canvas-button-response","464","843129","0.0-464.0","1790","bed","","","","","","","","","","","","","","perceptual","","","2","54","","","","","139","bed","6","0","1",""
"","","","","","","","","","","","canvas-button-response","465","843739","0.0-465.0","608","4","","","","","","","","","","","","","","confidence","","","2","54","","","","","","","","","","5"
"","","","","","","","","","","","preload","466","843740","0.0-466.0","","","","","true","","","","","","","","","","","preload","","","2","55","false","[]","[]","[]","","","","","",""
"","","","","","","","","","","","canvas-keyboard-response","467","844053","0.0-467.0","null","null","","","","","","","","","","","","","","fixation","","","2","55","","","","","","","","","",""
"","","","","","","","","","","","canvas-keyboard-response","468","844367","0.0-468.0","null","null","","","","","","","","","","","","","","stimulus","","","2","55","","","","","","","","","",""
"","","","","","","","","","","","canvas-button-response","469","845317","0.0-469.0","948","train","","","","","","","","","","","","","","perceptual","","","2","55","","","","","240","train","6","0","1",""
"","","","","","","","","","","","canvas-button-response","470","845828","0.0-470.0","509","7","","","","","","","","","","","","","","confidence","","","2","55","","","","","","","","","","6"
"","","","","","","","","","","","preload","471","845829","0.0-471.0","","","","","true","","","","","","","","","","","preload","","","2","56","false","[]","[]","[]","","","","","",""
"","","","","","","","","","","","canvas-keyboard-response","472","846141","0.0-472.0","null","null","","","","","","","","","","","","","","fixation","","","2","56","","","","","","","","","",""
"","","","","","","","","","","","canvas-keyboard-response","473","846454","0.0-473.0","null","null","","","","","","","","","","","","","","stimulus","","","2","56","","","","","","","","","",""
"","","","","","","","","","","","canvas-button-response","474","847387","0.0-474.0","931","train","","","","","","","","","","","","","","perceptual","","","2","56","","","","","182","bridge","10","0","0",""
"","","","","","","","","","","","canvas-button-response","475","847866","0.0-475.0","477","6","","","","","","","","","","","","","","confidence","","","2","56","","","","","","","","","","6"
"","","","","","","","","","","","preload","476","847867","0.0-476.0","","","","","true","","","","","","","","","","","preload","","","2","57","false","[]","[]","[]","","","","","",""
"","","","","","","","","","","","canvas-keyboard-response","477","848173","0.0-477.0","null","null","","","","","","","","","","","","","","fixation","","","2","57","","","","","","","","","",""
"","","","","","","","","","","","canvas-keyboard-response","478","848482","0.0-478.0","null","null","","","","","","","","","","","","","","stimulus","","","2","57","","","","","","","","","",""
"","","","","","","","","","","","canvas-button-response","479","849255","0.0-479.0","771","train","","","","","","","","","","","","","","perceptual","","","2","57","","","","","250","train","6","0","1",""
"","","","","","","","","","","","canvas-button-response","480","849675","0.0-480.0","418","7","","","","","","","","","","","","","","confidence","","","2","57","","","","","","","","","","7"
"","","","","","","","","","","","preload","481","849675","0.0-481.0","","","","","true","","","","","","","","","","","preload","","","2","58","false","[]","[]","[]","","","","","",""
"","","","","","","","","","","","canvas-keyboard-response","482","849977","0.0-482.0","null","null","","","","","","","","","","","","","","fixation","","","2","58","","","","","","","","","",""
"","","","","","","","","","","","canvas-keyboard-response","483","850292","0.0-483.0","null","null","","","","","","","","","","","","","","stimulus","","","2","58","","","","","","","","","",""
"","","","","","","","","","","","canvas-button-response","484","851630","0.0-484.0","1336","elephant","","","","","","","","","","","","","","perceptual","","","2","58","","","","","354","elephant","10","0","1",""
"","","","","","","","","","","","canvas-button-response","485","852945","0.0-485.0","1313","2","","","","","","","","","","","","","","confidence","","","2","58","","","","","","","","","","8"
"","","","","","","","","","","","preload","486","852945","0.0-486.0","","","","","true","","","","","","","","","","","preload","","","2","59","false","[]","[]","[]","","","","","",""
"","","","","","","","","","","","canvas-keyboard-response","487","853249","0.0-487.0","null","null","","","","","","","","","","","","","","fixation","","","2","59","","","","","","","","","",""
"","","","","","","","","","","","canvas-keyboard-response","488","853560","0.0-488.0","null","null","","","","","","","","","","","","","","stimulus","","","2","59","","","","","","","","","",""
"","","","","","","","","","","","canvas-button-response","489","854590","0.0-489.0","1028","cat","","","","","","","","","","","","","","perceptual","","","2","59","","","","","302","cat","10","0","1",""
"","","","","","","","","","","","canvas-button-response","490","855274","0.0-490.0","682","3","","","","","","","","","","","","","","confidence","","","2","59","","","","","","","","","","9"
"","","","","","","","","","","","preload","491","855275","0.0-491.0","","","","","true","","","","","","","","","","","preload","","","2","60","false","[]","[]","[]","","","","","",""
"","","","","","","","","","","","canvas-keyboard-response","492","855587","0.0-492.0","null","null","","","","","","","","","","","","","","fixation","","","2","60","","","","","","","","","",""
