"width","height","webaudio","browser","browser_version","mobile","os","fullscreen","vsync_rate","webcam","microphone","trial_type","trial_index","time_elapsed","internal_node_id","rt","response","accuracy","view_history","success","item_width_mm","item_height_mm","item_width_px","px2mm","view_dist_mm","item_width_deg","px2deg","scale_factor","win_width_deg","win_height_deg","stimulus","datetime","subjectID","curr_triallist","trial_no","timeout","failed_images","failed_audio","failed_video","image_index","category","blur","reps","correct","running_score"
"1470","798","true","chrome","140.0.0","false","Mac OS","true","60","true","true","browser-check","0","1016","0.0-0.0","","","","","","","","","","","","","","","","","","","","","","","","","","","","","",""
"","","","","","","","","","","","survey","1","22540","0.0-1.0","21485","{""P0_Q0"":""903765166"",""P0_Q1"":""20"",""P1_Q0"":""Male"",""P1_Q1"":""Not Hispanic or Latino"",""P1_Q2"":""Asian"",""P1_Q3"":""Normal"",""P1_Q4"":""Right-Handed""}","[]","","","","","","","","","","","","","","","","","","","","","","","","","","",""
"","","","","","","","","","","","instructions","2","120901","0.0-2.0","98359","","","[{""page_index"":0,""viewing_time"":8146},{""page_index"":1,""viewing_time"":1051},{""page_index"":0,""viewing_time"":33594},{""page_index"":1,""viewing_time"":28923},{""page_index"":2,""viewing_time"":19600},{""page_index"":3,""viewing_time"":7044}]","","","","","","","","","","","","","","","","","","","","","","","","","",""
"","","","","","","","","","","","fullscreen","3","123475","0.0-3.0","1568","","","","true","","","","","","","","","","","","","","","","","","","","","","","","",""
"","","","","","","","","","","","virtual-chinrest","4","224796","0.0-4.0","101315","","","","","85.6","53.98","207.92634002640216","2.427396951225658","706.77","6.930878000880073","29.999999999999996","2.0968964294982415","49.00000000000001","30.66666666666667","","","","","","","","","","","","","","",""
"","","","","","","","","","","","instructions","5","334363","0.0-5.0","109564","","","[{""page_index"":0,""viewing_time"":8696},{""page_index"":1,""viewing_time"":5087},{""page_index"":2,""viewing_time"":924},{""page_index"":1,""viewing_time"":457},{""page_index"":0,""viewing_time"":6033},{""page_index"":1,""viewing_time"":2561},{""page_index"":2,""viewing_time"":2272},{""page_index"":1,""viewing_time"":225},{""page_index"":0,""viewing_time"":8457},{""page_index"":1,""viewing_time"":2008},{""page_index"":2,""viewing_time"":6967},{""page_index"":3,""viewing_time"":13916},{""page_index"":4,""viewing_time"":21367},{""page_index"":5,""viewing_time"":26353},{""page_index"":6,""viewing_time"":4245}]","","","","","","","","","","","","","","","","","","","","","","","","","",""
"","","","","","","","","","","","html-button-response","6","342303","0.0-6.0","7932","0","","","","","","","","","","","","","","start_practice","Mon Oct 13 2025 16:57:05 GMT-0400 (Eastern Daylight Time)","27293","","","","","","","","","","","",""
"","","","","","","","","","","","preload","7","342305","0.0-7.0","","","","","true","","","","","","","","","","","preload","","","0","0","false","[]","[]","[]","","","","","",""
"","","","","","","","","","","","canvas-keyboard-response","8","342612","0.0-8.0","null","null","","","","","","","","","","","","","","fixation","","","0","0","","","","","","","","","",""
"","","","","","","","","","","","canvas-keyboard-response","9","342916","0.0-9.0","null","null","","","","","","","","","","","","","","stimulus","","","0","0","","","","","","","","","",""
"","","","","","","","","","","","canvas-button-response","10","345988","0.0-10.0","3068","car","","","","","","","","","","","","","","perceptual","","","0","0","","","","","12","car","1","","1",""
"","","","","","","","","","","","canvas-button-response","11","347535","0.0-11.0","1544","10","","","","","","","","","","","","","","confidence","","","0","0","","","","","","","","","","1"
"","","","","","","","","","","","html-keyboard-response","12","348538","0.0-12.0","null","null","","","","","","","","","","","","","","feedback","Mon Oct 13 2025 16:57:18 GMT-0400 (Eastern Daylight Time)","27293","0","0","","","","","","","","","",""
"","","","","","","","","","","","preload","13","348539","0.0-13.0","","","","","true","","","","","","","","","","","preload","","","0","1","false","[]","[]","[]","","","","","",""
"","","","","","","","","","","","canvas-keyboard-response","14","348842","0.0-14.0","null","null","","","","","","","","","","","","","","fixation","","","0","1","","","","","","","","","",""
"","","","","","","","","","","","canvas-keyboard-response","15","349144","0.0-15.0","null","null","","","","","","","","","","","","","","stimulus","","","0","1","","","","","","","","","",""
"","","","","","","","","","","","canvas-button-response","16","350207","0.0-16.0","1061","bridge","","","","","","","","","","","","","","perceptual","","","0","1","","","","","42","bridge","1","","1",""
"","","","","","","","","","","","canvas-button-response","17","351145","0.0-17.0","936","10","","","","","","","","","","","","","","confidence","","","0","1","","","","","","","","","","2"
"","","","","","","","","","","","html-keyboard-response","18","352146","0.0-18.0","null","null","","","","","","","","","","","","","","feedback","Mon Oct 13 2025 16:57:22 GMT-0400 (Eastern Daylight Time)","27293","0","1","","","","","","","","","",""
"","","","","","","","","","","","preload","19","352147","0.0-19.0","","","","","true","","","","","","","","","","","preload","","","0","2","false","[]","[]","[]","","","","","",""
"","","","","","","","","","","","canvas-keyboard-response","20","352452","0.0-20.0","null","null","","","","","","","","","","","","","","fixation","","","0","2","","","","","","","","","",""
"","","","","","","","","","","","canvas-keyboard-response","21","352754","0.0-21.0","null","null","","","","","","","","","","","","","","stimulus","","","0","2","","","","","","","","","",""
"","","","","","","","","","","","canvas-button-response","22","355419","0.0-22.0","2663","house","","","","","","","","","","","","","","perceptual","","","0","2","","","","","52","flower","1","","0",""
"","","","","","","","","","","","canvas-button-response","23","356904","0.0-23.0","1482","6","","","","","","","","","","","","","","confidence","","","0","2","","","","","","","","","","2"
"","","","","","","","","","","","html-keyboard-response","24","357908","0.0-24.0","null","null","","","","","","","","","","","","","","feedback","Mon Oct 13 2025 16:57:27 GMT-0400 (Eastern Daylight Time)","27293","0","2","","","","","","","","","",""
"","","","","","","","","","","","preload","25","357909","0.0-25.0","","","","","true","","","","","","","","","","","preload","","","0","3","false","[]","[]","[]","","","","","",""
"","","","","","","","","","","","canvas-keyboard-response","26","358212","0.0-26.0","null","null","","","","","","","","","","","","","","fixation","","","0","3","","","","","","","","","",""
"","","","","","","","","","","","canvas-keyboard-response","27","358515","0.0-27.0","null","null","","","","","","","","","","","","","","stimulus","","","0","3","","","","","","","","","",""
"","","","","","","","","","","","canvas-button-response","28","365378","0.0-28.0","6859","knife","","","","","","","","","","","","","","perceptual","","","0","3","","","","","92","knife","1","","1",""
"","","","","","","","","","","","canvas-button-response","29","366050","0.0-29.0","670","5","","","","","","","","","","","","","","confidence","","","0","3","","","","","","","","","","3"
"","","","","","","","","","","","html-keyboard-response","30","367053","0.0-30.0","null","null","","","","","","","","","","","","","","feedback","Mon Oct 13 2025 16:57:36 GMT-0400 (Eastern Daylight Time)","27293","0","3","","","","","","","","","",""
"","","","","","","","","","","","preload","31","367054","0.0-31.0","","","","","true","","","","","","","","","","","preload","","","0","4","false","[]","[]","[]","","","","","",""
"","","","","","","","","","","","canvas-keyboard-response","32","367357","0.0-32.0","null","null","","","","","","","","","","","","","","fixation","","","0","4","","","","","","","","","",""
"","","","","","","","","","","","canvas-keyboard-response","33","367661","0.0-33.0","null","null","","","","","","","","","","","","","","stimulus","","","0","4","","","","","","","","","",""
"","","","","","","","","","","","canvas-button-response","34","368691","0.0-34.0","1028","phone","","","","","","","","","","","","","","perceptual","","","0","4","","","","","22","phone","1","","1",""
"","","","","","","","","","","","canvas-button-response","35","369628","0.0-35.0","934","10","","","","","","","","","","","","","","confidence","","","0","4","","","","","","","","","","4"
"","","","","","","","","","","","html-keyboard-response","36","370631","0.0-36.0","null","null","","","","","","","","","","","","","","feedback","Mon Oct 13 2025 16:57:40 GMT-0400 (Eastern Daylight Time)","27293","0","4","","","","","","","","","",""
"","","","","","","","","","","","preload","37","370633","0.0-37.0","","","","","true","","","","","","","","","","","preload","","","0","5","false","[]","[]","[]","","","","","",""
"","","","","","","","","","","","canvas-keyboard-response","38","370936","0.0-38.0","null","null","","","","","","","","","","","","","","fixation","","","0","5","","","","","","","","","",""
"","","","","","","","","","","","canvas-keyboard-response","39","371238","0.0-39.0","null","null","","","","","","","","","","","","","","stimulus","","","0","5","","","","","","","","","",""
"","","","","","","","","","","","canvas-button-response","40","372790","0.0-40.0","1549","elephant","","","","","","","","","","","","","","perceptual","","","0","5","","","","","82","elephant","1","","1",""
"","","","","","","","","","","","canvas-button-response","41","373608","0.0-41.0","815","7","","","","","","","","","","","","","","confidence","","","0","5","","","","","","","","","","5"
"","","","","","","","","","","","html-keyboard-response","42","374611","0.0-42.0","null","null","","","","","","","","","","","","","","feedback","Mon Oct 13 2025 16:57:44 GMT-0400 (Eastern Daylight Time)","27293","0","5","","","","","","","","","",""
"","","","","","","","","","","","preload","43","374611","0.0-43.0","","","","","true","","","","","","","","","","","preload","","","0","6","false","[]","[]","[]","","","","","",""
"","","","","","","","","","","","canvas-keyboard-response","44","374914","0.0-44.0","null","null","","","","","","","","","","","","","","fixation","","","0","6","","","","","","","","","",""
"","","","","","","","","","","","canvas-keyboard-response","45","375218","0.0-45.0","null","null","","","","","","","","","","","","","","stimulus","","","0","6","","","","","","","","","",""
"","","","","","","","","","","","canvas-button-response","46","376203","0.0-46.0","982","cat","","","","","","","","","","","","","","perceptual","","","0","6","","","","","72","cat","1","","1",""
"","","","","","","","","","","","canvas-button-response","47","377045","0.0-47.0","840","10","","","","","","","","","","","","","","confidence","","","0","6","","","","","","","","","","6"
"","","","","","","","","","","","html-keyboard-response","48","378049","0.0-48.0","null","null","","","","","","","","","","","","","","feedback","Mon Oct 13 2025 16:57:47 GMT-0400 (Eastern Daylight Time)","27293","0","6","","","","","","","","","",""
"","","","","","","","","","","","preload","49","378050","0.0-49.0","","","","","true","","","","","","","","","","","preload","","","0","7","false","[]","[]","[]","","","","","",""
"","","","","","","","","","","","canvas-keyboard-response","50","378353","0.0-50.0","null","null","","","","","","","","","","","","","","fixation","","","0","7","","","","","","","","","",""
"","","","","","","","","","","","canvas-keyboard-response","51","378657","0.0-51.0","null","null","","","","","","","","","","","","","","stimulus","","","0","7","","","","","","","","","",""
"","","","","","","","","","","","canvas-button-response","52","379765","0.0-52.0","1105","house","","","","","","","","","","","","","","perceptual","","","0","7","","","","","2","house","1","","1",""
"","","","","","","","","","","","canvas-button-response","53","380591","0.0-53.0","823","10","","","","","","","","","","","","","","confidence","","","0","7","","","","","","","","","","7"
"","","","","","","","","","","","html-keyboard-response","54","381594","0.0-54.0","null","null","","","","","","","","","","","","","","feedback","Mon Oct 13 2025 16:57:51 GMT-0400 (Eastern Daylight Time)","27293","0","7","","","","","","","","","",""
"","","","","","","","","","","","preload","55","381596","0.0-55.0","","","","","true","","","","","","","","","","","preload","","","0","8","false","[]","[]","[]","","","","","",""
"","","","","","","","","","","","canvas-keyboard-response","56","381899","0.0-56.0","null","null","","","","","","","","","","","","","","fixation","","","0","8","","","","","","","","","",""
"","","","","","","","","","","","canvas-keyboard-response","57","382202","0.0-57.0","null","null","","","","","","","","","","","","","","stimulus","","","0","8","","","","","","","","","",""
"","","","","","","","","","","","canvas-button-response","58","383096","0.0-58.0","890","train","","","","","","","","","","","","","","perceptual","","","0","8","","","","","62","train","1","","1",""
"","","","","","","","","","","","canvas-button-response","59","383676","0.0-59.0","577","10","","","","","","","","","","","","","","confidence","","","0","8","","","","","","","","","","8"
"","","","","","","","","","","","html-keyboard-response","60","384679","0.0-60.0","null","null","","","","","","","","","","","","","","feedback","Mon Oct 13 2025 16:57:54 GMT-0400 (Eastern Daylight Time)","27293","0","8","","","","","","","","","",""
"","","","","","","","","","","","preload","61","384680","0.0-61.0","","","","","true","","","","","","","","","","","preload","","","0","9","false","[]","[]","[]","","","","","",""
"","","","","","","","","","","","canvas-keyboard-response","62","384983","0.0-62.0","null","null","","","","","","","","","","","","","","fixation","","","0","9","","","","","","","","","",""
"","","","","","","","","","","","canvas-keyboard-response","63","385286","0.0-63.0","null","null","","","","","","","","","","","","","","stimulus","","","0","9","","","","","","","","","",""
"","","","","","","","","","","","canvas-button-response","64","386906","0.0-64.0","1617","bed","","","","","","","","","","","","","","perceptual","","","0","9","","","","","32","bed","1","","1",""
"","","","","","","","","","","","canvas-button-response","65","388301","0.0-65.0","1394","10","","","","","","","","","","","","","","confidence","","","0","9","","","","","","","","","","9"
"","","","","","","","","","","","html-keyboard-response","66","389303","0.0-66.0","null","null","","","","","","","","","","","","","","feedback","Mon Oct 13 2025 16:57:59 GMT-0400 (Eastern Daylight Time)","27293","0","9","","","","","","","","","",""
"","","","","","","","","","","","html-button-response","67","394363","0.0-67.0","5056","0","","","","","","","","","","","","","","start_practice","Mon Oct 13 2025 16:58:00 GMT-0400 (Eastern Daylight Time)","27293","0","9","","","","","","","","","",""
"","","","","","","","","","","","preload","68","394365","0.0-68.0","","","","","true","","","","","","","","","","","preload","","","1","0","false","[]","[]","[]","","","","","",""
"","","","","","","","","","","","canvas-keyboard-response","69","394668","0.0-69.0","null","null","","","","","","","","","","","","","","fixation","","","1","0","","","","","","","","","",""
"","","","","","","","","","","","canvas-keyboard-response","70","394971","0.0-70.0","null","null","","","","","","","","","","","","","","stimulus","","","1","0","","","","","","","","","",""
"","","","","","","","","","","","canvas-button-response","71","396227","0.0-71.0","1254","house","","","","","","","","","","","","","","perceptual","","","1","0","","","","","7","house","10","","1",""
"","","","","","","","","","","","canvas-button-response","72","397116","0.0-72.0","886","5","","","","","","","","","","","","","","confidence","","","1","0","","","","","","","","","","1"
"","","","","","","","","","","","html-keyboard-response","73","398119","0.0-73.0","null","null","","","","","","","","","","","","","","feedback","Mon Oct 13 2025 16:58:08 GMT-0400 (Eastern Daylight Time)","27293","1","0","","","","","","","","","",""
"","","","","","","","","","","","preload","74","398120","0.0-74.0","","","","","true","","","","","","","","","","","preload","","","1","1","false","[]","[]","[]","","","","","",""
"","","","","","","","","","","","canvas-keyboard-response","75","398423","0.0-75.0","null","null","","","","","","","","","","","","","","fixation","","","1","1","","","","","","","","","",""
"","","","","","","","","","","","canvas-keyboard-response","76","398727","0.0-76.0","null","null","","","","","","","","","","","","","","stimulus","","","1","1","","","","","","","","","",""
"","","","","","","","","","","","canvas-button-response","77","403371","0.0-77.0","4641","house","","","","","","","","","","","","","","perceptual","","","1","1","","","","","77","cat","10","","0",""
"","","","","","","","","","","","canvas-button-response","78","404593","0.0-78.0","1220","2","","","","","","","","","","","","","","confidence","","","1","1","","","","","","","","","","1"
"","","","","","","","","","","","html-keyboard-response","79","405596","0.0-79.0","null","null","","","","","","","","","","","","","","feedback","Mon Oct 13 2025 16:58:15 GMT-0400 (Eastern Daylight Time)","27293","1","1","","","","","","","","","",""
"","","","","","","","","","","","preload","80","405597","0.0-80.0","","","","","true","","","","","","","","","","","preload","","","1","2","false","[]","[]","[]","","","","","",""
"","","","","","","","","","","","canvas-keyboard-response","81","405901","0.0-81.0","null","null","","","","","","","","","","","","","","fixation","","","1","2","","","","","","","","","",""
"","","","","","","","","","","","canvas-keyboard-response","82","406204","0.0-82.0","null","null","","","","","","","","","","","","","","stimulus","","","1","2","","","","","","","","","",""
"","","","","","","","","","","","canvas-button-response","83","407172","0.0-83.0","965","flower","","","","","","","","","","","","","","perceptual","","","1","2","","","","","57","flower","10","","1",""
"","","","","","","","","","","","canvas-button-response","84","408298","0.0-84.0","1124","7","","","","","","","","","","","","","","confidence","","","1","2","","","","","","","","","","2"
"","","","","","","","","","","","html-keyboard-response","85","409301","0.0-85.0","null","null","","","","","","","","","","","","","","feedback","Mon Oct 13 2025 16:58:19 GMT-0400 (Eastern Daylight Time)","27293","1","2","","","","","","","","","",""
"","","","","","","","","","","","preload","86","409302","0.0-86.0","","","","","true","","","","","","","","","","","preload","","","1","3","false","[]","[]","[]","","","","","",""
"","","","","","","","","","","","canvas-keyboard-response","87","409605","0.0-87.0","null","null","","","","","","","","","","","","","","fixation","","","1","3","","","","","","","","","",""
"","","","","","","","","","","","canvas-keyboard-response","88","409908","0.0-88.0","null","null","","","","","","","","","","","","","","stimulus","","","1","3","","","","","","","","","",""
"","","","","","","","","","","","canvas-button-response","89","411207","0.0-89.0","1296","cat","","","","","","","","","","","","","","perceptual","","","1","3","","","","","74","cat","6","","1",""
"","","","","","","","","","","","canvas-button-response","90","411939","0.0-90.0","730","9","","","","","","","","","","","","","","confidence","","","1","3","","","","","","","","","","3"
"","","","","","","","","","","","html-keyboard-response","91","412942","0.0-91.0","null","null","","","","","","","","","","","","","","feedback","Mon Oct 13 2025 16:58:22 GMT-0400 (Eastern Daylight Time)","27293","1","3","","","","","","","","","",""
"","","","","","","","","","","","preload","92","412944","0.0-92.0","","","","","true","","","","","","","","","","","preload","","","1","4","false","[]","[]","[]","","","","","",""
"","","","","","","","","","","","canvas-keyboard-response","93","413247","0.0-93.0","null","null","","","","","","","","","","","","","","fixation","","","1","4","","","","","","","","","",""
"","","","","","","","","","","","canvas-keyboard-response","94","413550","0.0-94.0","null","null","","","","","","","","","","","","","","stimulus","","","1","4","","","","","","","","","",""
"","","","","","","","","","","","canvas-button-response","95","414401","0.0-95.0","849","house","","","","","","","","","","","","","","perceptual","","","1","4","","","","","4","house","6","","1",""
"","","","","","","","","","","","canvas-button-response","96","415267","0.0-96.0","863","10","","","","","","","","","","","","","","confidence","","","1","4","","","","","","","","","","4"
"","","","","","","","","","","","html-keyboard-response","97","416270","0.0-97.0","null","null","","","","","","","","","","","","","","feedback","Mon Oct 13 2025 16:58:26 GMT-0400 (Eastern Daylight Time)","27293","1","4","","","","","","","","","",""
"","","","","","","","","","","","preload","98","416272","0.0-98.0","","","","","true","","","","","","","","","","","preload","","","1","5","false","[]","[]","[]","","","","","",""
"","","","","","","","","","","","canvas-keyboard-response","99","416575","0.0-99.0","null","null","","","","","","","","","","","","","","fixation","","","1","5","","","","","","","","","",""
"","","","","","","","","","","","canvas-keyboard-response","100","416878","0.0-100.0","null","null","","","","","","","","","","","","","","stimulus","","","1","5","","","","","","","","","",""
"","","","","","","","","","","","canvas-button-response","101","418144","0.0-101.0","1264","phone","","","","","","","","","","","","","","perceptual","","","1","5","","","","","24","phone","6","","1",""
"","","","","","","","","","","","canvas-button-response","102","418764","0.0-102.0","618","7","","","","","","","","","","","","","","confidence","","","1","5","","","","","","","","","","5"
"","","","","","","","","","","","html-keyboard-response","103","419768","0.0-103.0","null","null","","","","","","","","","","","","","","feedback","Mon Oct 13 2025 16:58:29 GMT-0400 (Eastern Daylight Time)","27293","1","5","","","","","","","","","",""
"","","","","","","","","","","","preload","104","419769","0.0-104.0","","","","","true","","","","","","","","","","","preload","","","1","6","false","[]","[]","[]","","","","","",""
"","","","","","","","","","","","canvas-keyboard-response","105","420071","0.0-105.0","null","null","","","","","","","","","","","","","","fixation","","","1","6","","","","","","","","","",""
"","","","","","","","","","","","canvas-keyboard-response","106","420375","0.0-106.0","null","null","","","","","","","","","","","","","","stimulus","","","1","6","","","","","","","","","",""
"","","","","","","","","","","","canvas-button-response","107","423364","0.0-107.0","2987","house","","","","","","","","","","","","","","perceptual","","","1","6","","","","","17","car","10","","0",""
"","","","","","","","","","","","canvas-button-response","108","424817","0.0-108.0","1450","0","","","","","","","","","","","","","","confidence","","","1","6","","","","","","","","","","5"
"","","","","","","","","","","","html-keyboard-response","109","425820","0.0-109.0","null","null","","","","","","","","","","","","","","feedback","Mon Oct 13 2025 16:58:35 GMT-0400 (Eastern Daylight Time)","27293","1","6","","","","","","","","","",""
"","","","","","","","","","","","preload","110","425821","0.0-110.0","","","","","true","","","","","","","","","","","preload","","","1","7","false","[]","[]","[]","","","","","",""
"","","","","","","","","","","","canvas-keyboard-response","111","426124","0.0-111.0","null","null","","","","","","","","","","","","","","fixation","","","1","7","","","","","","","","","",""
"","","","","","","","","","","","canvas-keyboard-response","112","426427","0.0-112.0","null","null","","","","","","","","","","","","","","stimulus","","","1","7","","","","","","","","","",""
"","","","","","","","","","","","canvas-button-response","113","427569","0.0-113.0","1140","train","","","","","","","","","","","","","","perceptual","","","1","7","","","","","67","train","10","","1",""
"","","","","","","","","","","","canvas-button-response","114","428346","0.0-114.0","774","2","","","","","","","","","","","","","","confidence","","","1","7","","","","","","","","","","6"
"","","","","","","","","","","","html-keyboard-response","115","429350","0.0-115.0","null","null","","","","","","","","","","","","","","feedback","Mon Oct 13 2025 16:58:39 GMT-0400 (Eastern Daylight Time)","27293","1","7","","","","","","","","","",""
"","","","","","","","","","","","preload","116","429351","0.0-116.0","","","","","true","","","","","","","","","","","preload","","","1","8","false","[]","[]","[]","","","","","",""
"","","","","","","","","","","","canvas-keyboard-response","117","429653","0.0-117.0","null","null","","","","","","","","","","","","","","fixation","","","1","8","","","","","","","","","",""
"","","","","","","","","","","","canvas-keyboard-response","118","429956","0.0-118.0","null","null","","","","","","","","","","","","","","stimulus","","","1","8","","","","","","","","","",""
"","","","","","","","","","","","canvas-button-response","119","432087","0.0-119.0","2129","knife","","","","","","","","","","","","","","perceptual","","","1","8","","","","","27","phone","10","","0",""
"","","","","","","","","","","","canvas-button-response","120","432690","0.0-120.0","601","0","","","","","","","","","","","","","","confidence","","","1","8","","","","","","","","","","6"
"","","","","","","","","","","","html-keyboard-response","121","433693","0.0-121.0","null","null","","","","","","","","","","","","","","feedback","Mon Oct 13 2025 16:58:43 GMT-0400 (Eastern Daylight Time)","27293","1","8","","","","","","","","","",""
"","","","","","","","","","","","preload","122","433694","0.0-122.0","","","","","true","","","","","","","","","","","preload","","","1","9","false","[]","[]","[]","","","","","",""
"","","","","","","","","","","","canvas-keyboard-response","123","433997","0.0-123.0","null","null","","","","","","","","","","","","","","fixation","","","1","9","","","","","","","","","",""
"","","","","","","","","","","","canvas-keyboard-response","124","434300","0.0-124.0","null","null","","","","","","","","","","","","","","stimulus","","","1","9","","","","","","","","","",""
"","","","","","","","","","","","canvas-button-response","125","435482","0.0-125.0","1180","train","","","","","","","","","","","","","","perceptual","","","1","9","","","","","97","knife","10","","0",""
"","","","","","","","","","","","canvas-button-response","126","436109","0.0-126.0","624","4","","","","","","","","","","","","","","confidence","","","1","9","","","","","","","","","","6"
"","","","","","","","","","","","html-keyboard-response","127","437112","0.0-127.0","null","null","","","","","","","","","","","","","","feedback","Mon Oct 13 2025 16:58:47 GMT-0400 (Eastern Daylight Time)","27293","1","9","","","","","","","","","",""
"","","","","","","","","","","","preload","128","437113","0.0-128.0","","","","","true","","","","","","","","","","","preload","","","1","10","false","[]","[]","[]","","","","","",""
"","","","","","","","","","","","canvas-keyboard-response","129","437416","0.0-129.0","null","null","","","","","","","","","","","","","","fixation","","","1","10","","","","","","","","","",""
"","","","","","","","","","","","canvas-keyboard-response","130","437719","0.0-130.0","null","null","","","","","","","","","","","","","","stimulus","","","1","10","","","","","","","","","",""
"","","","","","","","","","","","canvas-button-response","131","438964","0.0-131.0","1242","flower","","","","","","","","","","","","","","perceptual","","","1","10","","","","","54","flower","6","","1",""
"","","","","","","","","","","","canvas-button-response","132","439877","0.0-132.0","911","8","","","","","","","","","","","","","","confidence","","","1","10","","","","","","","","","","7"
"","","","","","","","","","","","html-keyboard-response","133","440880","0.0-133.0","null","null","","","","","","","","","","","","","","feedback","Mon Oct 13 2025 16:58:50 GMT-0400 (Eastern Daylight Time)","27293","1","10","","","","","","","","","",""
"","","","","","","","","","","","preload","134","440881","0.0-134.0","","","","","true","","","","","","","","","","","preload","","","1","11","false","[]","[]","[]","","","","","",""
"","","","","","","","","","","","canvas-keyboard-response","135","441184","0.0-135.0","null","null","","","","","","","","","","","","","","fixation","","","1","11","","","","","","","","","",""
"","","","","","","","","","","","canvas-keyboard-response","136","441487","0.0-136.0","null","null","","","","","","","","","","","","","","stimulus","","","1","11","","","","","","","","","",""
"","","","","","","","","","","","canvas-button-response","137","444694","0.0-137.0","3204","train","","","","","","","","","","","","","","perceptual","","","1","11","","","","","44","bridge","6","","0",""
"","","","","","","","","","","","canvas-button-response","138","445845","0.0-138.0","1148","1","","","","","","","","","","","","","","confidence","","","1","11","","","","","","","","","","7"
"","","","","","","","","","","","html-keyboard-response","139","446849","0.0-139.0","null","null","","","","","","","","","","","","","","feedback","Mon Oct 13 2025 16:58:56 GMT-0400 (Eastern Daylight Time)","27293","1","11","","","","","","","","","",""
"","","","","","","","","","","","preload","140","446850","0.0-140.0","","","","","true","","","","","","","","","","","preload","","","1","12","false","[]","[]","[]","","","","","",""
"","","","","","","","","","","","canvas-keyboard-response","141","447153","0.0-141.0","null","null","","","","","","","","","","","","","","fixation","","","1","12","","","","","","","","","",""
"","","","","","","","","","","","canvas-keyboard-response","142","447456","0.0-142.0","null","null","","","","","","","","","","","","","","stimulus","","","1","12","","","","","","","","","",""
"","","","","","","","","","","","canvas-button-response","143","450528","0.0-143.0","3069","bed","","","","","","","","","","","","","","perceptual","","","1","12","","","","","94","knife","6","","0",""
"","","","","","","","","","","","canvas-button-response","144","451281","0.0-144.0","751","4","","","","","","","","","","","","","","confidence","","","1","12","","","","","","","","","","7"
"","","","","","","","","","","","html-keyboard-response","145","452284","0.0-145.0","null","null","","","","","","","","","","","","","","feedback","Mon Oct 13 2025 16:59:02 GMT-0400 (Eastern Daylight Time)","27293","1","12","","","","","","","","","",""
"","","","","","","","","","","","preload","146","452286","0.0-146.0","","","","","true","","","","","","","","","","","preload","","","1","13","false","[]","[]","[]","","","","","",""
"","","","","","","","","","","","canvas-keyboard-response","147","452589","0.0-147.0","null","null","","","","","","","","","","","","","","fixation","","","1","13","","","","","","","","","",""
"","","","","","","","","","","","canvas-keyboard-response","148","452892","0.0-148.0","null","null","","","","","","","","","","","","","","stimulus","","","1","13","","","","","","","","","",""
"","","","","","","","","","","","canvas-button-response","149","453889","0.0-149.0","994","train","","","","","","","","","","","","","","perceptual","","","1","13","","","","","64","train","6","","1",""
"","","","","","","","","","","","canvas-button-response","150","454444","0.0-150.0","553","8","","","","","","","","","","","","","","confidence","","","1","13","","","","","","","","","","8"
"","","","","","","","","","","","html-keyboard-response","151","455447","0.0-151.0","null","null","","","","","","","","","","","","","","feedback","Mon Oct 13 2025 16:59:05 GMT-0400 (Eastern Daylight Time)","27293","1","13","","","","","","","","","",""
"","","","","","","","","","","","preload","152","455448","0.0-152.0","","","","","true","","","","","","","","","","","preload","","","1","14","false","[]","[]","[]","","","","","",""
"","","","","","","","","","","","canvas-keyboard-response","153","455751","0.0-153.0","null","null","","","","","","","","","","","","","","fixation","","","1","14","","","","","","","","","",""
"","","","","","","","","","","","canvas-keyboard-response","154","456054","0.0-154.0","null","null","","","","","","","","","","","","","","stimulus","","","1","14","","","","","","","","","",""
"","","","","","","","","","","","canvas-button-response","155","457838","0.0-155.0","1782","house","","","","","","","","","","","","","","perceptual","","","1","14","","","","","87","elephant","10","","0",""
"","","","","","","","","","","","canvas-button-response","156","458910","0.0-156.0","1070","1","","","","","","","","","","","","","","confidence","","","1","14","","","","","","","","","","8"
"","","","","","","","","","","","html-keyboard-response","157","459914","0.0-157.0","null","null","","","","","","","","","","","","","","feedback","Mon Oct 13 2025 16:59:09 GMT-0400 (Eastern Daylight Time)","27293","1","14","","","","","","","","","",""
"","","","","","","","","","","","preload","158","459915","0.0-158.0","","","","","true","","","","","","","","","","","preload","","","1","15","false","[]","[]","[]","","","","","",""
"","","","","","","","","","","","canvas-keyboard-response","159","460218","0.0-159.0","null","null","","","","","","","","","","","","","","fixation","","","1","15","","","","","","","","","",""
"","","","","","","","","","","","canvas-keyboard-response","160","460521","0.0-160.0","null","null","","","","","","","","","","","","","","stimulus","","","1","15","","","","","","","","","",""
"","","","","","","","","","","","canvas-button-response","161","462162","0.0-161.0","1638","car","","","","","","","","","","","","","","perceptual","","","1","15","","","","","47","bridge","10","","0",""
"","","","","","","","","","","","canvas-button-response","162","463170","0.0-162.0","1006","2","","","","","","","","","","","","","","confidence","","","1","15","","","","","","","","","","8"
"","","","","","","","","","","","html-keyboard-response","163","464173","0.0-163.0","null","null","","","","","","","","","","","","","","feedback","Mon Oct 13 2025 16:59:14 GMT-0400 (Eastern Daylight Time)","27293","1","15","","","","","","","","","",""
"","","","","","","","","","","","preload","164","464174","0.0-164.0","","","","","true","","","","","","","","","","","preload","","","1","16","false","[]","[]","[]","","","","","",""
"","","","","","","","","","","","canvas-keyboard-response","165","464478","0.0-165.0","null","null","","","","","","","","","","","","","","fixation","","","1","16","","","","","","","","","",""
"","","","","","","","","","","","canvas-keyboard-response","166","464781","0.0-166.0","null","null","","","","","","","","","","","","","","stimulus","","","1","16","","","","","","","","","",""
"","","","","","","","","","","","canvas-button-response","167","465955","0.0-167.0","1171","bed","","","","","","","","","","","","","","perceptual","","","1","16","","","","","37","bed","10","","1",""
"","","","","","","","","","","","canvas-button-response","168","466598","0.0-168.0","641","1","","","","","","","","","","","","","","confidence","","","1","16","","","","","","","","","","9"
"","","","","","","","","","","","html-keyboard-response","169","467600","0.0-169.0","null","null","","","","","","","","","","","","","","feedback","Mon Oct 13 2025 16:59:17 GMT-0400 (Eastern Daylight Time)","27293","1","16","","","","","","","","","",""
"","","","","","","","","","","","preload","170","467602","0.0-170.0","","","","","true","","","","","","","","","","","preload","","","1","17","false","[]","[]","[]","","","","","",""
"","","","","","","","","","","","canvas-keyboard-response","171","467905","0.0-171.0","null","null","","","","","","","","","","","","","","fixation","","","1","17","","","","","","","","","",""
"","","","","","","","","","","","canvas-keyboard-response","172","468208","0.0-172.0","null","null","","","","","","","","","","","","","","stimulus","","","1","17","","","","","","","","","",""
"","","","","","","","","","","","canvas-button-response","173","470791","0.0-173.0","2580","car","","","","","","","","","","","","","","perceptual","","","1","17","","","","","14","car","6","","1",""
"","","","","","","","","","","","canvas-button-response","174","471402","0.0-174.0","609","1","","","","","","","","","","","","","","confidence","","","1","17","","","","","","","","","","10"
"","","","","","","","","","","","html-keyboard-response","175","472405","0.0-175.0","null","null","","","","","","","","","","","","","","feedback","Mon Oct 13 2025 16:59:22 GMT-0400 (Eastern Daylight Time)","27293","1","17","","","","","","","","","",""
"","","","","","","","","","","","preload","176","472406","0.0-176.0","","","","","true","","","","","","","","","","","preload","","","1","18","false","[]","[]","[]","","","","","",""
"","","","","","","","","","","","canvas-keyboard-response","177","472709","0.0-177.0","null","null","","","","","","","","","","","","","","fixation","","","1","18","","","","","","","","","",""
"","","","","","","","","","","","canvas-keyboard-response","178","473015","0.0-178.0","null","null","","","","","","","","","","","","","","stimulus","","","1","18","","","","","","","","","",""
"","","","","","","","","","","","canvas-button-response","179","476046","0.0-179.0","3029","house","","","","","","","","","","","","","","perceptual","","","1","18","","","","","84","elephant","6","","0",""
"","","","","","","","","","","","canvas-button-response","180","476730","0.0-180.0","682","0","","","","","","","","","","","","","","confidence","","","1","18","","","","","","","","","","10"
"","","","","","","","","","","","html-keyboard-response","181","477733","0.0-181.0","null","null","","","","","","","","","","","","","","feedback","Mon Oct 13 2025 16:59:27 GMT-0400 (Eastern Daylight Time)","27293","1","18","","","","","","","","","",""
"","","","","","","","","","","","preload","182","477735","0.0-182.0","","","","","true","","","","","","","","","","","preload","","","1","19","false","[]","[]","[]","","","","","",""
"","","","","","","","","","","","canvas-keyboard-response","183","478038","0.0-183.0","null","null","","","","","","","","","","","","","","fixation","","","1","19","","","","","","","","","",""
"","","","","","","","","","","","canvas-keyboard-response","184","478341","0.0-184.0","null","null","","","","","","","","","","","","","","stimulus","","","1","19","","","","","","","","","",""
"","","","","","","","","","","","canvas-button-response","185","479474","0.0-185.0","1130","bed","","","","","","","","","","","","","","perceptual","","","1","19","","","","","34","bed","6","","1",""
"","","","","","","","","","","","canvas-button-response","186","480165","0.0-186.0","689","6","","","","","","","","","","","","","","confidence","","","1","19","","","","","","","","","","11"
"","","","","","","","","","","","html-keyboard-response","187","481168","0.0-187.0","null","null","","","","","","","","","","","","","","feedback","Mon Oct 13 2025 16:59:31 GMT-0400 (Eastern Daylight Time)","27293","1","19","","","","","","","","","",""
"","","","","","","","","","","","html-button-response","188","483157","0.0-188.0","1987","0","","","","","","","","","","","","","","start experiment","Mon Oct 13 2025 16:59:32 GMT-0400 (Eastern Daylight Time)","27293","1","19","","","","","","","","","",""
"","","","","","","","","","","","preload","189","483158","0.0-189.0","","","","","true","","","","","","","","","","","preload","","","2","0","false","[]","[]","[]","","","","","",""
"","","","","","","","","","","","canvas-keyboard-response","190","483460","0.0-190.0","null","null","","","","","","","","","","","","","","fixation","","","2","0","","","","","","","","","",""
"","","","","","","","","","","","canvas-keyboard-response","191","483763","0.0-191.0","null","null","","","","","","","","","","","","","","stimulus","","","2","0","","","","","","","","","",""
"","","","","","","","","","","","canvas-button-response","192","485388","0.0-192.0","1622","car","","","","","","","","","","","","","","perceptual","","","2","0","","","","","291","cat","6","0","0",""
"","","","","","","","","","","","canvas-button-response","193","486587","0.0-193.0","1197","1","","","","","","","","","","","","","","confidence","","","2","0","","","","","","","","","","0"
"","","","","","","","","","","","preload","194","486588","0.0-194.0","","","","","true","","","","","","","","","","","preload","","","2","1","false","[]","[]","[]","","","","","",""
"","","","","","","","","","","","canvas-keyboard-response","195","486892","0.0-195.0","null","null","","","","","","","","","","","","","","fixation","","","2","1","","","","","","","","","",""
"","","","","","","","","","","","canvas-keyboard-response","196","487195","0.0-196.0","null","null","","","","","","","","","","","","","","stimulus","","","2","1","","","","","","","","","",""
"","","","","","","","","","","","canvas-button-response","197","489854","0.0-197.0","2656","house","","","","","","","","","","","","","","perceptual","","","2","1","","","","","365","knife","6","0","0",""
"","","","","","","","","","","","canvas-button-response","198","490918","0.0-198.0","1062","0","","","","","","","","","","","","","","confidence","","","2","1","","","","","","","","","","0"
"","","","","","","","","","","","preload","199","490919","0.0-199.0","","","","","true","","","","","","","","","","","preload","","","2","2","false","[]","[]","[]","","","","","",""
"","","","","","","","","","","","canvas-keyboard-response","200","491221","0.0-200.0","null","null","","","","","","","","","","","","","","fixation","","","2","2","","","","","","","","","",""
"","","","","","","","","","","","canvas-keyboard-response","201","491524","0.0-201.0","null","null","","","","","","","","","","","","","","stimulus","","","2","2","","","","","","","","","",""
"","","","","","","","","","","","canvas-button-response","202","492849","0.0-202.0","1322","train","","","","","","","","","","","","","","perceptual","","","2","2","","","","","261","train","10","0","1",""
"","","","","","","","","","","","canvas-button-response","203","493570","0.0-203.0","718","6","","","","","","","","","","","","","","confidence","","","2","2","","","","","","","","","","1"
"","","","","","","","","","","","preload","204","493571","0.0-204.0","","","","","true","","","","","","","","","","","preload","","","2","3","false","[]","[]","[]","","","","","",""
"","","","","","","","","","","","canvas-keyboard-response","205","493874","0.0-205.0","null","null","","","","","","","","","","","","","","fixation","","","2","3","","","","","","","","","",""
"","","","","","","","","","","","canvas-keyboard-response","206","494177","0.0-206.0","null","null","","","","","","","","","","","","","","stimulus","","","2","3","","","","","","","","","",""
"","","","","","","","","","","","canvas-button-response","207","495960","0.0-207.0","1780","house","","","","","","","","","","","","","","perceptual","","","2","3","","","","","109","phone","10","0","0",""
"","","","","","","","","","","","canvas-button-response","208","496627","0.0-208.0","665","1","","","","","","","","","","","","","","confidence","","","2","3","","","","","","","","","","1"
"","","","","","","","","","","","preload","209","496628","0.0-209.0","","","","","true","","","","","","","","","","","preload","","","2","4","false","[]","[]","[]","","","","","",""
"","","","","","","","","","","","canvas-keyboard-response","210","496931","0.0-210.0","null","null","","","","","","","","","","","","","","fixation","","","2","4","","","","","","","","","",""
"","","","","","","","","","","","canvas-keyboard-response","211","497234","0.0-211.0","null","null","","","","","","","","","","","","","","stimulus","","","2","4","","","","","","","","","",""
"","","","","","","","","","","","canvas-button-response","212","498333","0.0-212.0","1096","house","","","","","","","","","","","","","","perceptual","","","2","4","","","","","22","house","10","0","1",""
"","","","","","","","","","","","canvas-button-response","213","499223","0.0-213.0","888","2","","","","","","","","","","","","","","confidence","","","2","4","","","","","","","","","","2"
"","","","","","","","","","","","preload","214","499224","0.0-214.0","","","","","true","","","","","","","","","","","preload","","","2","5","false","[]","[]","[]","","","","","",""
"","","","","","","","","","","","canvas-keyboard-response","215","499527","0.0-215.0","null","null","","","","","","","","","","","","","","fixation","","","2","5","","","","","","","","","",""
"","","","","","","","","","","","canvas-keyboard-response","216","499830","0.0-216.0","null","null","","","","","","","","","","","","","","stimulus","","","2","5","","","","","","","","","",""
"","","","","","","","","","","","canvas-button-response","217","501239","0.0-217.0","1407","knife","","","","","","","","","","","","","","perceptual","","","2","5","","","","","390","knife","10","0","1",""
"","","","","","","","","","","","canvas-button-response","218","502763","0.0-218.0","1522","2","","","","","","","","","","","","","","confidence","","","2","5","","","","","","","","","","3"
"","","","","","","","","","","","preload","219","502764","0.0-219.0","","","","","true","","","","","","","","","","","preload","","","2","6","false","[]","[]","[]","","","","","",""
"","","","","","","","","","","","canvas-keyboard-response","220","503067","0.0-220.0","null","null","","","","","","","","","","","","","","fixation","","","2","6","","","","","","","","","",""
"","","","","","","","","","","","canvas-keyboard-response","221","503375","0.0-221.0","null","null","","","","","","","","","","","","","","stimulus","","","2","6","","","","","","","","","",""
"","","","","","","","","","","","canvas-button-response","222","504445","0.0-222.0","1068","train","","","","","","","","","","","","","","perceptual","","","2","6","","","","","252","train","6","0","1",""
"","","","","","","","","","","","canvas-button-response","223","505192","0.0-223.0","746","4","","","","","","","","","","","","","","confidence","","","2","6","","","","","","","","","","4"
"","","","","","","","","","","","preload","224","505193","0.0-224.0","","","","","true","","","","","","","","","","","preload","","","2","7","false","[]","[]","[]","","","","","",""
"","","","","","","","","","","","canvas-keyboard-response","225","505496","0.0-225.0","null","null","","","","","","","","","","","","","","fixation","","","2","7","","","","","","","","","",""
"","","","","","","","","","","","canvas-keyboard-response","226","505797","0.0-226.0","null","null","","","","","","","","","","","","","","stimulus","","","2","7","","","","","","","","","",""
"","","","","","","","","","","","canvas-button-response","227","509134","0.0-227.0","3334","bridge","","","","","","","","","","","","","","perceptual","","","2","7","","","","","359","elephant","10","0","0",""
"","","","","","","","","","","","canvas-button-response","228","510843","0.0-228.0","1706","1","","","","","","","","","","","","","","confidence","","","2","7","","","","","","","","","","4"
"","","","","","","","","","","","preload","229","510844","0.0-229.0","","","","","true","","","","","","","","","","","preload","","","2","8","false","[]","[]","[]","","","","","",""
"","","","","","","","","","","","canvas-keyboard-response","230","511147","0.0-230.0","null","null","","","","","","","","","","","","","","fixation","","","2","8","","","","","","","","","",""
"","","","","","","","","","","","canvas-keyboard-response","231","511450","0.0-231.0","null","null","","","","","","","","","","","","","","stimulus","","","2","8","","","","","","","","","",""
"","","","","","","","","","","","canvas-button-response","232","513010","0.0-232.0","1558","cat","","","","","","","","","","","","","","perceptual","","","2","8","","","","","299","cat","6","0","1",""
"","","","","","","","","","","","canvas-button-response","233","513534","0.0-233.0","522","8","","","","","","","","","","","","","","confidence","","","2","8","","","","","","","","","","5"
"","","","","","","","","","","","preload","234","513535","0.0-234.0","","","","","true","","","","","","","","","","","preload","","","2","9","false","[]","[]","[]","","","","","",""
"","","","","","","","","","","","canvas-keyboard-response","235","513836","0.0-235.0","null","null","","","","","","","","","","","","","","fixation","","","2","9","","","","","","","","","",""
"","","","","","","","","","","","canvas-keyboard-response","236","514146","0.0-236.0","null","null","","","","","","","","","","","","","","stimulus","","","2","9","","","","","","","","","",""
"","","","","","","","","","","","canvas-button-response","237","515350","0.0-237.0","1201","train","","","","","","","","","","","","","","perceptual","","","2","9","","","","","251","train","6","0","1",""
"","","","","","","","","","","","canvas-button-response","238","516185","0.0-238.0","832","5","","","","","","","","","","","","","","confidence","","","2","9","","","","","","","","","","6"
"","","","","","","","","","","","preload","239","516186","0.0-239.0","","","","","true","","","","","","","","","","","preload","","","2","10","false","[]","[]","[]","","","","","",""
"","","","","","","","","","","","canvas-keyboard-response","240","516489","0.0-240.0","null","null","","","","","","","","","","","","","","fixation","","","2","10","","","","","","","","","",""
"","","","","","","","","","","","canvas-keyboard-response","241","516792","0.0-241.0","null","null","","","","","","","","","","","","","","stimulus","","","2","10","","","","","","","","","",""
"","","","","","","","","","","","canvas-button-response","242","517630","0.0-242.0","836","bed","","","","","","","","","","","","","","perceptual","","","2","10","","","","","124","bed","6","0","1",""
"","","","","","","","","","","","canvas-button-response","243","518579","0.0-243.0","946","9","","","","","","","","","","","","","","confidence","","","2","10","","","","","","","","","","7"
"","","","","","","","","","","","preload","244","518580","0.0-244.0","","","","","true","","","","","","","","","","","preload","","","2","11","false","[]","[]","[]","","","","","",""
"","","","","","","","","","","","canvas-keyboard-response","245","518885","0.0-245.0","null","null","","","","","","","","","","","","","","fixation","","","2","11","","","","","","","","","",""
"","","","","","","","","","","","canvas-keyboard-response","246","519188","0.0-246.0","null","null","","","","","","","","","","","","","","stimulus","","","2","11","","","","","","","","","",""
"","","","","","","","","","","","canvas-button-response","247","520638","0.0-247.0","1448","knife","","","","","","","","","","","","","","perceptual","","","2","11","","","","","368","knife","6","0","1",""
"","","","","","","","","","","","canvas-button-response","248","522249","0.0-248.0","1609","7","","","","","","","","","","","","","","confidence","","","2","11","","","","","","","","","","8"
"","","","","","","","","","","","preload","249","522250","0.0-249.0","","","","","true","","","","","","","","","","","preload","","","2","12","false","[]","[]","[]","","","","","",""
"","","","","","","","","","","","canvas-keyboard-response","250","522553","0.0-250.0","null","null","","","","","","","","","","","","","","fixation","","","2","12","","","","","","","","","",""
"","","","","","","","","","","","canvas-keyboard-response","251","522856","0.0-251.0","null","null","","","","","","","","","","","","","","stimulus","","","2","12","","","","","","","","","",""
"","","","","","","","","","","","canvas-button-response","252","524091","0.0-252.0","1233","car","","","","","","","","","","","","","","perceptual","","","2","12","","","","","68","car","10","0","1",""
"","","","","","","","","","","","canvas-button-response","253","525464","0.0-253.0","1371","4","","","","","","","","","","","","","","confidence","","","2","12","","","","","","","","","","9"
"","","","","","","","","","","","preload","254","525466","0.0-254.0","","","","","true","","","","","","","","","","","preload","","","2","13","false","[]","[]","[]","","","","","",""
"","","","","","","","","","","","canvas-keyboard-response","255","525768","0.0-255.0","null","null","","","","","","","","","","","","","","fixation","","","2","13","","","","","","","","","",""
"","","","","","","","","","","","canvas-keyboard-response","256","526071","0.0-256.0","null","null","","","","","","","","","","","","","","stimulus","","","2","13","","","","","","","","","",""
"","","","","","","","","","","","canvas-button-response","257","527060","0.0-257.0","986","bed","","","","","","","","","","","","","","perceptual","","","2","13","","","","","151","bed","10","0","1",""
"","","","","","","","","","","","canvas-button-response","258","527759","0.0-258.0","697","2","","","","","","","","","","","","","","confidence","","","2","13","","","","","","","","","","10"
"","","","","","","","","","","","preload","259","527761","0.0-259.0","","","","","true","","","","","","","","","","","preload","","","2","14","false","[]","[]","[]","","","","","",""
"","","","","","","","","","","","canvas-keyboard-response","260","528063","0.0-260.0","null","null","","","","","","","","","","","","","","fixation","","","2","14","","","","","","","","","",""
"","","","","","","","","","","","canvas-keyboard-response","261","528366","0.0-261.0","null","null","","","","","","","","","","","","","","stimulus","","","2","14","","","","","","","","","",""
"","","","","","","","","","","","canvas-button-response","262","530053","0.0-262.0","1684","cat","","","","","","","","","","","","","","perceptual","","","2","14","","","","","281","cat","6","0","1",""
"","","","","","","","","","","","canvas-button-response","263","531054","0.0-263.0","999","4","","","","","","","","","","","","","","confidence","","","2","14","","","","","","","","","","11"
"","","","","","","","","","","","preload","264","531055","0.0-264.0","","","","","true","","","","","","","","","","","preload","","","2","15","false","[]","[]","[]","","","","","",""
"","","","","","","","","","","","canvas-keyboard-response","265","531358","0.0-265.0","null","null","","","","","","","","","","","","","","fixation","","","2","15","","","","","","","","","",""
"","","","","","","","","","","","canvas-keyboard-response","266","531661","0.0-266.0","null","null","","","","","","","","","","","","","","stimulus","","","2","15","","","","","","","","","",""
"","","","","","","","","","","","canvas-button-response","267","533126","0.0-267.0","1462","elephant","","","","","","","","","","","","","","perceptual","","","2","15","","","","","382","knife","10","0","0",""
"","","","","","","","","","","","canvas-button-response","268","533879","0.0-268.0","751","0","","","","","","","","","","","","","","confidence","","","2","15","","","","","","","","","","11"
"","","","","","","","","","","","preload","269","533881","0.0-269.0","","","","","true","","","","","","","","","","","preload","","","2","16","false","[]","[]","[]","","","","","",""
"","","","","","","","","","","","canvas-keyboard-response","270","534182","0.0-270.0","null","null","","","","","","","","","","","","","","fixation","","","2","16","","","","","","","","","",""
"","","","","","","","","","","","canvas-keyboard-response","271","534486","0.0-271.0","null","null","","","","","","","","","","","","","","stimulus","","","2","16","","","","","","","","","",""
"","","","","","","","","","","","canvas-button-response","272","535294","0.0-272.0","807","bridge","","","","","","","","","","","","","","perceptual","","","2","16","","","","","169","bridge","6","0","1",""
"","","","","","","","","","","","canvas-button-response","273","536135","0.0-273.0","839","10","","","","","","","","","","","","","","confidence","","","2","16","","","","","","","","","","12"
"","","","","","","","","","","","preload","274","536136","0.0-274.0","","","","","true","","","","","","","","","","","preload","","","2","17","false","[]","[]","[]","","","","","",""
"","","","","","","","","","","","canvas-keyboard-response","275","536439","0.0-275.0","null","null","","","","","","","","","","","","","","fixation","","","2","17","","","","","","","","","",""
"","","","","","","","","","","","canvas-keyboard-response","276","536741","0.0-276.0","null","null","","","","","","","","","","","","","","stimulus","","","2","17","","","","","","","","","",""
"","","","","","","","","","","","canvas-button-response","277","537946","0.0-277.0","1203","house","","","","","","","","","","","","","","perceptual","","","2","17","","","","","270","train","10","0","0",""
"","","","","","","","","","","","canvas-button-response","278","538747","0.0-278.0","799","3","","","","","","","","","","","","","","confidence","","","2","17","","","","","","","","","","12"
"","","","","","","","","","","","preload","279","538748","0.0-279.0","","","","","true","","","","","","","","","","","preload","","","2","18","false","[]","[]","[]","","","","","",""
"","","","","","","","","","","","canvas-keyboard-response","280","539051","0.0-280.0","null","null","","","","","","","","","","","","","","fixation","","","2","18","","","","","","","","","",""
"","","","","","","","","","","","canvas-keyboard-response","281","539354","0.0-281.0","null","null","","","","","","","","","","","","","","stimulus","","","2","18","","","","","","","","","",""
"","","","","","","","","","","","canvas-button-response","282","542744","0.0-282.0","3387","phone","","","","","","","","","","","","","","perceptual","","","2","18","","","","","93","phone","6","0","1",""
"","","","","","","","","","","","canvas-button-response","283","543750","0.0-283.0","1004","0","","","","","","","","","","","","","","confidence","","","2","18","","","","","","","","","","13"
"","","","","","","","","","","","preload","284","543751","0.0-284.0","","","","","true","","","","","","","","","","","preload","","","2","19","false","[]","[]","[]","","","","","",""
"","","","","","","","","","","","canvas-keyboard-response","285","544053","0.0-285.0","null","null","","","","","","","","","","","","","","fixation","","","2","19","","","","","","","","","",""
"","","","","","","","","","","","canvas-keyboard-response","286","544355","0.0-286.0","null","null","","","","","","","","","","","","","","stimulus","","","2","19","","","","","","","","","",""
"","","","","","","","","","","","canvas-button-response","287","546394","0.0-287.0","2036","car","","","","","","","","","","","","","","perceptual","","","2","19","","","","","313","cat","10","0","0",""
"","","","","","","","","","","","canvas-button-response","288","547013","0.0-288.0","617","0","","","","","","","","","","","","","","confidence","","","2","19","","","","","","","","","","13"
"","","","","","","","","","","","preload","289","547014","0.0-289.0","","","","","true","","","","","","","","","","","preload","","","2","20","false","[]","[]","[]","","","","","",""
"","","","","","","","","","","","canvas-keyboard-response","290","547317","0.0-290.0","null","null","","","","","","","","","","","","","","fixation","","","2","20","","","","","","","","","",""
"","","","","","","","","","","","canvas-keyboard-response","291","547620","0.0-291.0","null","null","","","","","","","","","","","","","","stimulus","","","2","20","","","","","","","","","",""
"","","","","","","","","","","","canvas-button-response","292","549736","0.0-292.0","2115","train","","","","","","","","","","","","","","perceptual","","","2","20","","","","","100","phone","10","0","0",""
"","","","","","","","","","","","canvas-button-response","293","551181","0.0-293.0","1443","2","","","","","","","","","","","","","","confidence","","","2","20","","","","","","","","","","13"
"","","","","","","","","","","","preload","294","551182","0.0-294.0","","","","","true","","","","","","","","","","","preload","","","2","21","false","[]","[]","[]","","","","","",""
"","","","","","","","","","","","canvas-keyboard-response","295","551485","0.0-295.0","null","null","","","","","","","","","","","","","","fixation","","","2","21","","","","","","","","","",""
"","","","","","","","","","","","canvas-keyboard-response","296","551788","0.0-296.0","null","null","","","","","","","","","","","","","","stimulus","","","2","21","","","","","","","","","",""
"","","","","","","","","","","","canvas-button-response","297","553390","0.0-297.0","1599","house","","","","","","","","","","","","","","perceptual","","","2","21","","","","","199","bridge","10","0","0",""
"","","","","","","","","","","","canvas-button-response","298","554786","0.0-298.0","1394","1","","","","","","","","","","","","","","confidence","","","2","21","","","","","","","","","","13"
"","","","","","","","","","","","preload","299","554787","0.0-299.0","","","","","true","","","","","","","","","","","preload","","","2","22","false","[]","[]","[]","","","","","",""
"","","","","","","","","","","","canvas-keyboard-response","300","555090","0.0-300.0","null","null","","","","","","","","","","","","","","fixation","","","2","22","","","","","","","","","",""
"","","","","","","","","","","","canvas-keyboard-response","301","555391","0.0-301.0","null","null","","","","","","","","","","","","","","stimulus","","","2","22","","","","","","","","","",""
"","","","","","","","","","","","canvas-button-response","302","556565","0.0-302.0","1170","bridge","","","","","","","","","","","","","","perceptual","","","2","22","","","","","1","house","6","0","0",""
"","","","","","","","","","","","canvas-button-response","303","557675","0.0-303.0","1109","3","","","","","","","","","","","","","","confidence","","","2","22","","","","","","","","","","13"
"","","","","","","","","","","","preload","304","557676","0.0-304.0","","","","","true","","","","","","","","","","","preload","","","2","23","false","[]","[]","[]","","","","","",""
"","","","","","","","","","","","canvas-keyboard-response","305","557980","0.0-305.0","null","null","","","","","","","","","","","","","","fixation","","","2","23","","","","","","","","","",""
"","","","","","","","","","","","canvas-keyboard-response","306","558282","0.0-306.0","null","null","","","","","","","","","","","","","","stimulus","","","2","23","","","","","","","","","",""
"","","","","","","","","","","","canvas-button-response","307","559400","0.0-307.0","1114","phone","","","","","","","","","","","","","","perceptual","","","2","23","","","","","126","bed","6","0","0",""
"","","","","","","","","","","","canvas-button-response","308","559915","0.0-308.0","513","5","","","","","","","","","","","","","","confidence","","","2","23","","","","","","","","","","13"
"","","","","","","","","","","","preload","309","559916","0.0-309.0","","","","","true","","","","","","","","","","","preload","","","2","24","false","[]","[]","[]","","","","","",""
"","","","","","","","","","","","canvas-keyboard-response","310","560218","0.0-310.0","null","null","","","","","","","","","","","","","","fixation","","","2","24","","","","","","","","","",""
"","","","","","","","","","","","canvas-keyboard-response","311","560520","0.0-311.0","null","null","","","","","","","","","","","","","","stimulus","","","2","24","","","","","","","","","",""
"","","","","","","","","","","","canvas-button-response","312","561630","0.0-312.0","1107","flower","","","","","","","","","","","","","","perceptual","","","2","24","","","","","220","flower","10","0","1",""
"","","","","","","","","","","","canvas-button-response","313","562256","0.0-313.0","624","9","","","","","","","","","","","","","","confidence","","","2","24","","","","","","","","","","14"
"","","","","","","","","","","","preload","314","562258","0.0-314.0","","","","","true","","","","","","","","","","","preload","","","2","25","false","[]","[]","[]","","","","","",""
"","","","","","","","","","","","canvas-keyboard-response","315","562560","0.0-315.0","null","null","","","","","","","","","","","","","","fixation","","","2","25","","","","","","","","","",""
"","","","","","","","","","","","canvas-keyboard-response","316","562863","0.0-316.0","null","null","","","","","","","","","","","","","","stimulus","","","2","25","","","","","","","","","",""
"","","","","","","","","","","","canvas-button-response","317","565623","0.0-317.0","2757","elephant","","","","","","","","","","","","","","perceptual","","","2","25","","","","","108","phone","10","0","0",""
"","","","","","","","","","","","canvas-button-response","318","566679","0.0-318.0","1054","1","","","","","","","","","","","","","","confidence","","","2","25","","","","","","","","","","14"
"","","","","","","","","","","","preload","319","566680","0.0-319.0","","","","","true","","","","","","","","","","","preload","","","2","26","false","[]","[]","[]","","","","","",""
"","","","","","","","","","","","canvas-keyboard-response","320","566983","0.0-320.0","null","null","","","","","","","","","","","","","","fixation","","","2","26","","","","","","","","","",""
"","","","","","","","","","","","canvas-keyboard-response","321","567286","0.0-321.0","null","null","","","","","","","","","","","","","","stimulus","","","2","26","","","","","","","","","",""
"","","","","","","","","","","","canvas-button-response","322","568427","0.0-322.0","1137","flower","","","","","","","","","","","","","","perceptual","","","2","26","","","","","200","flower","6","0","1",""
"","","","","","","","","","","","canvas-button-response","323","569154","0.0-323.0","726","3","","","","","","","","","","","","","","confidence","","","2","26","","","","","","","","","","15"
"","","","","","","","","","","","preload","324","569154","0.0-324.0","","","","","true","","","","","","","","","","","preload","","","2","27","false","[]","[]","[]","","","","","",""
"","","","","","","","","","","","canvas-keyboard-response","325","569457","0.0-325.0","null","null","","","","","","","","","","","","","","fixation","","","2","27","","","","","","","","","",""
"","","","","","","","","","","","canvas-keyboard-response","326","569759","0.0-326.0","null","null","","","","","","","","","","","","","","stimulus","","","2","27","","","","","","","","","",""
"","","","","","","","","","","","canvas-button-response","327","570720","0.0-327.0","958","cat","","","","","","","","","","","","","","perceptual","","","2","27","","","","","317","cat","10","0","1",""
"","","","","","","","","","","","canvas-button-response","328","571720","0.0-328.0","998","10","","","","","","","","","","","","","","confidence","","","2","27","","","","","","","","","","16"
"","","","","","","","","","","","preload","329","571721","0.0-329.0","","","","","true","","","","","","","","","","","preload","","","2","28","false","[]","[]","[]","","","","","",""
"","","","","","","","","","","","canvas-keyboard-response","330","572024","0.0-330.0","null","null","","","","","","","","","","","","","","fixation","","","2","28","","","","","","","","","",""
"","","","","","","","","","","","canvas-keyboard-response","331","572327","0.0-331.0","null","null","","","","","","","","","","","","","","stimulus","","","2","28","","","","","","","","","",""
"","","","","","","","","","","","canvas-button-response","332","574174","0.0-332.0","1845","house","","","","","","","","","","","","","","perceptual","","","2","28","","","","","33","house","10","0","1",""
"","","","","","","","","","","","canvas-button-response","333","574826","0.0-333.0","649","2","","","","","","","","","","","","","","confidence","","","2","28","","","","","","","","","","17"
"","","","","","","","","","","","preload","334","574827","0.0-334.0","","","","","true","","","","","","","","","","","preload","","","2","29","false","[]","[]","[]","","","","","",""
"","","","","","","","","","","","canvas-keyboard-response","335","575130","0.0-335.0","null","null","","","","","","","","","","","","","","fixation","","","2","29","","","","","","","","","",""
"","","","","","","","","","","","canvas-keyboard-response","336","575433","0.0-336.0","null","null","","","","","","","","","","","","","","stimulus","","","2","29","","","","","","","","","",""
"","","","","","","","","","","","canvas-button-response","337","577476","0.0-337.0","2040","cat","","","","","","","","","","","","","","perceptual","","","2","29","","","","","302","cat","10","0","1",""
"","","","","","","","","","","","canvas-button-response","338","578278","0.0-338.0","799","5","","","","","","","","","","","","","","confidence","","","2","29","","","","","","","","","","18"
"","","","","","","","","","","","preload","339","578279","0.0-339.0","","","","","true","","","","","","","","","","","preload","","","2","30","false","[]","[]","[]","","","","","",""
"","","","","","","","","","","","canvas-keyboard-response","340","578581","0.0-340.0","null","null","","","","","","","","","","","","","","fixation","","","2","30","","","","","","","","","",""
"","","","","","","","","","","","canvas-keyboard-response","341","578884","0.0-341.0","null","null","","","","","","","","","","","","","","stimulus","","","2","30","","","","","","","","","",""
"","","","","","","","","","","","canvas-button-response","342","579993","0.0-342.0","1106","bed","","","","","","","","","","","","","","perceptual","","","2","30","","","","","133","bed","6","0","1",""
"","","","","","","","","","","","canvas-button-response","343","580635","0.0-343.0","640","7","","","","","","","","","","","","","","confidence","","","2","30","","","","","","","","","","19"
"","","","","","","","","","","","preload","344","580636","0.0-344.0","","","","","true","","","","","","","","","","","preload","","","2","31","false","[]","[]","[]","","","","","",""
"","","","","","","","","","","","canvas-keyboard-response","345","580939","0.0-345.0","null","null","","","","","","","","","","","","","","fixation","","","2","31","","","","","","","","","",""
"","","","","","","","","","","","canvas-keyboard-response","346","581242","0.0-346.0","null","null","","","","","","","","","","","","","","stimulus","","","2","31","","","","","","","","","",""
"","","","","","","","","","","","canvas-button-response","347","583938","0.0-347.0","2694","elephant","","","","","","","","","","","","","","perceptual","","","2","31","","","","","114","phone","10","0","0",""
"","","","","","","","","","","","canvas-button-response","348","585264","0.0-348.0","1324","1","","","","","","","","","","","","","","confidence","","","2","31","","","","","","","","","","19"
"","","","","","","","","","","","preload","349","585265","0.0-349.0","","","","","true","","","","","","","","","","","preload","","","2","32","false","[]","[]","[]","","","","","",""
"","","","","","","","","","","","canvas-keyboard-response","350","585568","0.0-350.0","null","null","","","","","","","","","","","","","","fixation","","","2","32","","","","","","","","","",""
"","","","","","","","","","","","canvas-keyboard-response","351","585871","0.0-351.0","null","null","","","","","","","","","","","","","","stimulus","","","2","32","","","","","","","","","",""
"","","","","","","","","","","","canvas-button-response","352","586709","0.0-352.0","835","car","","","","","","","","","","","","","","perceptual","","","2","32","","","","","47","car","6","0","1",""
"","","","","","","","","","","","canvas-button-response","353","587559","0.0-353.0","848","8","","","","","","","","","","","","","","confidence","","","2","32","","","","","","","","","","20"
"","","","","","","","","","","","preload","354","587560","0.0-354.0","","","","","true","","","","","","","","","","","preload","","","2","33","false","[]","[]","[]","","","","","",""
"","","","","","","","","","","","canvas-keyboard-response","355","587862","0.0-355.0","null","null","","","","","","","","","","","","","","fixation","","","2","33","","","","","","","","","",""
"","","","","","","","","","","","canvas-keyboard-response","356","588165","0.0-356.0","null","null","","","","","","","","","","","","","","stimulus","","","2","33","","","","","","","","","",""
"","","","","","","","","","","","canvas-button-response","357","591430","0.0-357.0","3262","house","","","","","","","","","","","","","","perceptual","","","2","33","","","","","173","bridge","6","0","0",""
"","","","","","","","","","","","canvas-button-response","358","592184","0.0-358.0","753","1","","","","","","","","","","","","","","confidence","","","2","33","","","","","","","","","","20"
"","","","","","","","","","","","preload","359","592185","0.0-359.0","","","","","true","","","","","","","","","","","preload","","","2","34","false","[]","[]","[]","","","","","",""
"","","","","","","","","","","","canvas-keyboard-response","360","592489","0.0-360.0","null","null","","","","","","","","","","","","","","fixation","","","2","34","","","","","","","","","",""
"","","","","","","","","","","","canvas-keyboard-response","361","592792","0.0-361.0","null","null","","","","","","","","","","","","","","stimulus","","","2","34","","","","","","","","","",""
"","","","","","","","","","","","canvas-button-response","362","593604","0.0-362.0","810","knife","","","","","","","","","","","","","","perceptual","","","2","34","","","","","393","knife","10","0","1",""
"","","","","","","","","","","","canvas-button-response","363","595415","0.0-363.0","1810","4","","","","","","","","","","","","","","confidence","","","2","34","","","","","","","","","","21"
"","","","","","","","","","","","preload","364","595416","0.0-364.0","","","","","true","","","","","","","","","","","preload","","","2","35","false","[]","[]","[]","","","","","",""
"","","","","","","","","","","","canvas-keyboard-response","365","595719","0.0-365.0","null","null","","","","","","","","","","","","","","fixation","","","2","35","","","","","","","","","",""
"","","","","","","","","","","","canvas-keyboard-response","366","596023","0.0-366.0","null","null","","","","","","","","","","","","","","stimulus","","","2","35","","","","","","","","","",""
"","","","","","","","","","","","canvas-button-response","367","597504","0.0-367.0","1479","bed","","","","","","","","","","","","","","perceptual","","","2","35","","","","","141","bed","10","0","1",""
"","","","","","","","","","","","canvas-button-response","368","598122","0.0-368.0","615","0","","","","","","","","","","","","","","confidence","","","2","35","","","","","","","","","","22"
"","","","","","","","","","","","preload","369","598122","0.0-369.0","","","","","true","","","","","","","","","","","preload","","","2","36","false","[]","[]","[]","","","","","",""
"","","","","","","","","","","","canvas-keyboard-response","370","598425","0.0-370.0","null","null","","","","","","","","","","","","","","fixation","","","2","36","","","","","","","","","",""
"","","","","","","","","","","","canvas-keyboard-response","371","598728","0.0-371.0","null","null","","","","","","","","","","","","","","stimulus","","","2","36","","","","","","","","","",""
"","","","","","","","","","","","canvas-button-response","372","600250","0.0-372.0","1519","house","","","","","","","","","","","","","","perceptual","","","2","36","","","","","9","house","6","0","1",""
"","","","","","","","","","","","canvas-button-response","373","601147","0.0-373.0","896","5","","","","","","","","","","","","","","confidence","","","2","36","","","","","","","","","","23"
"","","","","","","","","","","","preload","374","601148","0.0-374.0","","","","","true","","","","","","","","","","","preload","","","2","37","false","[]","[]","[]","","","","","",""
"","","","","","","","","","","","canvas-keyboard-response","375","601452","0.0-375.0","null","null","","","","","","","","","","","","","","fixation","","","2","37","","","","","","","","","",""
"","","","","","","","","","","","canvas-keyboard-response","376","601754","0.0-376.0","null","null","","","","","","","","","","","","","","stimulus","","","2","37","","","","","","","","","",""
"","","","","","","","","","","","canvas-button-response","377","602792","0.0-377.0","1035","bridge","","","","","","","","","","","","","","perceptual","","","2","37","","","","","187","bridge","10","0","1",""
"","","","","","","","","","","","canvas-button-response","378","603347","0.0-378.0","553","2","","","","","","","","","","","","","","confidence","","","2","37","","","","","","","","","","24"
"","","","","","","","","","","","preload","379","603348","0.0-379.0","","","","","true","","","","","","","","","","","preload","","","2","38","false","[]","[]","[]","","","","","",""
"","","","","","","","","","","","canvas-keyboard-response","380","603650","0.0-380.0","null","null","","","","","","","","","","","","","","fixation","","","2","38","","","","","","","","","",""
"","","","","","","","","","","","canvas-keyboard-response","381","603953","0.0-381.0","null","null","","","","","","","","","","","","","","stimulus","","","2","38","","","","","","","","","",""
"","","","","","","","","","","","canvas-button-response","382","604943","0.0-382.0","987","phone","","","","","","","","","","","","","","perceptual","","","2","38","","","","","82","phone","6","0","1",""
"","","","","","","","","","","","canvas-button-response","383","606466","0.0-383.0","1521","5","","","","","","","","","","","","","","confidence","","","2","38","","","","","","","","","","25"
"","","","","","","","","","","","preload","384","606467","0.0-384.0","","","","","true","","","","","","","","","","","preload","","","2","39","false","[]","[]","[]","","","","","",""
"","","","","","","","","","","","canvas-keyboard-response","385","606770","0.0-385.0","null","null","","","","","","","","","","","","","","fixation","","","2","39","","","","","","","","","",""
"","","","","","","","","","","","canvas-keyboard-response","386","607073","0.0-386.0","null","null","","","","","","","","","","","","","","stimulus","","","2","39","","","","","","","","","",""
"","","","","","","","","","","","canvas-button-response","387","608784","0.0-387.0","1709","flower","","","","","","","","","","","","","","perceptual","","","2","39","","","","","212","flower","6","0","1",""
"","","","","","","","","","","","canvas-button-response","388","609324","0.0-388.0","537","4","","","","","","","","","","","","","","confidence","","","2","39","","","","","","","","","","26"
"","","","","","","","","","","","preload","389","609325","0.0-389.0","","","","","true","","","","","","","","","","","preload","","","2","40","false","[]","[]","[]","","","","","",""
"","","","","","","","","","","","canvas-keyboard-response","390","609627","0.0-390.0","null","null","","","","","","","","","","","","","","fixation","","","2","40","","","","","","","","","",""
"","","","","","","","","","","","canvas-keyboard-response","391","609930","0.0-391.0","null","null","","","","","","","","","","","","","","stimulus","","","2","40","","","","","","","","","",""
"","","","","","","","","","","","canvas-button-response","392","610808","0.0-392.0","874","train","","","","","","","","","","","","","","perceptual","","","2","40","","","","","246","train","6","0","1",""
"","","","","","","","","","","","canvas-button-response","393","611523","0.0-393.0","714","10","","","","","","","","","","","","","","confidence","","","2","40","","","","","","","","","","27"
"","","","","","","","","","","","preload","394","611524","0.0-394.0","","","","","true","","","","","","","","","","","preload","","","2","41","false","[]","[]","[]","","","","","",""
"","","","","","","","","","","","canvas-keyboard-response","395","611827","0.0-395.0","null","null","","","","","","","","","","","","","","fixation","","","2","41","","","","","","","","","",""
"","","","","","","","","","","","canvas-keyboard-response","396","612131","0.0-396.0","null","null","","","","","","","","","","","","","","stimulus","","","2","41","","","","","","","","","",""
"","","","","","","","","","","","canvas-button-response","397","613746","0.0-397.0","1612","elephant","","","","","","","","","","","","","","perceptual","","","2","41","","","","","214","flower","6","0","0",""
"","","","","","","","","","","","canvas-button-response","398","614460","0.0-398.0","712","4","","","","","","","","","","","","","","confidence","","","2","41","","","","","","","","","","27"
"","","","","","","","","","","","preload","399","614461","0.0-399.0","","","","","true","","","","","","","","","","","preload","","","2","42","false","[]","[]","[]","","","","","",""
"","","","","","","","","","","","canvas-keyboard-response","400","614764","0.0-400.0","null","null","","","","","","","","","","","","","","fixation","","","2","42","","","","","","","","","",""
"","","","","","","","","","","","canvas-keyboard-response","401","615067","0.0-401.0","null","null","","","","","","","","","","","","","","stimulus","","","2","42","","","","","","","","","",""
"","","","","","","","","","","","canvas-button-response","402","617494","0.0-402.0","2424","cat","","","","","","","","","","","","","","perceptual","","","2","42","","","","","289","cat","6","0","1",""
"","","","","","","","","","","","canvas-button-response","403","618621","0.0-403.0","1125","0","","","","","","","","","","","","","","confidence","","","2","42","","","","","","","","","","28"
"","","","","","","","","","","","preload","404","618622","0.0-404.0","","","","","true","","","","","","","","","","","preload","","","2","43","false","[]","[]","[]","","","","","",""
"","","","","","","","","","","","canvas-keyboard-response","405","618925","0.0-405.0","null","null","","","","","","","","","","","","","","fixation","","","2","43","","","","","","","","","",""
"","","","","","","","","","","","canvas-keyboard-response","406","619228","0.0-406.0","null","null","","","","","","","","","","","","","","stimulus","","","2","43","","","","","","","","","",""
"","","","","","","","","","","","canvas-button-response","407","620185","0.0-407.0","954","bed","","","","","","","","","","","","","","perceptual","","","2","43","","","","","145","bed","10","0","1",""
"","","","","","","","","","","","canvas-button-response","408","621376","0.0-408.0","1190","6","","","","","","","","","","","","","","confidence","","","2","43","","","","","","","","","","29"
"","","","","","","","","","","","preload","409","621377","0.0-409.0","","","","","true","","","","","","","","","","","preload","","","2","44","false","[]","[]","[]","","","","","",""
"","","","","","","","","","","","canvas-keyboard-response","410","621681","0.0-410.0","null","null","","","","","","","","","","","","","","fixation","","","2","44","","","","","","","","","",""
"","","","","","","","","","","","canvas-keyboard-response","411","621983","0.0-411.0","null","null","","","","","","","","","","","","","","stimulus","","","2","44","","","","","","","","","",""
"","","","","","","","","","","","canvas-button-response","412","622812","0.0-412.0","826","car","","","","","","","","","","","","","","perceptual","","","2","44","","","","","58","car","6","0","1",""
"","","","","","","","","","","","canvas-button-response","413","623401","0.0-413.0","586","7","","","","","","","","","","","","","","confidence","","","2","44","","","","","","","","","","30"
"","","","","","","","","","","","preload","414","623402","0.0-414.0","","","","","true","","","","","","","","","","","preload","","","2","45","false","[]","[]","[]","","","","","",""
"","","","","","","","","","","","canvas-keyboard-response","415","623705","0.0-415.0","null","null","","","","","","","","","","","","","","fixation","","","2","45","","","","","","","","","",""
"","","","","","","","","","","","canvas-keyboard-response","416","624008","0.0-416.0","null","null","","","","","","","","","","","","","","stimulus","","","2","45","","","","","","","","","",""
"","","","","","","","","","","","canvas-button-response","417","625051","0.0-417.0","1041","phone","","","","","","","","","","","","","","perceptual","","","2","45","","","","","99","phone","6","0","1",""
"","","","","","","","","","","","canvas-button-response","418","625712","0.0-418.0","660","8","","","","","","","","","","","","","","confidence","","","2","45","","","","","","","","","","31"
"","","","","","","","","","","","preload","419","625713","0.0-419.0","","","","","true","","","","","","","","","","","preload","","","2","46","false","[]","[]","[]","","","","","",""
"","","","","","","","","","","","canvas-keyboard-response","420","626016","0.0-420.0","null","null","","","","","","","","","","","","","","fixation","","","2","46","","","","","","","","","",""
"","","","","","","","","","","","canvas-keyboard-response","421","626318","0.0-421.0","null","null","","","","","","","","","","","","","","stimulus","","","2","46","","","","","","","","","",""
"","","","","","","","","","","","canvas-button-response","422","627340","0.0-422.0","1018","train","","","","","","","","","","","","","","perceptual","","","2","46","","","","","259","train","6","0","1",""
"","","","","","","","","","","","canvas-button-response","423","627896","0.0-423.0","553","10","","","","","","","","","","","","","","confidence","","","2","46","","","","","","","","","","32"
"","","","","","","","","","","","preload","424","627897","0.0-424.0","","","","","true","","","","","","","","","","","preload","","","2","47","false","[]","[]","[]","","","","","",""
"","","","","","","","","","","","canvas-keyboard-response","425","628199","0.0-425.0","null","null","","","","","","","","","","","","","","fixation","","","2","47","","","","","","","","","",""
"","","","","","","","","","","","canvas-keyboard-response","426","628502","0.0-426.0","null","null","","","","","","","","","","","","","","stimulus","","","2","47","","","","","","","","","",""
"","","","","","","","","","","","canvas-button-response","427","629482","0.0-427.0","978","bridge","","","","","","","","","","","","","","perceptual","","","2","47","","","","","167","bridge","6","0","1",""
"","","","","","","","","","","","canvas-button-response","428","630189","0.0-428.0","704","7","","","","","","","","","","","","","","confidence","","","2","47","","","","","","","","","","33"
"","","","","","","","","","","","preload","429","630190","0.0-429.0","","","","","true","","","","","","","","","","","preload","","","2","48","false","[]","[]","[]","","","","","",""
"","","","","","","","","","","","canvas-keyboard-response","430","630493","0.0-430.0","null","null","","","","","","","","","","","","","","fixation","","","2","48","","","","","","","","","",""
"","","","","","","","","","","","canvas-keyboard-response","431","630796","0.0-431.0","null","null","","","","","","","","","","","","","","stimulus","","","2","48","","","","","","","","","",""
"","","","","","","","","","","","canvas-button-response","432","631769","0.0-432.0","971","cat","","","","","","","","","","","","","","perceptual","","","2","48","","","","","315","cat","10","0","1",""
"","","","","","","","","","","","canvas-button-response","433","632421","0.0-433.0","650","8","","","","","","","","","","","","","","confidence","","","2","48","","","","","","","","","","34"
"","","","","","","","","","","","preload","434","632422","0.0-434.0","","","","","true","","","","","","","","","","","preload","","","2","49","false","[]","[]","[]","","","","","",""
"","","","","","","","","","","","canvas-keyboard-response","435","632724","0.0-435.0","null","null","","","","","","","","","","","","","","fixation","","","2","49","","","","","","","","","",""
"","","","","","","","","","","","canvas-keyboard-response","436","633028","0.0-436.0","null","null","","","","","","","","","","","","","","stimulus","","","2","49","","","","","","","","","",""
"","","","","","","","","","","","canvas-button-response","437","633722","0.0-437.0","691","phone","","","","","","","","","","","","","","perceptual","","","2","49","","","","","95","phone","6","0","1",""
"","","","","","","","","","","","canvas-button-response","438","634397","0.0-438.0","672","10","","","","","","","","","","","","","","confidence","","","2","49","","","","","","","","","","35"
"","","","","","","","","","","","html-button-response","439","846378","0.0-439.0","211975","0","","","","","","","","","","","","","","<p style=""font-size:20px;color:#000000"">You got 35 out of 50 trials correct in this block.<br><br>You have completed 6% of the experiment.<br><br>Take a short break.<br><br>When you are ready, click Continue to proceed.","","","2","49","","","","","","","","","",""
"","","","","","","","","","","","html-keyboard-response","440","847383","0.0-440.0","null","null","","","","","","","","","","","","","","<p style=""font-size:32px;color:#000000""><br><br> RUN: &nbsp 1/4 <br><br> BLOCK: 2/4 ","","","2","49","","","","","","","","","",""
"","","","","","","","","","","","preload","441","847384","0.0-441.0","","","","","true","","","","","","","","","","","preload","","","2","50","false","[]","[]","[]","","","","","",""
"","","","","","","","","","","","canvas-keyboard-response","442","847688","0.0-442.0","null","null","","","","","","","","","","","","","","fixation","","","2","50","","","","","","","","","",""
"","","","","","","","","","","","canvas-keyboard-response","443","847991","0.0-443.0","null","null","","","","","","","","","","","","","","stimulus","","","2","50","","","","","","","","","",""
"","","","","","","","","","","","canvas-button-response","444","852421","0.0-444.0","4427","train","","","","","","","","","","","","","","perceptual","","","2","50","","","","","260","train","10","0","1",""
"","","","","","","","","","","","canvas-button-response","445","853478","0.0-445.0","1055","5","","","","","","","","","","","","","","confidence","","","2","50","","","","","","","","","","1"
"","","","","","","","","","","","preload","446","853479","0.0-446.0","","","","","true","","","","","","","","","","","preload","","","2","51","false","[]","[]","[]","","","","","",""
"","","","","","","","","","","","canvas-keyboard-response","447","853782","0.0-447.0","null","null","","","","","","","","","","","","","","fixation","","","2","51","","","","","","","","","",""
"","","","","","","","","","","","canvas-keyboard-response","448","854085","0.0-448.0","null","null","","","","","","","","","","","","","","stimulus","","","2","51","","","","","","","","","",""
"","","","","","","","","","","","canvas-button-response","449","855104","0.0-449.0","1017","flower","","","","","","","","","","","","","","perceptual","","","2","51","","","","","202","flower","6","0","1",""
"","","","","","","","","","","","canvas-button-response","450","855810","0.0-450.0","704","8","","","","","","","","","","","","","","confidence","","","2","51","","","","","","","","","","2"
"","","","","","","","","","","","preload","451","855810","0.0-451.0","","","","","true","","","","","","","","","","","preload","","","2","52","false","[]","[]","[]","","","","","",""
"","","","","","","","","","","","canvas-keyboard-response","452","856113","0.0-452.0","null","null","","","","","","","","","","","","","","fixation","","","2","52","","","","","","","","","",""
"","","","","","","","","","","","canvas-keyboard-response","453","856416","0.0-453.0","null","null","","","","","","","","","","","","","","stimulus","","","2","52","","","","","","","","","",""
"","","","","","","","","","","","canvas-button-response","454","857793","0.0-454.0","1374","train","","","","","","","","","","","","","","perceptual","","","2","52","","","","","256","train","6","0","1",""
"","","","","","","","","","","","canvas-button-response","455","858548","0.0-455.0","754","8","","","","","","","","","","","","","","confidence","","","2","52","","","","","","","","","","3"
"","","","","","","","","","","","preload","456","858549","0.0-456.0","","","","","true","","","","","","","","","","","preload","","","2","53","false","[]","[]","[]","","","","","",""
"","","","","","","","","","","","canvas-keyboard-response","457","858851","0.0-457.0","null","null","","","","","","","","","","","","","","fixation","","","2","53","","","","","","","","","",""
"","","","","","","","","","","","canvas-keyboard-response","458","859155","0.0-458.0","null","null","","","","","","","","","","","","","","stimulus","","","2","53","","","","","","","","","",""
"","","","","","","","","","","","canvas-button-response","459","860268","0.0-459.0","1111","flower","","","","","","","","","","","","","","perceptual","","","2","53","","","","","206","flower","6","0","1",""
"","","","","","","","","","","","canvas-button-response","460","860929","0.0-460.0","660","10","","","","","","","","","","","","","","confidence","","","2","53","","","","","","","","","","4"
"","","","","","","","","","","","preload","461","860930","0.0-461.0","","","","","true","","","","","","","","","","","preload","","","2","54","false","[]","[]","[]","","","","","",""
"","","","","","","","","","","","canvas-keyboard-response","462","861233","0.0-462.0","null","null","","","","","","","","","","","","","","fixation","","","2","54","","","","","","","","","",""
"","","","","","","","","","","","canvas-keyboard-response","463","861536","0.0-463.0","null","null","","","","","","","","","","","","","","stimulus","","","2","54","","","","","","","","","",""
"","","","","","","","","","","","canvas-button-response","464","862840","0.0-464.0","1302","car","","","","","","","","","","","","","","perceptual","","","2","54","","","","","74","car","10","0","1",""
"","","","","","","","","","","","canvas-button-response","465","863849","0.0-465.0","1006","8","","","","","","","","","","","","","","confidence","","","2","54","","","","","","","","","","5"
"","","","","","","","","","","","preload","466","863850","0.0-466.0","","","","","true","","","","","","","","","","","preload","","","2","55","false","[]","[]","[]","","","","","",""
"","","","","","","","","","","","canvas-keyboard-response","467","864153","0.0-467.0","null","null","","","","","","","","","","","","","","fixation","","","2","55","","","","","","","","","",""
"","","","","","","","","","","","canvas-keyboard-response","468","864456","0.0-468.0","null","null","","","","","","","","","","","","","","stimulus","","","2","55","","","","","","","","","",""
"","","","","","","","","","","","canvas-button-response","469","865508","0.0-469.0","1049","bridge","","","","","","","","","","","","","","perceptual","","","2","55","","","","","288","cat","6","0","0",""
"","","","","","","","","","","","canvas-button-response","470","866063","0.0-470.0","553","6","","","","","","","","","","","","","","confidence","","","2","55","","","","","","","","","","5"
"","","","","","","","","","","","preload","471","866064","0.0-471.0","","","","","true","","","","","","","","","","","preload","","","2","56","false","[]","[]","[]","","","","","",""
"","","","","","","","","","","","canvas-keyboard-response","472","866366","0.0-472.0","null","null","","","","","","","","","","","","","","fixation","","","2","56","","","","","","","","","",""
"","","","","","","","","","","","canvas-keyboard-response","473","866670","0.0-473.0","null","null","","","","","","","","","","","","","","stimulus","","","2","56","","","","","","","","","",""
"","","","","","","","","","","","canvas-button-response","474","869111","0.0-474.0","2439","house","","","","","","","","","","","","","","perceptual","","","2","56","","","","","290","cat","6","0","0",""
"","","","","","","","","","","","canvas-button-response","475","869928","0.0-475.0","815","0","","","","","","","","","","","","","","confidence","","","2","56","","","","","","","","","","5"
"","","","","","","","","","","","preload","476","869929","0.0-476.0","","","","","true","","","","","","","","","","","preload","","","2","57","false","[]","[]","[]","","","","","",""
"","","","","","","","","","","","canvas-keyboard-response","477","870232","0.0-477.0","null","null","","","","","","","","","","","","","","fixation","","","2","57","","","","","","","","","",""
"","","","","","","","","","","","canvas-keyboard-response","478","870535","0.0-478.0","null","null","","","","","","","","","","","","","","stimulus","","","2","57","","","","","","","","","",""
"","","","","","","","","","","","canvas-button-response","479","872007","0.0-479.0","1470","knife","","","","","","","","","","","","","","perceptual","","","2","57","","","","","377","knife","6","0","1",""
"","","","","","","","","","","","canvas-button-response","480","872960","0.0-480.0","951","2","","","","","","","","","","","","","","confidence","","","2","57","","","","","","","","","","6"
"","","","","","","","","","","","preload","481","872961","0.0-481.0","","","","","true","","","","","","","","","","","preload","","","2","58","false","[]","[]","[]","","","","","",""
"","","","","","","","","","","","canvas-keyboard-response","482","873264","0.0-482.0","null","null","","","","","","","","","","","","","","fixation","","","2","58","","","","","","","","","",""
"","","","","","","","","","","","canvas-keyboard-response","483","873567","0.0-483.0","null","null","","","","","","","","","","","","","","stimulus","","","2","58","","","","","","","","","",""
"","","","","","","","","","","","canvas-button-response","484","874468","0.0-484.0","898","elephant","","","","","","","","","","","","","","perceptual","","","2","58","","","","","341","elephant","10","0","1",""
"","","","","","","","","","","","canvas-button-response","485","875038","0.0-485.0","568","8","","","","","","","","","","","","","","confidence","","","2","58","","","","","","","","","","7"
"","","","","","","","","","","","preload","486","875039","0.0-486.0","","","","","true","","","","","","","","","","","preload","","","2","59","false","[]","[]","[]","","","","","",""
"","","","","","","","","","","","canvas-keyboard-response","487","875342","0.0-487.0","null","null","","","","","","","","","","","","","","fixation","","","2","59","","","","","","","","","",""
"","","","","","","","","","","","canvas-keyboard-response","488","875645","0.0-488.0","null","null","","","","","","","","","","","","","","stimulus","","","2","59","","","","","","","","","",""
"","","","","","","","","","","","canvas-button-response","489","876707","0.0-489.0","1059","cat","","","","","","","","","","","","","","perceptual","","","2","59","","","","","399","knife","10","0","0",""
