"width","height","webaudio","browser","browser_version","mobile","os","fullscreen","vsync_rate","webcam","microphone","trial_type","trial_index","time_elapsed","internal_node_id","rt","response","accuracy","view_history","success","item_width_mm","item_height_mm","item_width_px","px2mm","view_dist_mm","item_width_deg","px2deg","scale_factor","win_width_deg","win_height_deg","stimulus","datetime","subjectID","curr_triallist","trial_no","timeout","failed_images","failed_audio","failed_video","image_index","category","blur","reps","correct","running_score"
"714","798","true","chrome","139.0.0","false","Mac OS","true","120.85","true","true","browser-check","0","500","0.0-0.0","","","","","","","","","","","","","","","","","","","","","","","","","","","","","",""
"","","","","","","","","","","","survey","1","23051","0.0-1.0","22528","{""P0_Q0"":""903875823"",""P0_Q1"":""20"",""P1_Q0"":""Female"",""P1_Q1"":""Not Hispanic or Latino"",""P1_Q2"":""White"",""P1_Q3"":""Normal"",""P1_Q4"":""Left-Handed""}","[]","","","","","","","","","","","","","","","","","","","","","","","","","","",""
"","","","","","","","","","","","instructions","2","38957","0.0-2.0","15905","","","[{""page_index"":0,""viewing_time"":3551},{""page_index"":1,""viewing_time"":6349},{""page_index"":2,""viewing_time"":3631},{""page_index"":3,""viewing_time"":2374}]","","","","","","","","","","","","","","","","","","","","","","","","","",""
"","","","","","","","","","","","fullscreen","3","44236","0.0-3.0","4277","","","","true","","","","","","","","","","","","","","","","","","","","","","","","",""
"","","","","","","","","","","","virtual-chinrest","4","104513","0.0-4.0","60274","","","","","85.6","53.98","149.34893134774433","1.7440101015446272","984.56","4.978297711591478","29.999999999999996","2.0756760507257694","23.800000000000004","26.6","","","","","","","","","","","","","","",""
"","","","","","","","","","","","instructions","5","142221","0.0-5.0","37707","","","[{""page_index"":0,""viewing_time"":9644},{""page_index"":1,""viewing_time"":2872},{""page_index"":2,""viewing_time"":7092},{""page_index"":3,""viewing_time"":3837},{""page_index"":4,""viewing_time"":4673},{""page_index"":5,""viewing_time"":6849},{""page_index"":6,""viewing_time"":2741}]","","","","","","","","","","","","","","","","","","","","","","","","","",""
"","","","","","","","","","","","html-button-response","6","145028","0.0-6.0","2805","0","","","","","","","","","","","","","","start_practice","Tue Oct 14 2025 15:41:41 GMT-0400 (Eastern Daylight Time)","25781","","","","","","","","","","","",""
"","","","","","","","","","","","preload","7","145029","0.0-7.0","","","","","true","","","","","","","","","","","preload","","","0","0","false","[]","[]","[]","","","","","",""
"","","","","","","","","","","","canvas-keyboard-response","8","145331","0.0-8.0","null","null","","","","","","","","","","","","","","fixation","","","0","0","","","","","","","","","",""
"","","","","","","","","","","","canvas-keyboard-response","9","145633","0.0-9.0","null","null","","","","","","","","","","","","","","stimulus","","","0","0","","","","","","","","","",""
"","","","","","","","","","","","canvas-button-response","10","147884","0.0-10.0","2249","house","","","","","","","","","","","","","","perceptual","","","0","0","","","","","2","house","1","","1",""
"","","","","","","","","","","","canvas-button-response","11","149544","0.0-11.0","1659","5","","","","","","","","","","","","","","confidence","","","0","0","","","","","","","","","","1"
"","","","","","","","","","","","html-keyboard-response","12","150547","0.0-12.0","null","null","","","","","","","","","","","","","","feedback","Tue Oct 14 2025 15:41:48 GMT-0400 (Eastern Daylight Time)","25781","0","0","","","","","","","","","",""
"","","","","","","","","","","","preload","13","150548","0.0-13.0","","","","","true","","","","","","","","","","","preload","","","0","1","false","[]","[]","[]","","","","","",""
"","","","","","","","","","","","canvas-keyboard-response","14","150852","0.0-14.0","null","null","","","","","","","","","","","","","","fixation","","","0","1","","","","","","","","","",""
"","","","","","","","","","","","canvas-keyboard-response","15","151155","0.0-15.0","null","null","","","","","","","","","","","","","","stimulus","","","0","1","","","","","","","","","",""
"","","","","","","","","","","","canvas-button-response","16","152911","0.0-16.0","1754","bed","","","","","","","","","","","","","","perceptual","","","0","1","","","","","32","bed","1","","1",""
"","","","","","","","","","","","canvas-button-response","17","155980","0.0-17.0","3068","9","","","","","","","","","","","","","","confidence","","","0","1","","","","","","","","","","2"
"","","","","","","","","","","","html-keyboard-response","18","156982","0.0-18.0","null","null","","","","","","","","","","","","","","feedback","Tue Oct 14 2025 15:41:55 GMT-0400 (Eastern Daylight Time)","25781","0","1","","","","","","","","","",""
"","","","","","","","","","","","preload","19","156983","0.0-19.0","","","","","true","","","","","","","","","","","preload","","","0","2","false","[]","[]","[]","","","","","",""
"","","","","","","","","","","","canvas-keyboard-response","20","157286","0.0-20.0","null","null","","","","","","","","","","","","","","fixation","","","0","2","","","","","","","","","",""
"","","","","","","","","","","","canvas-keyboard-response","21","157588","0.0-21.0","null","null","","","","","","","","","","","","","","stimulus","","","0","2","","","","","","","","","",""
"","","","","","","","","","","","canvas-button-response","22","158574","0.0-22.0","984","cat","","","","","","","","","","","","","","perceptual","","","0","2","","","","","72","cat","1","","1",""
"","","","","","","","","","","","canvas-button-response","23","159359","0.0-23.0","783","9","","","","","","","","","","","","","","confidence","","","0","2","","","","","","","","","","3"
"","","","","","","","","","","","html-keyboard-response","24","160361","0.0-24.0","null","null","","","","","","","","","","","","","","feedback","Tue Oct 14 2025 15:41:58 GMT-0400 (Eastern Daylight Time)","25781","0","2","","","","","","","","","",""
"","","","","","","","","","","","preload","25","160362","0.0-25.0","","","","","true","","","","","","","","","","","preload","","","0","3","false","[]","[]","[]","","","","","",""
"","","","","","","","","","","","canvas-keyboard-response","26","160665","0.0-26.0","null","null","","","","","","","","","","","","","","fixation","","","0","3","","","","","","","","","",""
"","","","","","","","","","","","canvas-keyboard-response","27","160967","0.0-27.0","null","null","","","","","","","","","","","","","","stimulus","","","0","3","","","","","","","","","",""
"","","","","","","","","","","","canvas-button-response","28","162533","0.0-28.0","1564","train","","","","","","","","","","","","","","perceptual","","","0","3","","","","","62","train","1","","1",""
"","","","","","","","","","","","canvas-button-response","29","163360","0.0-29.0","826","9","","","","","","","","","","","","","","confidence","","","0","3","","","","","","","","","","4"
"","","","","","","","","","","","html-keyboard-response","30","164362","0.0-30.0","null","null","","","","","","","","","","","","","","feedback","Tue Oct 14 2025 15:42:02 GMT-0400 (Eastern Daylight Time)","25781","0","3","","","","","","","","","",""
"","","","","","","","","","","","preload","31","164363","0.0-31.0","","","","","true","","","","","","","","","","","preload","","","0","4","false","[]","[]","[]","","","","","",""
"","","","","","","","","","","","canvas-keyboard-response","32","164666","0.0-32.0","null","null","","","","","","","","","","","","","","fixation","","","0","4","","","","","","","","","",""
"","","","","","","","","","","","canvas-keyboard-response","33","164968","0.0-33.0","null","null","","","","","","","","","","","","","","stimulus","","","0","4","","","","","","","","","",""
"","","","","","","","","","","","canvas-button-response","34","168809","0.0-34.0","3840","knife","","","","","","","","","","","","","","perceptual","","","0","4","","","","","92","knife","1","","1",""
"","","","","","","","","","","","canvas-button-response","35","169775","0.0-35.0","966","9","","","","","","","","","","","","","","confidence","","","0","4","","","","","","","","","","5"
"","","","","","","","","","","","html-keyboard-response","36","170776","0.0-36.0","null","null","","","","","","","","","","","","","","feedback","Tue Oct 14 2025 15:42:09 GMT-0400 (Eastern Daylight Time)","25781","0","4","","","","","","","","","",""
"","","","","","","","","","","","preload","37","170777","0.0-37.0","","","","","true","","","","","","","","","","","preload","","","0","5","false","[]","[]","[]","","","","","",""
"","","","","","","","","","","","canvas-keyboard-response","38","171077","0.0-38.0","null","null","","","","","","","","","","","","","","fixation","","","0","5","","","","","","","","","",""
"","","","","","","","","","","","canvas-keyboard-response","39","171379","0.0-39.0","null","null","","","","","","","","","","","","","","stimulus","","","0","5","","","","","","","","","",""
"","","","","","","","","","","","canvas-button-response","40","175066","0.0-40.0","3686","elephant","","","","","","","","","","","","","","perceptual","","","0","5","","","","","82","elephant","1","","1",""
"","","","","","","","","","","","canvas-button-response","41","176113","0.0-41.0","1046","4","","","","","","","","","","","","","","confidence","","","0","5","","","","","","","","","","6"
"","","","","","","","","","","","html-keyboard-response","42","177115","0.0-42.0","null","null","","","","","","","","","","","","","","feedback","Tue Oct 14 2025 15:42:15 GMT-0400 (Eastern Daylight Time)","25781","0","5","","","","","","","","","",""
"","","","","","","","","","","","preload","43","177116","0.0-43.0","","","","","true","","","","","","","","","","","preload","","","0","6","false","[]","[]","[]","","","","","",""
"","","","","","","","","","","","canvas-keyboard-response","44","177419","0.0-44.0","null","null","","","","","","","","","","","","","","fixation","","","0","6","","","","","","","","","",""
"","","","","","","","","","","","canvas-keyboard-response","45","177722","0.0-45.0","null","null","","","","","","","","","","","","","","stimulus","","","0","6","","","","","","","","","",""
"","","","","","","","","","","","canvas-button-response","46","179982","0.0-46.0","2258","flower","","","","","","","","","","","","","","perceptual","","","0","6","","","","","52","flower","1","","1",""
"","","","","","","","","","","","canvas-button-response","47","180930","0.0-47.0","947","7","","","","","","","","","","","","","","confidence","","","0","6","","","","","","","","","","7"
"","","","","","","","","","","","html-keyboard-response","48","181931","0.0-48.0","null","null","","","","","","","","","","","","","","feedback","Tue Oct 14 2025 15:42:20 GMT-0400 (Eastern Daylight Time)","25781","0","6","","","","","","","","","",""
"","","","","","","","","","","","preload","49","181932","0.0-49.0","","","","","true","","","","","","","","","","","preload","","","0","7","false","[]","[]","[]","","","","","",""
"","","","","","","","","","","","canvas-keyboard-response","50","182234","0.0-50.0","null","null","","","","","","","","","","","","","","fixation","","","0","7","","","","","","","","","",""
"","","","","","","","","","","","canvas-keyboard-response","51","182536","0.0-51.0","null","null","","","","","","","","","","","","","","stimulus","","","0","7","","","","","","","","","",""
"","","","","","","","","","","","canvas-button-response","52","192275","0.0-52.0","9738","bridge","","","","","","","","","","","","","","perceptual","","","0","7","","","","","12","car","1","","0",""
"","","","","","","","","","","","canvas-button-response","53","193486","0.0-53.0","1210","3","","","","","","","","","","","","","","confidence","","","0","7","","","","","","","","","","7"
"","","","","","","","","","","","html-keyboard-response","54","194489","0.0-54.0","null","null","","","","","","","","","","","","","","feedback","Tue Oct 14 2025 15:42:32 GMT-0400 (Eastern Daylight Time)","25781","0","7","","","","","","","","","",""
"","","","","","","","","","","","preload","55","194490","0.0-55.0","","","","","true","","","","","","","","","","","preload","","","0","8","false","[]","[]","[]","","","","","",""
"","","","","","","","","","","","canvas-keyboard-response","56","194793","0.0-56.0","null","null","","","","","","","","","","","","","","fixation","","","0","8","","","","","","","","","",""
"","","","","","","","","","","","canvas-keyboard-response","57","195095","0.0-57.0","null","null","","","","","","","","","","","","","","stimulus","","","0","8","","","","","","","","","",""
"","","","","","","","","","","","canvas-button-response","58","195948","0.0-58.0","851","bridge","","","","","","","","","","","","","","perceptual","","","0","8","","","","","42","bridge","1","","1",""
"","","","","","","","","","","","canvas-button-response","59","196758","0.0-59.0","809","7","","","","","","","","","","","","","","confidence","","","0","8","","","","","","","","","","8"
"","","","","","","","","","","","html-keyboard-response","60","197760","0.0-60.0","null","null","","","","","","","","","","","","","","feedback","Tue Oct 14 2025 15:42:36 GMT-0400 (Eastern Daylight Time)","25781","0","8","","","","","","","","","",""
"","","","","","","","","","","","preload","61","197761","0.0-61.0","","","","","true","","","","","","","","","","","preload","","","0","9","false","[]","[]","[]","","","","","",""
"","","","","","","","","","","","canvas-keyboard-response","62","198065","0.0-62.0","null","null","","","","","","","","","","","","","","fixation","","","0","9","","","","","","","","","",""
"","","","","","","","","","","","canvas-keyboard-response","63","198368","0.0-63.0","null","null","","","","","","","","","","","","","","stimulus","","","0","9","","","","","","","","","",""
"","","","","","","","","","","","canvas-button-response","64","200013","0.0-64.0","1644","phone","","","","","","","","","","","","","","perceptual","","","0","9","","","","","22","phone","1","","1",""
"","","","","","","","","","","","canvas-button-response","65","200963","0.0-65.0","948","7","","","","","","","","","","","","","","confidence","","","0","9","","","","","","","","","","9"
"","","","","","","","","","","","html-keyboard-response","66","201965","0.0-66.0","null","null","","","","","","","","","","","","","","feedback","Tue Oct 14 2025 15:42:40 GMT-0400 (Eastern Daylight Time)","25781","0","9","","","","","","","","","",""
"","","","","","","","","","","","html-button-response","67","210223","0.0-67.0","8256","0","","","","","","","","","","","","","","start_practice","Tue Oct 14 2025 15:42:41 GMT-0400 (Eastern Daylight Time)","25781","0","9","","","","","","","","","",""
"","","","","","","","","","","","preload","68","210223","0.0-68.0","","","","","true","","","","","","","","","","","preload","","","1","0","false","[]","[]","[]","","","","","",""
"","","","","","","","","","","","canvas-keyboard-response","69","210525","0.0-69.0","null","null","","","","","","","","","","","","","","fixation","","","1","0","","","","","","","","","",""
"","","","","","","","","","","","canvas-keyboard-response","70","210827","0.0-70.0","null","null","","","","","","","","","","","","","","stimulus","","","1","0","","","","","","","","","",""
"","","","","","","","","","","","canvas-button-response","71","213854","0.0-71.0","3025","bridge","","","","","","","","","","","","","","perceptual","","","1","0","","","","","44","bridge","6","","1",""
"","","","","","","","","","","","canvas-button-response","72","215016","0.0-72.0","1161","2","","","","","","","","","","","","","","confidence","","","1","0","","","","","","","","","","1"
"","","","","","","","","","","","html-keyboard-response","73","216017","0.0-73.0","null","null","","","","","","","","","","","","","","feedback","Tue Oct 14 2025 15:42:54 GMT-0400 (Eastern Daylight Time)","25781","1","0","","","","","","","","","",""
"","","","","","","","","","","","preload","74","216018","0.0-74.0","","","","","true","","","","","","","","","","","preload","","","1","1","false","[]","[]","[]","","","","","",""
"","","","","","","","","","","","canvas-keyboard-response","75","216319","0.0-75.0","null","null","","","","","","","","","","","","","","fixation","","","1","1","","","","","","","","","",""
"","","","","","","","","","","","canvas-keyboard-response","76","216620","0.0-76.0","null","null","","","","","","","","","","","","","","stimulus","","","1","1","","","","","","","","","",""
"","","","","","","","","","","","canvas-button-response","77","220064","0.0-77.0","3443","cat","","","","","","","","","","","","","","perceptual","","","1","1","","","","","47","bridge","10","","0",""
"","","","","","","","","","","","canvas-button-response","78","221234","0.0-78.0","1168","2","","","","","","","","","","","","","","confidence","","","1","1","","","","","","","","","","1"
"","","","","","","","","","","","html-keyboard-response","79","222236","0.0-79.0","null","null","","","","","","","","","","","","","","feedback","Tue Oct 14 2025 15:43:00 GMT-0400 (Eastern Daylight Time)","25781","1","1","","","","","","","","","",""
"","","","","","","","","","","","preload","80","222237","0.0-80.0","","","","","true","","","","","","","","","","","preload","","","1","2","false","[]","[]","[]","","","","","",""
"","","","","","","","","","","","canvas-keyboard-response","81","222540","0.0-81.0","null","null","","","","","","","","","","","","","","fixation","","","1","2","","","","","","","","","",""
"","","","","","","","","","","","canvas-keyboard-response","82","222842","0.0-82.0","null","null","","","","","","","","","","","","","","stimulus","","","1","2","","","","","","","","","",""
"","","","","","","","","","","","canvas-button-response","83","226207","0.0-83.0","3363","bed","","","","","","","","","","","","","","perceptual","","","1","2","","","","","37","bed","10","","1",""
"","","","","","","","","","","","canvas-button-response","84","227108","0.0-84.0","900","4","","","","","","","","","","","","","","confidence","","","1","2","","","","","","","","","","2"
"","","","","","","","","","","","html-keyboard-response","85","228110","0.0-85.0","null","null","","","","","","","","","","","","","","feedback","Tue Oct 14 2025 15:43:06 GMT-0400 (Eastern Daylight Time)","25781","1","2","","","","","","","","","",""
"","","","","","","","","","","","preload","86","228111","0.0-86.0","","","","","true","","","","","","","","","","","preload","","","1","3","false","[]","[]","[]","","","","","",""
"","","","","","","","","","","","canvas-keyboard-response","87","228414","0.0-87.0","null","null","","","","","","","","","","","","","","fixation","","","1","3","","","","","","","","","",""
"","","","","","","","","","","","canvas-keyboard-response","88","228716","0.0-88.0","null","null","","","","","","","","","","","","","","stimulus","","","1","3","","","","","","","","","",""
"","","","","","","","","","","","canvas-button-response","89","230185","0.0-89.0","1466","house","","","","","","","","","","","","","","perceptual","","","1","3","","","","","17","car","10","","0",""
"","","","","","","","","","","","canvas-button-response","90","230952","0.0-90.0","766","6","","","","","","","","","","","","","","confidence","","","1","3","","","","","","","","","","2"
"","","","","","","","","","","","html-keyboard-response","91","231955","0.0-91.0","null","null","","","","","","","","","","","","","","feedback","Tue Oct 14 2025 15:43:10 GMT-0400 (Eastern Daylight Time)","25781","1","3","","","","","","","","","",""
"","","","","","","","","","","","preload","92","231956","0.0-92.0","","","","","true","","","","","","","","","","","preload","","","1","4","false","[]","[]","[]","","","","","",""
"","","","","","","","","","","","canvas-keyboard-response","93","232259","0.0-93.0","null","null","","","","","","","","","","","","","","fixation","","","1","4","","","","","","","","","",""
"","","","","","","","","","","","canvas-keyboard-response","94","232561","0.0-94.0","null","null","","","","","","","","","","","","","","stimulus","","","1","4","","","","","","","","","",""
"","","","","","","","","","","","canvas-button-response","95","233686","0.0-95.0","1124","flower","","","","","","","","","","","","","","perceptual","","","1","4","","","","","57","flower","10","","1",""
"","","","","","","","","","","","canvas-button-response","96","234651","0.0-96.0","964","8","","","","","","","","","","","","","","confidence","","","1","4","","","","","","","","","","3"
"","","","","","","","","","","","html-keyboard-response","97","235654","0.0-97.0","null","null","","","","","","","","","","","","","","feedback","Tue Oct 14 2025 15:43:13 GMT-0400 (Eastern Daylight Time)","25781","1","4","","","","","","","","","",""
"","","","","","","","","","","","preload","98","235654","0.0-98.0","","","","","true","","","","","","","","","","","preload","","","1","5","false","[]","[]","[]","","","","","",""
"","","","","","","","","","","","canvas-keyboard-response","99","235956","0.0-99.0","null","null","","","","","","","","","","","","","","fixation","","","1","5","","","","","","","","","",""
"","","","","","","","","","","","canvas-keyboard-response","100","236259","0.0-100.0","null","null","","","","","","","","","","","","","","stimulus","","","1","5","","","","","","","","","",""
"","","","","","","","","","","","canvas-button-response","101","237171","0.0-101.0","911","knife","","","","","","","","","","","","","","perceptual","","","1","5","","","","","97","knife","10","","1",""
"","","","","","","","","","","","canvas-button-response","102","237957","0.0-102.0","784","8","","","","","","","","","","","","","","confidence","","","1","5","","","","","","","","","","4"
"","","","","","","","","","","","html-keyboard-response","103","238960","0.0-103.0","null","null","","","","","","","","","","","","","","feedback","Tue Oct 14 2025 15:43:17 GMT-0400 (Eastern Daylight Time)","25781","1","5","","","","","","","","","",""
"","","","","","","","","","","","preload","104","238961","0.0-104.0","","","","","true","","","","","","","","","","","preload","","","1","6","false","[]","[]","[]","","","","","",""
"","","","","","","","","","","","canvas-keyboard-response","105","239264","0.0-105.0","null","null","","","","","","","","","","","","","","fixation","","","1","6","","","","","","","","","",""
"","","","","","","","","","","","canvas-keyboard-response","106","239568","0.0-106.0","null","null","","","","","","","","","","","","","","stimulus","","","1","6","","","","","","","","","",""
"","","","","","","","","","","","canvas-button-response","107","240877","0.0-107.0","1307","train","","","","","","","","","","","","","","perceptual","","","1","6","","","","","64","train","6","","1",""
"","","","","","","","","","","","canvas-button-response","108","241737","0.0-108.0","859","8","","","","","","","","","","","","","","confidence","","","1","6","","","","","","","","","","5"
"","","","","","","","","","","","html-keyboard-response","109","242740","0.0-109.0","null","null","","","","","","","","","","","","","","feedback","Tue Oct 14 2025 15:43:21 GMT-0400 (Eastern Daylight Time)","25781","1","6","","","","","","","","","",""
"","","","","","","","","","","","preload","110","242741","0.0-110.0","","","","","true","","","","","","","","","","","preload","","","1","7","false","[]","[]","[]","","","","","",""
"","","","","","","","","","","","canvas-keyboard-response","111","243044","0.0-111.0","null","null","","","","","","","","","","","","","","fixation","","","1","7","","","","","","","","","",""
"","","","","","","","","","","","canvas-keyboard-response","112","243347","0.0-112.0","null","null","","","","","","","","","","","","","","stimulus","","","1","7","","","","","","","","","",""
"","","","","","","","","","","","canvas-button-response","113","245762","0.0-113.0","2413","elephant","","","","","","","","","","","","","","perceptual","","","1","7","","","","","87","elephant","10","","1",""
"","","","","","","","","","","","canvas-button-response","114","246465","0.0-114.0","702","7","","","","","","","","","","","","","","confidence","","","1","7","","","","","","","","","","6"
"","","","","","","","","","","","html-keyboard-response","115","247468","0.0-115.0","null","null","","","","","","","","","","","","","","feedback","Tue Oct 14 2025 15:43:25 GMT-0400 (Eastern Daylight Time)","25781","1","7","","","","","","","","","",""
"","","","","","","","","","","","preload","116","247469","0.0-116.0","","","","","true","","","","","","","","","","","preload","","","1","8","false","[]","[]","[]","","","","","",""
"","","","","","","","","","","","canvas-keyboard-response","117","247772","0.0-117.0","null","null","","","","","","","","","","","","","","fixation","","","1","8","","","","","","","","","",""
"","","","","","","","","","","","canvas-keyboard-response","118","248074","0.0-118.0","null","null","","","","","","","","","","","","","","stimulus","","","1","8","","","","","","","","","",""
"","","","","","","","","","","","canvas-button-response","119","252829","0.0-119.0","4753","flower","","","","","","","","","","","","","","perceptual","","","1","8","","","","","54","flower","6","","1",""
"","","","","","","","","","","","canvas-button-response","120","253712","0.0-120.0","882","3","","","","","","","","","","","","","","confidence","","","1","8","","","","","","","","","","7"
"","","","","","","","","","","","html-keyboard-response","121","254714","0.0-121.0","null","null","","","","","","","","","","","","","","feedback","Tue Oct 14 2025 15:43:33 GMT-0400 (Eastern Daylight Time)","25781","1","8","","","","","","","","","",""
"","","","","","","","","","","","preload","122","254715","0.0-122.0","","","","","true","","","","","","","","","","","preload","","","1","9","false","[]","[]","[]","","","","","",""
"","","","","","","","","","","","canvas-keyboard-response","123","255015","0.0-123.0","null","null","","","","","","","","","","","","","","fixation","","","1","9","","","","","","","","","",""
"","","","","","","","","","","","canvas-keyboard-response","124","255317","0.0-124.0","null","null","","","","","","","","","","","","","","stimulus","","","1","9","","","","","","","","","",""
"","","","","","","","","","","","canvas-button-response","125","256780","0.0-125.0","1462","phone","","","","","","","","","","","","","","perceptual","","","1","9","","","","","94","knife","6","","0",""
"","","","","","","","","","","","canvas-button-response","126","257647","0.0-126.0","866","3","","","","","","","","","","","","","","confidence","","","1","9","","","","","","","","","","7"
"","","","","","","","","","","","html-keyboard-response","127","258649","0.0-127.0","null","null","","","","","","","","","","","","","","feedback","Tue Oct 14 2025 15:43:36 GMT-0400 (Eastern Daylight Time)","25781","1","9","","","","","","","","","",""
"","","","","","","","","","","","preload","128","258649","0.0-128.0","","","","","true","","","","","","","","","","","preload","","","1","10","false","[]","[]","[]","","","","","",""
"","","","","","","","","","","","canvas-keyboard-response","129","258952","0.0-129.0","null","null","","","","","","","","","","","","","","fixation","","","1","10","","","","","","","","","",""
"","","","","","","","","","","","canvas-keyboard-response","130","259255","0.0-130.0","null","null","","","","","","","","","","","","","","stimulus","","","1","10","","","","","","","","","",""
"","","","","","","","","","","","canvas-button-response","131","260501","0.0-131.0","1245","bed","","","","","","","","","","","","","","perceptual","","","1","10","","","","","34","bed","6","","1",""
"","","","","","","","","","","","canvas-button-response","132","261533","0.0-132.0","1030","4","","","","","","","","","","","","","","confidence","","","1","10","","","","","","","","","","8"
"","","","","","","","","","","","html-keyboard-response","133","262536","0.0-133.0","null","null","","","","","","","","","","","","","","feedback","Tue Oct 14 2025 15:43:40 GMT-0400 (Eastern Daylight Time)","25781","1","10","","","","","","","","","",""
"","","","","","","","","","","","preload","134","262537","0.0-134.0","","","","","true","","","","","","","","","","","preload","","","1","11","false","[]","[]","[]","","","","","",""
"","","","","","","","","","","","canvas-keyboard-response","135","262839","0.0-135.0","null","null","","","","","","","","","","","","","","fixation","","","1","11","","","","","","","","","",""
"","","","","","","","","","","","canvas-keyboard-response","136","263142","0.0-136.0","null","null","","","","","","","","","","","","","","stimulus","","","1","11","","","","","","","","","",""
"","","","","","","","","","","","canvas-button-response","137","273664","0.0-137.0","10521","bridge","","","","","","","","","","","","","","perceptual","","","1","11","","","","","7","house","10","","0",""
"","","","","","","","","","","","canvas-button-response","138","274776","0.0-138.0","1111","2","","","","","","","","","","","","","","confidence","","","1","11","","","","","","","","","","8"
"","","","","","","","","","","","html-keyboard-response","139","275777","0.0-139.0","null","null","","","","","","","","","","","","","","feedback","Tue Oct 14 2025 15:43:54 GMT-0400 (Eastern Daylight Time)","25781","1","11","","","","","","","","","",""
"","","","","","","","","","","","preload","140","275778","0.0-140.0","","","","","true","","","","","","","","","","","preload","","","1","12","false","[]","[]","[]","","","","","",""
"","","","","","","","","","","","canvas-keyboard-response","141","276081","0.0-141.0","null","null","","","","","","","","","","","","","","fixation","","","1","12","","","","","","","","","",""
"","","","","","","","","","","","canvas-keyboard-response","142","276384","0.0-142.0","null","null","","","","","","","","","","","","","","stimulus","","","1","12","","","","","","","","","",""
"","","","","","","","","","","","canvas-button-response","143","279791","0.0-143.0","3405","train","","","","","","","","","","","","","","perceptual","","","1","12","","","","","27","phone","10","","0",""
"","","","","","","","","","","","canvas-button-response","144","280707","0.0-144.0","915","4","","","","","","","","","","","","","","confidence","","","1","12","","","","","","","","","","8"
"","","","","","","","","","","","html-keyboard-response","145","281709","0.0-145.0","null","null","","","","","","","","","","","","","","feedback","Tue Oct 14 2025 15:44:00 GMT-0400 (Eastern Daylight Time)","25781","1","12","","","","","","","","","",""
"","","","","","","","","","","","preload","146","281710","0.0-146.0","","","","","true","","","","","","","","","","","preload","","","1","13","false","[]","[]","[]","","","","","",""
"","","","","","","","","","","","canvas-keyboard-response","147","282012","0.0-147.0","null","null","","","","","","","","","","","","","","fixation","","","1","13","","","","","","","","","",""
"","","","","","","","","","","","canvas-keyboard-response","148","282314","0.0-148.0","null","null","","","","","","","","","","","","","","stimulus","","","1","13","","","","","","","","","",""
"","","","","","","","","","","","canvas-button-response","149","284258","0.0-149.0","1942","train","","","","","","","","","","","","","","perceptual","","","1","13","","","","","67","train","10","","1",""
"","","","","","","","","","","","canvas-button-response","150","285214","0.0-150.0","956","3","","","","","","","","","","","","","","confidence","","","1","13","","","","","","","","","","9"
"","","","","","","","","","","","html-keyboard-response","151","286217","0.0-151.0","null","null","","","","","","","","","","","","","","feedback","Tue Oct 14 2025 15:44:04 GMT-0400 (Eastern Daylight Time)","25781","1","13","","","","","","","","","",""
"","","","","","","","","","","","preload","152","286219","0.0-152.0","","","","","true","","","","","","","","","","","preload","","","1","14","false","[]","[]","[]","","","","","",""
"","","","","","","","","","","","canvas-keyboard-response","153","286522","0.0-153.0","null","null","","","","","","","","","","","","","","fixation","","","1","14","","","","","","","","","",""
"","","","","","","","","","","","canvas-keyboard-response","154","286824","0.0-154.0","null","null","","","","","","","","","","","","","","stimulus","","","1","14","","","","","","","","","",""
"","","","","","","","","","","","canvas-button-response","155","287882","0.0-155.0","1055","house","","","","","","","","","","","","","","perceptual","","","1","14","","","","","4","house","6","","1",""
"","","","","","","","","","","","canvas-button-response","156","288642","0.0-156.0","759","8","","","","","","","","","","","","","","confidence","","","1","14","","","","","","","","","","10"
"","","","","","","","","","","","html-keyboard-response","157","289644","0.0-157.0","null","null","","","","","","","","","","","","","","feedback","Tue Oct 14 2025 15:44:07 GMT-0400 (Eastern Daylight Time)","25781","1","14","","","","","","","","","",""
"","","","","","","","","","","","preload","158","289645","0.0-158.0","","","","","true","","","","","","","","","","","preload","","","1","15","false","[]","[]","[]","","","","","",""
"","","","","","","","","","","","canvas-keyboard-response","159","289948","0.0-159.0","null","null","","","","","","","","","","","","","","fixation","","","1","15","","","","","","","","","",""
"","","","","","","","","","","","canvas-keyboard-response","160","290251","0.0-160.0","null","null","","","","","","","","","","","","","","stimulus","","","1","15","","","","","","","","","",""
"","","","","","","","","","","","canvas-button-response","161","291326","0.0-161.0","1073","elephant","","","","","","","","","","","","","","perceptual","","","1","15","","","","","84","elephant","6","","1",""
"","","","","","","","","","","","canvas-button-response","162","292046","0.0-162.0","719","6","","","","","","","","","","","","","","confidence","","","1","15","","","","","","","","","","11"
"","","","","","","","","","","","html-keyboard-response","163","293049","0.0-163.0","null","null","","","","","","","","","","","","","","feedback","Tue Oct 14 2025 15:44:11 GMT-0400 (Eastern Daylight Time)","25781","1","15","","","","","","","","","",""
"","","","","","","","","","","","preload","164","293050","0.0-164.0","","","","","true","","","","","","","","","","","preload","","","1","16","false","[]","[]","[]","","","","","",""
"","","","","","","","","","","","canvas-keyboard-response","165","293354","0.0-165.0","null","null","","","","","","","","","","","","","","fixation","","","1","16","","","","","","","","","",""
"","","","","","","","","","","","canvas-keyboard-response","166","293657","0.0-166.0","null","null","","","","","","","","","","","","","","stimulus","","","1","16","","","","","","","","","",""
"","","","","","","","","","","","canvas-button-response","167","294599","0.0-167.0","940","cat","","","","","","","","","","","","","","perceptual","","","1","16","","","","","74","cat","6","","1",""
"","","","","","","","","","","","canvas-button-response","168","295361","0.0-168.0","761","8","","","","","","","","","","","","","","confidence","","","1","16","","","","","","","","","","12"
"","","","","","","","","","","","html-keyboard-response","169","296364","0.0-169.0","null","null","","","","","","","","","","","","","","feedback","Tue Oct 14 2025 15:44:14 GMT-0400 (Eastern Daylight Time)","25781","1","16","","","","","","","","","",""
"","","","","","","","","","","","preload","170","296365","0.0-170.0","","","","","true","","","","","","","","","","","preload","","","1","17","false","[]","[]","[]","","","","","",""
"","","","","","","","","","","","canvas-keyboard-response","171","296667","0.0-171.0","null","null","","","","","","","","","","","","","","fixation","","","1","17","","","","","","","","","",""
"","","","","","","","","","","","canvas-keyboard-response","172","296971","0.0-172.0","null","null","","","","","","","","","","","","","","stimulus","","","1","17","","","","","","","","","",""
"","","","","","","","","","","","canvas-button-response","173","298027","0.0-173.0","1054","phone","","","","","","","","","","","","","","perceptual","","","1","17","","","","","24","phone","6","","1",""
"","","","","","","","","","","","canvas-button-response","174","298739","0.0-174.0","711","9","","","","","","","","","","","","","","confidence","","","1","17","","","","","","","","","","13"
"","","","","","","","","","","","html-keyboard-response","175","299741","0.0-175.0","null","null","","","","","","","","","","","","","","feedback","Tue Oct 14 2025 15:44:18 GMT-0400 (Eastern Daylight Time)","25781","1","17","","","","","","","","","",""
"","","","","","","","","","","","preload","176","299742","0.0-176.0","","","","","true","","","","","","","","","","","preload","","","1","18","false","[]","[]","[]","","","","","",""
"","","","","","","","","","","","canvas-keyboard-response","177","300044","0.0-177.0","null","null","","","","","","","","","","","","","","fixation","","","1","18","","","","","","","","","",""
"","","","","","","","","","","","canvas-keyboard-response","178","300347","0.0-178.0","null","null","","","","","","","","","","","","","","stimulus","","","1","18","","","","","","","","","",""
"","","","","","","","","","","","canvas-button-response","179","302208","0.0-179.0","1859","knife","","","","","","","","","","","","","","perceptual","","","1","18","","","","","77","cat","10","","0",""
"","","","","","","","","","","","canvas-button-response","180","303035","0.0-180.0","825","3","","","","","","","","","","","","","","confidence","","","1","18","","","","","","","","","","13"
"","","","","","","","","","","","html-keyboard-response","181","304037","0.0-181.0","null","null","","","","","","","","","","","","","","feedback","Tue Oct 14 2025 15:44:22 GMT-0400 (Eastern Daylight Time)","25781","1","18","","","","","","","","","",""
"","","","","","","","","","","","preload","182","304039","0.0-182.0","","","","","true","","","","","","","","","","","preload","","","1","19","false","[]","[]","[]","","","","","",""
"","","","","","","","","","","","canvas-keyboard-response","183","304342","0.0-183.0","null","null","","","","","","","","","","","","","","fixation","","","1","19","","","","","","","","","",""
"","","","","","","","","","","","canvas-keyboard-response","184","304645","0.0-184.0","null","null","","","","","","","","","","","","","","stimulus","","","1","19","","","","","","","","","",""
"","","","","","","","","","","","canvas-button-response","185","306266","0.0-185.0","1619","train","","","","","","","","","","","","","","perceptual","","","1","19","","","","","14","car","6","","0",""
"","","","","","","","","","","","canvas-button-response","186","307043","0.0-186.0","775","5","","","","","","","","","","","","","","confidence","","","1","19","","","","","","","","","","13"
"","","","","","","","","","","","html-keyboard-response","187","308045","0.0-187.0","null","null","","","","","","","","","","","","","","feedback","Tue Oct 14 2025 15:44:26 GMT-0400 (Eastern Daylight Time)","25781","1","19","","","","","","","","","",""
"","","","","","","","","","","","html-button-response","188","311322","0.0-188.0","3275","0","","","","","","","","","","","","","","start experiment","Tue Oct 14 2025 15:44:27 GMT-0400 (Eastern Daylight Time)","25781","1","19","","","","","","","","","",""
"","","","","","","","","","","","preload","189","311323","0.0-189.0","","","","","true","","","","","","","","","","","preload","","","2","0","false","[]","[]","[]","","","","","",""
"","","","","","","","","","","","canvas-keyboard-response","190","311624","0.0-190.0","null","null","","","","","","","","","","","","","","fixation","","","2","0","","","","","","","","","",""
"","","","","","","","","","","","canvas-keyboard-response","191","311927","0.0-191.0","null","null","","","","","","","","","","","","","","stimulus","","","2","0","","","","","","","","","",""
"","","","","","","","","","","","canvas-button-response","192","314545","0.0-192.0","2616","knife","","","","","","","","","","","","","","perceptual","","","2","0","","","","","92","phone","6","0","0",""
"","","","","","","","","","","","canvas-button-response","193","315151","0.0-193.0","604","5","","","","","","","","","","","","","","confidence","","","2","0","","","","","","","","","","0"
"","","","","","","","","","","","preload","194","315151","0.0-194.0","","","","","true","","","","","","","","","","","preload","","","2","1","false","[]","[]","[]","","","","","",""
"","","","","","","","","","","","canvas-keyboard-response","195","315454","0.0-195.0","null","null","","","","","","","","","","","","","","fixation","","","2","1","","","","","","","","","",""
"","","","","","","","","","","","canvas-keyboard-response","196","315757","0.0-196.0","null","null","","","","","","","","","","","","","","stimulus","","","2","1","","","","","","","","","",""
"","","","","","","","","","","","canvas-button-response","197","319207","0.0-197.0","3449","knife","","","","","","","","","","","","","","perceptual","","","2","1","","","","","77","car","10","0","0",""
"","","","","","","","","","","","canvas-button-response","198","320599","0.0-198.0","1391","4","","","","","","","","","","","","","","confidence","","","2","1","","","","","","","","","","0"
"","","","","","","","","","","","preload","199","320599","0.0-199.0","","","","","true","","","","","","","","","","","preload","","","2","2","false","[]","[]","[]","","","","","",""
"","","","","","","","","","","","canvas-keyboard-response","200","320901","0.0-200.0","null","null","","","","","","","","","","","","","","fixation","","","2","2","","","","","","","","","",""
"","","","","","","","","","","","canvas-keyboard-response","201","321203","0.0-201.0","null","null","","","","","","","","","","","","","","stimulus","","","2","2","","","","","","","","","",""
"","","","","","","","","","","","canvas-button-response","202","324436","0.0-202.0","3230","train","","","","","","","","","","","","","","perceptual","","","2","2","","","","","382","knife","10","0","0",""
"","","","","","","","","","","","canvas-button-response","203","325417","0.0-203.0","980","2","","","","","","","","","","","","","","confidence","","","2","2","","","","","","","","","","0"
"","","","","","","","","","","","preload","204","325418","0.0-204.0","","","","","true","","","","","","","","","","","preload","","","2","3","false","[]","[]","[]","","","","","",""
"","","","","","","","","","","","canvas-keyboard-response","205","325720","0.0-205.0","null","null","","","","","","","","","","","","","","fixation","","","2","3","","","","","","","","","",""
"","","","","","","","","","","","canvas-keyboard-response","206","326024","0.0-206.0","null","null","","","","","","","","","","","","","","stimulus","","","2","3","","","","","","","","","",""
"","","","","","","","","","","","canvas-button-response","207","327151","0.0-207.0","1126","car","","","","","","","","","","","","","","perceptual","","","2","3","","","","","74","car","10","0","1",""
"","","","","","","","","","","","canvas-button-response","208","328263","0.0-208.0","1111","9","","","","","","","","","","","","","","confidence","","","2","3","","","","","","","","","","1"
"","","","","","","","","","","","preload","209","328263","0.0-209.0","","","","","true","","","","","","","","","","","preload","","","2","4","false","[]","[]","[]","","","","","",""
"","","","","","","","","","","","canvas-keyboard-response","210","328565","0.0-210.0","null","null","","","","","","","","","","","","","","fixation","","","2","4","","","","","","","","","",""
"","","","","","","","","","","","canvas-keyboard-response","211","328867","0.0-211.0","null","null","","","","","","","","","","","","","","stimulus","","","2","4","","","","","","","","","",""
"","","","","","","","","","","","canvas-button-response","212","330153","0.0-212.0","1285","bridge","","","","","","","","","","","","","","perceptual","","","2","4","","","","","196","bridge","10","0","1",""
"","","","","","","","","","","","canvas-button-response","213","330987","0.0-213.0","834","2","","","","","","","","","","","","","","confidence","","","2","4","","","","","","","","","","2"
"","","","","","","","","","","","preload","214","330988","0.0-214.0","","","","","true","","","","","","","","","","","preload","","","2","5","false","[]","[]","[]","","","","","",""
"","","","","","","","","","","","canvas-keyboard-response","215","331290","0.0-215.0","null","null","","","","","","","","","","","","","","fixation","","","2","5","","","","","","","","","",""
"","","","","","","","","","","","canvas-keyboard-response","216","331592","0.0-216.0","null","null","","","","","","","","","","","","","","stimulus","","","2","5","","","","","","","","","",""
"","","","","","","","","","","","canvas-button-response","217","332853","0.0-217.0","1258","bed","","","","","","","","","","","","","","perceptual","","","2","5","","","","","397","knife","10","0","0",""
"","","","","","","","","","","","canvas-button-response","218","333427","0.0-218.0","573","2","","","","","","","","","","","","","","confidence","","","2","5","","","","","","","","","","2"
"","","","","","","","","","","","preload","219","333427","0.0-219.0","","","","","true","","","","","","","","","","","preload","","","2","6","false","[]","[]","[]","","","","","",""
"","","","","","","","","","","","canvas-keyboard-response","220","333729","0.0-220.0","null","null","","","","","","","","","","","","","","fixation","","","2","6","","","","","","","","","",""
"","","","","","","","","","","","canvas-keyboard-response","221","334031","0.0-221.0","null","null","","","","","","","","","","","","","","stimulus","","","2","6","","","","","","","","","",""
"","","","","","","","","","","","canvas-button-response","222","335152","0.0-222.0","1119","bridge","","","","","","","","","","","","","","perceptual","","","2","6","","","","","32","house","10","0","0",""
"","","","","","","","","","","","canvas-button-response","223","336085","0.0-223.0","932","6","","","","","","","","","","","","","","confidence","","","2","6","","","","","","","","","","2"
"","","","","","","","","","","","preload","224","336085","0.0-224.0","","","","","true","","","","","","","","","","","preload","","","2","7","false","[]","[]","[]","","","","","",""
"","","","","","","","","","","","canvas-keyboard-response","225","336387","0.0-225.0","null","null","","","","","","","","","","","","","","fixation","","","2","7","","","","","","","","","",""
"","","","","","","","","","","","canvas-keyboard-response","226","336688","0.0-226.0","null","null","","","","","","","","","","","","","","stimulus","","","2","7","","","","","","","","","",""
"","","","","","","","","","","","canvas-button-response","227","337885","0.0-227.0","1194","flower","","","","","","","","","","","","","","perceptual","","","2","7","","","","","224","flower","10","0","1",""
"","","","","","","","","","","","canvas-button-response","228","338637","0.0-228.0","751","7","","","","","","","","","","","","","","confidence","","","2","7","","","","","","","","","","3"
"","","","","","","","","","","","preload","229","338637","0.0-229.0","","","","","true","","","","","","","","","","","preload","","","2","8","false","[]","[]","[]","","","","","",""
"","","","","","","","","","","","canvas-keyboard-response","230","338939","0.0-230.0","null","null","","","","","","","","","","","","","","fixation","","","2","8","","","","","","","","","",""
"","","","","","","","","","","","canvas-keyboard-response","231","339242","0.0-231.0","null","null","","","","","","","","","","","","","","stimulus","","","2","8","","","","","","","","","",""
"","","","","","","","","","","","canvas-button-response","232","341526","0.0-232.0","2282","house","","","","","","","","","","","","","","perceptual","","","2","8","","","","","181","bridge","10","0","0",""
"","","","","","","","","","","","canvas-button-response","233","342131","0.0-233.0","605","4","","","","","","","","","","","","","","confidence","","","2","8","","","","","","","","","","3"
"","","","","","","","","","","","preload","234","342132","0.0-234.0","","","","","true","","","","","","","","","","","preload","","","2","9","false","[]","[]","[]","","","","","",""
"","","","","","","","","","","","canvas-keyboard-response","235","342435","0.0-235.0","null","null","","","","","","","","","","","","","","fixation","","","2","9","","","","","","","","","",""
"","","","","","","","","","","","canvas-keyboard-response","236","342738","0.0-236.0","null","null","","","","","","","","","","","","","","stimulus","","","2","9","","","","","","","","","",""
"","","","","","","","","","","","canvas-button-response","237","344357","0.0-237.0","1616","house","","","","","","","","","","","","","","perceptual","","","2","9","","","","","20","house","10","0","1",""
"","","","","","","","","","","","canvas-button-response","238","345003","0.0-238.0","645","4","","","","","","","","","","","","","","confidence","","","2","9","","","","","","","","","","4"
"","","","","","","","","","","","preload","239","345004","0.0-239.0","","","","","true","","","","","","","","","","","preload","","","2","10","false","[]","[]","[]","","","","","",""
"","","","","","","","","","","","canvas-keyboard-response","240","345307","0.0-240.0","null","null","","","","","","","","","","","","","","fixation","","","2","10","","","","","","","","","",""
"","","","","","","","","","","","canvas-keyboard-response","241","345610","0.0-241.0","null","null","","","","","","","","","","","","","","stimulus","","","2","10","","","","","","","","","",""
"","","","","","","","","","","","canvas-button-response","242","346427","0.0-242.0","815","house","","","","","","","","","","","","","","perceptual","","","2","10","","","","","8","house","6","0","1",""
"","","","","","","","","","","","canvas-button-response","243","346927","0.0-243.0","498","4","","","","","","","","","","","","","","confidence","","","2","10","","","","","","","","","","5"
"","","","","","","","","","","","preload","244","346927","0.0-244.0","","","","","true","","","","","","","","","","","preload","","","2","11","false","[]","[]","[]","","","","","",""
"","","","","","","","","","","","canvas-keyboard-response","245","347229","0.0-245.0","null","null","","","","","","","","","","","","","","fixation","","","2","11","","","","","","","","","",""
"","","","","","","","","","","","canvas-keyboard-response","246","347532","0.0-246.0","null","null","","","","","","","","","","","","","","stimulus","","","2","11","","","","","","","","","",""
"","","","","","","","","","","","canvas-button-response","247","348342","0.0-247.0","808","house","","","","","","","","","","","","","","perceptual","","","2","11","","","","","14","house","6","0","1",""
"","","","","","","","","","","","canvas-button-response","248","348841","0.0-248.0","498","4","","","","","","","","","","","","","","confidence","","","2","11","","","","","","","","","","6"
"","","","","","","","","","","","preload","249","348841","0.0-249.0","","","","","true","","","","","","","","","","","preload","","","2","12","false","[]","[]","[]","","","","","",""
"","","","","","","","","","","","canvas-keyboard-response","250","349143","0.0-250.0","null","null","","","","","","","","","","","","","","fixation","","","2","12","","","","","","","","","",""
"","","","","","","","","","","","canvas-keyboard-response","251","349446","0.0-251.0","null","null","","","","","","","","","","","","","","stimulus","","","2","12","","","","","","","","","",""
"","","","","","","","","","","","canvas-button-response","252","350747","0.0-252.0","1298","phone","","","","","","","","","","","","","","perceptual","","","2","12","","","","","377","knife","6","0","0",""
"","","","","","","","","","","","canvas-button-response","253","351582","0.0-253.0","834","5","","","","","","","","","","","","","","confidence","","","2","12","","","","","","","","","","6"
"","","","","","","","","","","","preload","254","351583","0.0-254.0","","","","","true","","","","","","","","","","","preload","","","2","13","false","[]","[]","[]","","","","","",""
"","","","","","","","","","","","canvas-keyboard-response","255","351885","0.0-255.0","null","null","","","","","","","","","","","","","","fixation","","","2","13","","","","","","","","","",""
"","","","","","","","","","","","canvas-keyboard-response","256","352187","0.0-256.0","null","null","","","","","","","","","","","","","","stimulus","","","2","13","","","","","","","","","",""
"","","","","","","","","","","","canvas-button-response","257","355403","0.0-257.0","3214","bridge","","","","","","","","","","","","","","perceptual","","","2","13","","","","","359","elephant","10","0","0",""
"","","","","","","","","","","","canvas-button-response","258","356075","0.0-258.0","670","2","","","","","","","","","","","","","","confidence","","","2","13","","","","","","","","","","6"
"","","","","","","","","","","","preload","259","356075","0.0-259.0","","","","","true","","","","","","","","","","","preload","","","2","14","false","[]","[]","[]","","","","","",""
"","","","","","","","","","","","canvas-keyboard-response","260","356378","0.0-260.0","null","null","","","","","","","","","","","","","","fixation","","","2","14","","","","","","","","","",""
"","","","","","","","","","","","canvas-keyboard-response","261","356680","0.0-261.0","null","null","","","","","","","","","","","","","","stimulus","","","2","14","","","","","","","","","",""
"","","","","","","","","","","","canvas-button-response","262","357596","0.0-262.0","914","knife","","","","","","","","","","","","","","perceptual","","","2","14","","","","","385","knife","10","0","1",""
"","","","","","","","","","","","canvas-button-response","263","358439","0.0-263.0","842","8","","","","","","","","","","","","","","confidence","","","2","14","","","","","","","","","","7"
"","","","","","","","","","","","preload","264","358439","0.0-264.0","","","","","true","","","","","","","","","","","preload","","","2","15","false","[]","[]","[]","","","","","",""
"","","","","","","","","","","","canvas-keyboard-response","265","358740","0.0-265.0","null","null","","","","","","","","","","","","","","fixation","","","2","15","","","","","","","","","",""
"","","","","","","","","","","","canvas-keyboard-response","266","359042","0.0-266.0","null","null","","","","","","","","","","","","","","stimulus","","","2","15","","","","","","","","","",""
"","","","","","","","","","","","canvas-button-response","267","360213","0.0-267.0","1169","bridge","","","","","","","","","","","","","","perceptual","","","2","15","","","","","184","bridge","10","0","1",""
"","","","","","","","","","","","canvas-button-response","268","360885","0.0-268.0","671","8","","","","","","","","","","","","","","confidence","","","2","15","","","","","","","","","","8"
"","","","","","","","","","","","preload","269","360885","0.0-269.0","","","","","true","","","","","","","","","","","preload","","","2","16","false","[]","[]","[]","","","","","",""
"","","","","","","","","","","","canvas-keyboard-response","270","361187","0.0-270.0","null","null","","","","","","","","","","","","","","fixation","","","2","16","","","","","","","","","",""
"","","","","","","","","","","","canvas-keyboard-response","271","361488","0.0-271.0","null","null","","","","","","","","","","","","","","stimulus","","","2","16","","","","","","","","","",""
"","","","","","","","","","","","canvas-button-response","272","362522","0.0-272.0","1031","house","","","","","","","","","","","","","","perceptual","","","2","16","","","","","19","house","6","0","1",""
"","","","","","","","","","","","canvas-button-response","273","363151","0.0-273.0","628","7","","","","","","","","","","","","","","confidence","","","2","16","","","","","","","","","","9"
"","","","","","","","","","","","preload","274","363152","0.0-274.0","","","","","true","","","","","","","","","","","preload","","","2","17","false","[]","[]","[]","","","","","",""
"","","","","","","","","","","","canvas-keyboard-response","275","363454","0.0-275.0","null","null","","","","","","","","","","","","","","fixation","","","2","17","","","","","","","","","",""
"","","","","","","","","","","","canvas-keyboard-response","276","363757","0.0-276.0","null","null","","","","","","","","","","","","","","stimulus","","","2","17","","","","","","","","","",""
"","","","","","","","","","","","canvas-button-response","277","364844","0.0-277.0","1086","car","","","","","","","","","","","","","","perceptual","","","2","17","","","","","55","car","6","0","1",""
"","","","","","","","","","","","canvas-button-response","278","365441","0.0-278.0","595","7","","","","","","","","","","","","","","confidence","","","2","17","","","","","","","","","","10"
"","","","","","","","","","","","preload","279","365441","0.0-279.0","","","","","true","","","","","","","","","","","preload","","","2","18","false","[]","[]","[]","","","","","",""
"","","","","","","","","","","","canvas-keyboard-response","280","365743","0.0-280.0","null","null","","","","","","","","","","","","","","fixation","","","2","18","","","","","","","","","",""
"","","","","","","","","","","","canvas-keyboard-response","281","366045","0.0-281.0","null","null","","","","","","","","","","","","","","stimulus","","","2","18","","","","","","","","","",""
"","","","","","","","","","","","canvas-button-response","282","367095","0.0-282.0","1048","elephant","","","","","","","","","","","","","","perceptual","","","2","18","","","","","353","elephant","10","0","1",""
"","","","","","","","","","","","canvas-button-response","283","367789","0.0-283.0","693","8","","","","","","","","","","","","","","confidence","","","2","18","","","","","","","","","","11"
"","","","","","","","","","","","preload","284","367790","0.0-284.0","","","","","true","","","","","","","","","","","preload","","","2","19","false","[]","[]","[]","","","","","",""
"","","","","","","","","","","","canvas-keyboard-response","285","368091","0.0-285.0","null","null","","","","","","","","","","","","","","fixation","","","2","19","","","","","","","","","",""
"","","","","","","","","","","","canvas-keyboard-response","286","368393","0.0-286.0","null","null","","","","","","","","","","","","","","stimulus","","","2","19","","","","","","","","","",""
"","","","","","","","","","","","canvas-button-response","287","370194","0.0-287.0","1799","flower","","","","","","","","","","","","","","perceptual","","","2","19","","","","","115","phone","10","0","0",""
"","","","","","","","","","","","canvas-button-response","288","370856","0.0-288.0","661","4","","","","","","","","","","","","","","confidence","","","2","19","","","","","","","","","","11"
"","","","","","","","","","","","preload","289","370857","0.0-289.0","","","","","true","","","","","","","","","","","preload","","","2","20","false","[]","[]","[]","","","","","",""
"","","","","","","","","","","","canvas-keyboard-response","290","371158","0.0-290.0","null","null","","","","","","","","","","","","","","fixation","","","2","20","","","","","","","","","",""
"","","","","","","","","","","","canvas-keyboard-response","291","371461","0.0-291.0","null","null","","","","","","","","","","","","","","stimulus","","","2","20","","","","","","","","","",""
"","","","","","","","","","","","canvas-button-response","292","373049","0.0-292.0","1588","train","","","","","","","","","","","","","","perceptual","","","2","20","","","","","264","train","10","0","1",""
"","","","","","","","","","","","canvas-button-response","293","373779","0.0-293.0","728","5","","","","","","","","","","","","","","confidence","","","2","20","","","","","","","","","","12"
"","","","","","","","","","","","preload","294","373779","0.0-294.0","","","","","true","","","","","","","","","","","preload","","","2","21","false","[]","[]","[]","","","","","",""
"","","","","","","","","","","","canvas-keyboard-response","295","374081","0.0-295.0","null","null","","","","","","","","","","","","","","fixation","","","2","21","","","","","","","","","",""
"","","","","","","","","","","","canvas-keyboard-response","296","374384","0.0-296.0","null","null","","","","","","","","","","","","","","stimulus","","","2","21","","","","","","","","","",""
"","","","","","","","","","","","canvas-button-response","297","376248","0.0-297.0","1862","bed","","","","","","","","","","","","","","perceptual","","","2","21","","","","","127","bed","6","0","1",""
"","","","","","","","","","","","canvas-button-response","298","376845","0.0-298.0","596","5","","","","","","","","","","","","","","confidence","","","2","21","","","","","","","","","","13"
"","","","","","","","","","","","preload","299","376846","0.0-299.0","","","","","true","","","","","","","","","","","preload","","","2","22","false","[]","[]","[]","","","","","",""
"","","","","","","","","","","","canvas-keyboard-response","300","377148","0.0-300.0","null","null","","","","","","","","","","","","","","fixation","","","2","22","","","","","","","","","",""
"","","","","","","","","","","","canvas-keyboard-response","301","377452","0.0-301.0","null","null","","","","","","","","","","","","","","stimulus","","","2","22","","","","","","","","","",""
"","","","","","","","","","","","canvas-button-response","302","378280","0.0-302.0","826","cat","","","","","","","","","","","","","","perceptual","","","2","22","","","","","192","bridge","10","0","0",""
"","","","","","","","","","","","canvas-button-response","303","378907","0.0-303.0","626","8","","","","","","","","","","","","","","confidence","","","2","22","","","","","","","","","","13"
"","","","","","","","","","","","preload","304","378907","0.0-304.0","","","","","true","","","","","","","","","","","preload","","","2","23","false","[]","[]","[]","","","","","",""
"","","","","","","","","","","","canvas-keyboard-response","305","379208","0.0-305.0","null","null","","","","","","","","","","","","","","fixation","","","2","23","","","","","","","","","",""
"","","","","","","","","","","","canvas-keyboard-response","306","379511","0.0-306.0","null","null","","","","","","","","","","","","","","stimulus","","","2","23","","","","","","","","","",""
"","","","","","","","","","","","canvas-button-response","307","381812","0.0-307.0","2299","car","","","","","","","","","","","","","","perceptual","","","2","23","","","","","64","car","10","0","1",""
"","","","","","","","","","","","canvas-button-response","308","382490","0.0-308.0","676","7","","","","","","","","","","","","","","confidence","","","2","23","","","","","","","","","","14"
"","","","","","","","","","","","preload","309","382491","0.0-309.0","","","","","true","","","","","","","","","","","preload","","","2","24","false","[]","[]","[]","","","","","",""
"","","","","","","","","","","","canvas-keyboard-response","310","382792","0.0-310.0","null","null","","","","","","","","","","","","","","fixation","","","2","24","","","","","","","","","",""
"","","","","","","","","","","","canvas-keyboard-response","311","383094","0.0-311.0","null","null","","","","","","","","","","","","","","stimulus","","","2","24","","","","","","","","","",""
"","","","","","","","","","","","canvas-button-response","312","384249","0.0-312.0","1152","train","","","","","","","","","","","","","","perceptual","","","2","24","","","","","244","train","6","0","1",""
"","","","","","","","","","","","canvas-button-response","313","384838","0.0-313.0","588","7","","","","","","","","","","","","","","confidence","","","2","24","","","","","","","","","","15"
"","","","","","","","","","","","preload","314","384838","0.0-314.0","","","","","true","","","","","","","","","","","preload","","","2","25","false","[]","[]","[]","","","","","",""
"","","","","","","","","","","","canvas-keyboard-response","315","385140","0.0-315.0","null","null","","","","","","","","","","","","","","fixation","","","2","25","","","","","","","","","",""
"","","","","","","","","","","","canvas-keyboard-response","316","385444","0.0-316.0","null","null","","","","","","","","","","","","","","stimulus","","","2","25","","","","","","","","","",""
"","","","","","","","","","","","canvas-button-response","317","386826","0.0-317.0","1380","flower","","","","","","","","","","","","","","perceptual","","","2","25","","","","","159","bed","10","0","0",""
"","","","","","","","","","","","canvas-button-response","318","387496","0.0-318.0","670","7","","","","","","","","","","","","","","confidence","","","2","25","","","","","","","","","","15"
"","","","","","","","","","","","preload","319","387497","0.0-319.0","","","","","true","","","","","","","","","","","preload","","","2","26","false","[]","[]","[]","","","","","",""
"","","","","","","","","","","","canvas-keyboard-response","320","387799","0.0-320.0","null","null","","","","","","","","","","","","","","fixation","","","2","26","","","","","","","","","",""
"","","","","","","","","","","","canvas-keyboard-response","321","388101","0.0-321.0","null","null","","","","","","","","","","","","","","stimulus","","","2","26","","","","","","","","","",""
"","","","","","","","","","","","canvas-button-response","322","389091","0.0-322.0","988","car","","","","","","","","","","","","","","perceptual","","","2","26","","","","","42","car","6","0","1",""
"","","","","","","","","","","","canvas-button-response","323","389705","0.0-323.0","612","8","","","","","","","","","","","","","","confidence","","","2","26","","","","","","","","","","16"
"","","","","","","","","","","","preload","324","389705","0.0-324.0","","","","","true","","","","","","","","","","","preload","","","2","27","false","[]","[]","[]","","","","","",""
"","","","","","","","","","","","canvas-keyboard-response","325","390007","0.0-325.0","null","null","","","","","","","","","","","","","","fixation","","","2","27","","","","","","","","","",""
"","","","","","","","","","","","canvas-keyboard-response","326","390310","0.0-326.0","null","null","","","","","","","","","","","","","","stimulus","","","2","27","","","","","","","","","",""
"","","","","","","","","","","","canvas-button-response","327","391718","0.0-327.0","1406","flower","","","","","","","","","","","","","","perceptual","","","2","27","","","","","275","train","10","0","0",""
"","","","","","","","","","","","canvas-button-response","328","392561","0.0-328.0","842","3","","","","","","","","","","","","","","confidence","","","2","27","","","","","","","","","","16"
"","","","","","","","","","","","preload","329","392561","0.0-329.0","","","","","true","","","","","","","","","","","preload","","","2","28","false","[]","[]","[]","","","","","",""
"","","","","","","","","","","","canvas-keyboard-response","330","392864","0.0-330.0","null","null","","","","","","","","","","","","","","fixation","","","2","28","","","","","","","","","",""
"","","","","","","","","","","","canvas-keyboard-response","331","393167","0.0-331.0","null","null","","","","","","","","","","","","","","stimulus","","","2","28","","","","","","","","","",""
"","","","","","","","","","","","canvas-button-response","332","394778","0.0-332.0","1609","knife","","","","","","","","","","","","","","perceptual","","","2","28","","","","","369","knife","6","0","1",""
"","","","","","","","","","","","canvas-button-response","333","395400","0.0-333.0","621","4","","","","","","","","","","","","","","confidence","","","2","28","","","","","","","","","","17"
"","","","","","","","","","","","preload","334","395400","0.0-334.0","","","","","true","","","","","","","","","","","preload","","","2","29","false","[]","[]","[]","","","","","",""
"","","","","","","","","","","","canvas-keyboard-response","335","395703","0.0-335.0","null","null","","","","","","","","","","","","","","fixation","","","2","29","","","","","","","","","",""
"","","","","","","","","","","","canvas-keyboard-response","336","396006","0.0-336.0","null","null","","","","","","","","","","","","","","stimulus","","","2","29","","","","","","","","","",""
"","","","","","","","","","","","canvas-button-response","337","397944","0.0-337.0","1936","cat","","","","","","","","","","","","","","perceptual","","","2","29","","","","","313","cat","10","0","1",""
"","","","","","","","","","","","canvas-button-response","338","398885","0.0-338.0","940","2","","","","","","","","","","","","","","confidence","","","2","29","","","","","","","","","","18"
"","","","","","","","","","","","preload","339","398885","0.0-339.0","","","","","true","","","","","","","","","","","preload","","","2","30","false","[]","[]","[]","","","","","",""
"","","","","","","","","","","","canvas-keyboard-response","340","399187","0.0-340.0","null","null","","","","","","","","","","","","","","fixation","","","2","30","","","","","","","","","",""
"","","","","","","","","","","","canvas-keyboard-response","341","399490","0.0-341.0","null","null","","","","","","","","","","","","","","stimulus","","","2","30","","","","","","","","","",""
"","","","","","","","","","","","canvas-button-response","342","403636","0.0-342.0","4144","house","","","","","","","","","","","","","","perceptual","","","2","30","","","","","140","bed","10","0","0",""
"","","","","","","","","","","","canvas-button-response","343","404324","0.0-343.0","688","1","","","","","","","","","","","","","","confidence","","","2","30","","","","","","","","","","18"
"","","","","","","","","","","","preload","344","404325","0.0-344.0","","","","","true","","","","","","","","","","","preload","","","2","31","false","[]","[]","[]","","","","","",""
"","","","","","","","","","","","canvas-keyboard-response","345","404627","0.0-345.0","null","null","","","","","","","","","","","","","","fixation","","","2","31","","","","","","","","","",""
"","","","","","","","","","","","canvas-keyboard-response","346","404928","0.0-346.0","null","null","","","","","","","","","","","","","","stimulus","","","2","31","","","","","","","","","",""
"","","","","","","","","","","","canvas-button-response","347","407679","0.0-347.0","2749","cat","","","","","","","","","","","","","","perceptual","","","2","31","","","","","303","cat","10","0","1",""
"","","","","","","","","","","","canvas-button-response","348","408514","0.0-348.0","834","1","","","","","","","","","","","","","","confidence","","","2","31","","","","","","","","","","19"
"","","","","","","","","","","","preload","349","408514","0.0-349.0","","","","","true","","","","","","","","","","","preload","","","2","32","false","[]","[]","[]","","","","","",""
"","","","","","","","","","","","canvas-keyboard-response","350","408817","0.0-350.0","null","null","","","","","","","","","","","","","","fixation","","","2","32","","","","","","","","","",""
"","","","","","","","","","","","canvas-keyboard-response","351","409120","0.0-351.0","null","null","","","","","","","","","","","","","","stimulus","","","2","32","","","","","","","","","",""
"","","","","","","","","","","","canvas-button-response","352","409896","0.0-352.0","774","car","","","","","","","","","","","","","","perceptual","","","2","32","","","","","78","car","10","0","1",""
"","","","","","","","","","","","canvas-button-response","353","410984","0.0-353.0","1087","6","","","","","","","","","","","","","","confidence","","","2","32","","","","","","","","","","20"
"","","","","","","","","","","","preload","354","410985","0.0-354.0","","","","","true","","","","","","","","","","","preload","","","2","33","false","[]","[]","[]","","","","","",""
"","","","","","","","","","","","canvas-keyboard-response","355","411287","0.0-355.0","null","null","","","","","","","","","","","","","","fixation","","","2","33","","","","","","","","","",""
"","","","","","","","","","","","canvas-keyboard-response","356","411589","0.0-356.0","null","null","","","","","","","","","","","","","","stimulus","","","2","33","","","","","","","","","",""
"","","","","","","","","","","","canvas-button-response","357","416236","0.0-357.0","4646","train","","","","","","","","","","","","","","perceptual","","","2","33","","","","","362","knife","6","0","0",""
"","","","","","","","","","","","canvas-button-response","358","417120","0.0-358.0","882","1","","","","","","","","","","","","","","confidence","","","2","33","","","","","","","","","","20"
"","","","","","","","","","","","preload","359","417120","0.0-359.0","","","","","true","","","","","","","","","","","preload","","","2","34","false","[]","[]","[]","","","","","",""
"","","","","","","","","","","","canvas-keyboard-response","360","417423","0.0-360.0","null","null","","","","","","","","","","","","","","fixation","","","2","34","","","","","","","","","",""
"","","","","","","","","","","","canvas-keyboard-response","361","417725","0.0-361.0","null","null","","","","","","","","","","","","","","stimulus","","","2","34","","","","","","","","","",""
"","","","","","","","","","","","canvas-button-response","362","419680","0.0-362.0","1953","flower","","","","","","","","","","","","","","perceptual","","","2","34","","","","","10","house","6","0","0",""
"","","","","","","","","","","","canvas-button-response","363","420498","0.0-363.0","817","1","","","","","","","","","","","","","","confidence","","","2","34","","","","","","","","","","20"
"","","","","","","","","","","","preload","364","420499","0.0-364.0","","","","","true","","","","","","","","","","","preload","","","2","35","false","[]","[]","[]","","","","","",""
"","","","","","","","","","","","canvas-keyboard-response","365","420801","0.0-365.0","null","null","","","","","","","","","","","","","","fixation","","","2","35","","","","","","","","","",""
"","","","","","","","","","","","canvas-keyboard-response","366","421104","0.0-366.0","null","null","","","","","","","","","","","","","","stimulus","","","2","35","","","","","","","","","",""
"","","","","","","","","","","","canvas-button-response","367","422208","0.0-367.0","1101","house","","","","","","","","","","","","","","perceptual","","","2","35","","","","","35","house","10","0","1",""
"","","","","","","","","","","","canvas-button-response","368","422919","0.0-368.0","710","7","","","","","","","","","","","","","","confidence","","","2","35","","","","","","","","","","21"
"","","","","","","","","","","","preload","369","422920","0.0-369.0","","","","","true","","","","","","","","","","","preload","","","2","36","false","[]","[]","[]","","","","","",""
"","","","","","","","","","","","canvas-keyboard-response","370","423221","0.0-370.0","null","null","","","","","","","","","","","","","","fixation","","","2","36","","","","","","","","","",""
"","","","","","","","","","","","canvas-keyboard-response","371","423524","0.0-371.0","null","null","","","","","","","","","","","","","","stimulus","","","2","36","","","","","","","","","",""
"","","","","","","","","","","","canvas-button-response","372","424261","0.0-372.0","735","car","","","","","","","","","","","","","","perceptual","","","2","36","","","","","56","car","6","0","1",""
"","","","","","","","","","","","canvas-button-response","373","424900","0.0-373.0","638","7","","","","","","","","","","","","","","confidence","","","2","36","","","","","","","","","","22"
"","","","","","","","","","","","preload","374","424900","0.0-374.0","","","","","true","","","","","","","","","","","preload","","","2","37","false","[]","[]","[]","","","","","",""
"","","","","","","","","","","","canvas-keyboard-response","375","425202","0.0-375.0","null","null","","","","","","","","","","","","","","fixation","","","2","37","","","","","","","","","",""
"","","","","","","","","","","","canvas-keyboard-response","376","425504","0.0-376.0","null","null","","","","","","","","","","","","","","stimulus","","","2","37","","","","","","","","","",""
"","","","","","","","","","","","canvas-button-response","377","426830","0.0-377.0","1323","train","","","","","","","","","","","","","","perceptual","","","2","37","","","","","246","train","6","0","1",""
"","","","","","","","","","","","canvas-button-response","378","427721","0.0-378.0","890","7","","","","","","","","","","","","","","confidence","","","2","37","","","","","","","","","","23"
"","","","","","","","","","","","preload","379","427722","0.0-379.0","","","","","true","","","","","","","","","","","preload","","","2","38","false","[]","[]","[]","","","","","",""
"","","","","","","","","","","","canvas-keyboard-response","380","428023","0.0-380.0","null","null","","","","","","","","","","","","","","fixation","","","2","38","","","","","","","","","",""
"","","","","","","","","","","","canvas-keyboard-response","381","428324","0.0-381.0","null","null","","","","","","","","","","","","","","stimulus","","","2","38","","","","","","","","","",""
"","","","","","","","","","","","canvas-button-response","382","434961","0.0-382.0","6635","bridge","","","","","","","","","","","","","","perceptual","","","2","38","","","","","212","flower","6","0","0",""
"","","","","","","","","","","","canvas-button-response","383","435753","0.0-383.0","791","2","","","","","","","","","","","","","","confidence","","","2","38","","","","","","","","","","23"
"","","","","","","","","","","","preload","384","435754","0.0-384.0","","","","","true","","","","","","","","","","","preload","","","2","39","false","[]","[]","[]","","","","","",""
"","","","","","","","","","","","canvas-keyboard-response","385","436056","0.0-385.0","null","null","","","","","","","","","","","","","","fixation","","","2","39","","","","","","","","","",""
"","","","","","","","","","","","canvas-keyboard-response","386","436360","0.0-386.0","null","null","","","","","","","","","","","","","","stimulus","","","2","39","","","","","","","","","",""
"","","","","","","","","","","","canvas-button-response","387","437570","0.0-387.0","1208","cat","","","","","","","","","","","","","","perceptual","","","2","39","","","","","108","phone","10","0","0",""
"","","","","","","","","","","","canvas-button-response","388","438241","0.0-388.0","670","6","","","","","","","","","","","","","","confidence","","","2","39","","","","","","","","","","23"
"","","","","","","","","","","","preload","389","438242","0.0-389.0","","","","","true","","","","","","","","","","","preload","","","2","40","false","[]","[]","[]","","","","","",""
"","","","","","","","","","","","canvas-keyboard-response","390","438544","0.0-390.0","null","null","","","","","","","","","","","","","","fixation","","","2","40","","","","","","","","","",""
"","","","","","","","","","","","canvas-keyboard-response","391","438846","0.0-391.0","null","null","","","","","","","","","","","","","","stimulus","","","2","40","","","","","","","","","",""
"","","","","","","","","","","","canvas-button-response","392","441431","0.0-392.0","2583","knife","","","","","","","","","","","","","","perceptual","","","2","40","","","","","365","knife","6","0","1",""
"","","","","","","","","","","","canvas-button-response","393","442831","0.0-393.0","1398","2","","","","","","","","","","","","","","confidence","","","2","40","","","","","","","","","","24"
"","","","","","","","","","","","preload","394","442831","0.0-394.0","","","","","true","","","","","","","","","","","preload","","","2","41","false","[]","[]","[]","","","","","",""
"","","","","","","","","","","","canvas-keyboard-response","395","443134","0.0-395.0","null","null","","","","","","","","","","","","","","fixation","","","2","41","","","","","","","","","",""
"","","","","","","","","","","","canvas-keyboard-response","396","443436","0.0-396.0","null","null","","","","","","","","","","","","","","stimulus","","","2","41","","","","","","","","","",""
"","","","","","","","","","","","canvas-button-response","397","444638","0.0-397.0","1201","cat","","","","","","","","","","","","","","perceptual","","","2","41","","","","","117","phone","10","0","0",""
"","","","","","","","","","","","canvas-button-response","398","446513","0.0-398.0","1873","2","","","","","","","","","","","","","","confidence","","","2","41","","","","","","","","","","24"
"","","","","","","","","","","","preload","399","446513","0.0-399.0","","","","","true","","","","","","","","","","","preload","","","2","42","false","[]","[]","[]","","","","","",""
"","","","","","","","","","","","canvas-keyboard-response","400","446815","0.0-400.0","null","null","","","","","","","","","","","","","","fixation","","","2","42","","","","","","","","","",""
"","","","","","","","","","","","canvas-keyboard-response","401","447117","0.0-401.0","null","null","","","","","","","","","","","","","","stimulus","","","2","42","","","","","","","","","",""
"","","","","","","","","","","","canvas-button-response","402","450756","0.0-402.0","3637","flower","","","","","","","","","","","","","","perceptual","","","2","42","","","","","329","elephant","6","0","0",""
"","","","","","","","","","","","canvas-button-response","403","451551","0.0-403.0","793","2","","","","","","","","","","","","","","confidence","","","2","42","","","","","","","","","","24"
"","","","","","","","","","","","preload","404","451551","0.0-404.0","","","","","true","","","","","","","","","","","preload","","","2","43","false","[]","[]","[]","","","","","",""
"","","","","","","","","","","","canvas-keyboard-response","405","451853","0.0-405.0","null","null","","","","","","","","","","","","","","fixation","","","2","43","","","","","","","","","",""
"","","","","","","","","","","","canvas-keyboard-response","406","452157","0.0-406.0","null","null","","","","","","","","","","","","","","stimulus","","","2","43","","","","","","","","","",""
"","","","","","","","","","","","canvas-button-response","407","453252","0.0-407.0","1093","cat","","","","","","","","","","","","","","perceptual","","","2","43","","","","","34","house","10","0","0",""
"","","","","","","","","","","","canvas-button-response","408","453972","0.0-408.0","719","3","","","","","","","","","","","","","","confidence","","","2","43","","","","","","","","","","24"
"","","","","","","","","","","","preload","409","453973","0.0-409.0","","","","","true","","","","","","","","","","","preload","","","2","44","false","[]","[]","[]","","","","","",""
"","","","","","","","","","","","canvas-keyboard-response","410","454275","0.0-410.0","null","null","","","","","","","","","","","","","","fixation","","","2","44","","","","","","","","","",""
"","","","","","","","","","","","canvas-keyboard-response","411","454578","0.0-411.0","null","null","","","","","","","","","","","","","","stimulus","","","2","44","","","","","","","","","",""
"","","","","","","","","","","","canvas-button-response","412","455453","0.0-412.0","874","house","","","","","","","","","","","","","","perceptual","","","2","44","","","","","1","house","6","0","1",""
"","","","","","","","","","","","canvas-button-response","413","456672","0.0-413.0","1218","6","","","","","","","","","","","","","","confidence","","","2","44","","","","","","","","","","25"
"","","","","","","","","","","","preload","414","456672","0.0-414.0","","","","","true","","","","","","","","","","","preload","","","2","45","false","[]","[]","[]","","","","","",""
"","","","","","","","","","","","canvas-keyboard-response","415","456975","0.0-415.0","null","null","","","","","","","","","","","","","","fixation","","","2","45","","","","","","","","","",""
"","","","","","","","","","","","canvas-keyboard-response","416","457276","0.0-416.0","null","null","","","","","","","","","","","","","","stimulus","","","2","45","","","","","","","","","",""
"","","","","","","","","","","","canvas-button-response","417","458569","0.0-417.0","1291","flower","","","","","","","","","","","","","","perceptual","","","2","45","","","","","237","flower","10","0","1",""
"","","","","","","","","","","","canvas-button-response","418","459445","0.0-418.0","874","8","","","","","","","","","","","","","","confidence","","","2","45","","","","","","","","","","26"
"","","","","","","","","","","","preload","419","459445","0.0-419.0","","","","","true","","","","","","","","","","","preload","","","2","46","false","[]","[]","[]","","","","","",""
"","","","","","","","","","","","canvas-keyboard-response","420","459746","0.0-420.0","null","null","","","","","","","","","","","","","","fixation","","","2","46","","","","","","","","","",""
"","","","","","","","","","","","canvas-keyboard-response","421","460049","0.0-421.0","null","null","","","","","","","","","","","","","","stimulus","","","2","46","","","","","","","","","",""
"","","","","","","","","","","","canvas-button-response","422","461105","0.0-422.0","1054","phone","","","","","","","","","","","","","","perceptual","","","2","46","","","","","88","phone","6","0","1",""
"","","","","","","","","","","","canvas-button-response","423","462103","0.0-423.0","997","9","","","","","","","","","","","","","","confidence","","","2","46","","","","","","","","","","27"
"","","","","","","","","","","","preload","424","462104","0.0-424.0","","","","","true","","","","","","","","","","","preload","","","2","47","false","[]","[]","[]","","","","","",""
"","","","","","","","","","","","canvas-keyboard-response","425","462406","0.0-425.0","null","null","","","","","","","","","","","","","","fixation","","","2","47","","","","","","","","","",""
"","","","","","","","","","","","canvas-keyboard-response","426","462708","0.0-426.0","null","null","","","","","","","","","","","","","","stimulus","","","2","47","","","","","","","","","",""
"","","","","","","","","","","","canvas-button-response","427","464091","0.0-427.0","1380","phone","","","","","","","","","","","","","","perceptual","","","2","47","","","","","118","phone","10","0","1",""
"","","","","","","","","","","","canvas-button-response","428","467576","0.0-428.0","3484","9","","","","","","","","","","","","","","confidence","","","2","47","","","","","","","","","","28"
"","","","","","","","","","","","preload","429","467576","0.0-429.0","","","","","true","","","","","","","","","","","preload","","","2","48","false","[]","[]","[]","","","","","",""
"","","","","","","","","","","","canvas-keyboard-response","430","467877","0.0-430.0","null","null","","","","","","","","","","","","","","fixation","","","2","48","","","","","","","","","",""
"","","","","","","","","","","","canvas-keyboard-response","431","468179","0.0-431.0","null","null","","","","","","","","","","","","","","stimulus","","","2","48","","","","","","","","","",""
"","","","","","","","","","","","canvas-button-response","432","469580","0.0-432.0","1400","train","","","","","","","","","","","","","","perceptual","","","2","48","","","","","253","train","6","0","1",""
"","","","","","","","","","","","canvas-button-response","433","470398","0.0-433.0","817","8","","","","","","","","","","","","","","confidence","","","2","48","","","","","","","","","","29"
"","","","","","","","","","","","preload","434","470399","0.0-434.0","","","","","true","","","","","","","","","","","preload","","","2","49","false","[]","[]","[]","","","","","",""
"","","","","","","","","","","","canvas-keyboard-response","435","470700","0.0-435.0","null","null","","","","","","","","","","","","","","fixation","","","2","49","","","","","","","","","",""
"","","","","","","","","","","","canvas-keyboard-response","436","471002","0.0-436.0","null","null","","","","","","","","","","","","","","stimulus","","","2","49","","","","","","","","","",""
"","","","","","","","","","","","canvas-button-response","437","472550","0.0-437.0","1546","knife","","","","","","","","","","","","","","perceptual","","","2","49","","","","","143","bed","10","0","0",""
"","","","","","","","","","","","canvas-button-response","438","473285","0.0-438.0","734","4","","","","","","","","","","","","","","confidence","","","2","49","","","","","","","","","","29"
"","","","","","","","","","","","html-button-response","439","479666","0.0-439.0","6379","0","","","","","","","","","","","","","","<p style=""font-size:20px;color:#000000"">You got 29 out of 50 trials correct in this block.<br><br>You have completed 6% of the experiment.<br><br>Take a short break.<br><br>When you are ready, click Continue to proceed.","","","2","49","","","","","","","","","",""
"","","","","","","","","","","","html-keyboard-response","440","480668","0.0-440.0","null","null","","","","","","","","","","","","","","<p style=""font-size:32px;color:#000000""><br><br> RUN: &nbsp 1/4 <br><br> BLOCK: 2/4 ","","","2","49","","","","","","","","","",""
"","","","","","","","","","","","preload","441","480669","0.0-441.0","","","","","true","","","","","","","","","","","preload","","","2","50","false","[]","[]","[]","","","","","",""
"","","","","","","","","","","","canvas-keyboard-response","442","480971","0.0-442.0","null","null","","","","","","","","","","","","","","fixation","","","2","50","","","","","","","","","",""
"","","","","","","","","","","","canvas-keyboard-response","443","481274","0.0-443.0","null","null","","","","","","","","","","","","","","stimulus","","","2","50","","","","","","","","","",""
"","","","","","","","","","","","canvas-button-response","444","483020","0.0-444.0","1743","house","","","","","","","","","","","","","","perceptual","","","2","50","","","","","386","knife","10","0","0",""
"","","","","","","","","","","","canvas-button-response","445","483912","0.0-445.0","891","4","","","","","","","","","","","","","","confidence","","","2","50","","","","","","","","","","0"
"","","","","","","","","","","","preload","446","483912","0.0-446.0","","","","","true","","","","","","","","","","","preload","","","2","51","false","[]","[]","[]","","","","","",""
"","","","","","","","","","","","canvas-keyboard-response","447","484214","0.0-447.0","null","null","","","","","","","","","","","","","","fixation","","","2","51","","","","","","","","","",""
"","","","","","","","","","","","canvas-keyboard-response","448","484517","0.0-448.0","null","null","","","","","","","","","","","","","","stimulus","","","2","51","","","","","","","","","",""
"","","","","","","","","","","","canvas-button-response","449","485930","0.0-449.0","1411","car","","","","","","","","","","","","","","perceptual","","","2","51","","","","","53","car","6","0","1",""
"","","","","","","","","","","","canvas-button-response","450","486798","0.0-450.0","866","6","","","","","","","","","","","","","","confidence","","","2","51","","","","","","","","","","1"
"","","","","","","","","","","","preload","451","486799","0.0-451.0","","","","","true","","","","","","","","","","","preload","","","2","52","false","[]","[]","[]","","","","","",""
"","","","","","","","","","","","canvas-keyboard-response","452","487101","0.0-452.0","null","null","","","","","","","","","","","","","","fixation","","","2","52","","","","","","","","","",""
"","","","","","","","","","","","canvas-keyboard-response","453","487404","0.0-453.0","null","null","","","","","","","","","","","","","","stimulus","","","2","52","","","","","","","","","",""
"","","","","","","","","","","","canvas-button-response","454","489072","0.0-454.0","1666","cat","","","","","","","","","","","","","","perceptual","","","2","52","","","","","286","cat","6","0","1",""
"","","","","","","","","","","","canvas-button-response","455","489947","0.0-455.0","874","2","","","","","","","","","","","","","","confidence","","","2","52","","","","","","","","","","2"
"","","","","","","","","","","","preload","456","489948","0.0-456.0","","","","","true","","","","","","","","","","","preload","","","2","53","false","[]","[]","[]","","","","","",""
"","","","","","","","","","","","canvas-keyboard-response","457","490250","0.0-457.0","null","null","","","","","","","","","","","","","","fixation","","","2","53","","","","","","","","","",""
"","","","","","","","","","","","canvas-keyboard-response","458","490553","0.0-458.0","null","null","","","","","","","","","","","","","","stimulus","","","2","53","","","","","","","","","",""
"","","","","","","","","","","","canvas-button-response","459","491919","0.0-459.0","1364","train","","","","","","","","","","","","","","perceptual","","","2","53","","","","","191","bridge","10","0","0",""
"","","","","","","","","","","","canvas-button-response","460","493522","0.0-460.0","1602","7","","","","","","","","","","","","","","confidence","","","2","53","","","","","","","","","","2"
"","","","","","","","","","","","preload","461","493522","0.0-461.0","","","","","true","","","","","","","","","","","preload","","","2","54","false","[]","[]","[]","","","","","",""
"","","","","","","","","","","","canvas-keyboard-response","462","493825","0.0-462.0","null","null","","","","","","","","","","","","","","fixation","","","2","54","","","","","","","","","",""
"","","","","","","","","","","","canvas-keyboard-response","463","494128","0.0-463.0","null","null","","","","","","","","","","","","","","stimulus","","","2","54","","","","","","","","","",""
"","","","","","","","","","","","canvas-button-response","464","495084","0.0-464.0","954","cat","","","","","","","","","","","","","","perceptual","","","2","54","","","","","328","elephant","6","0","0",""
"","","","","","","","","","","","canvas-button-response","465","495829","0.0-465.0","744","7","","","","","","","","","","","","","","confidence","","","2","54","","","","","","","","","","2"
"","","","","","","","","","","","preload","466","495830","0.0-466.0","","","","","true","","","","","","","","","","","preload","","","2","55","false","[]","[]","[]","","","","","",""
"","","","","","","","","","","","canvas-keyboard-response","467","496131","0.0-467.0","null","null","","","","","","","","","","","","","","fixation","","","2","55","","","","","","","","","",""
"","","","","","","","","","","","canvas-keyboard-response","468","496435","0.0-468.0","null","null","","","","","","","","","","","","","","stimulus","","","2","55","","","","","","","","","",""
"","","","","","","","","","","","canvas-button-response","469","497293","0.0-469.0","856","cat","","","","","","","","","","","","","","perceptual","","","2","55","","","","","299","cat","6","0","1",""
"","","","","","","","","","","","canvas-button-response","470","497711","0.0-470.0","417","7","","","","","","","","","","","","","","confidence","","","2","55","","","","","","","","","","3"
"","","","","","","","","","","","preload","471","497711","0.0-471.0","","","","","true","","","","","","","","","","","preload","","","2","56","false","[]","[]","[]","","","","","",""
"","","","","","","","","","","","canvas-keyboard-response","472","498012","0.0-472.0","null","null","","","","","","","","","","","","","","fixation","","","2","56","","","","","","","","","",""
"","","","","","","","","","","","canvas-keyboard-response","473","498315","0.0-473.0","null","null","","","","","","","","","","","","","","stimulus","","","2","56","","","","","","","","","",""
"","","","","","","","","","","","canvas-button-response","474","500385","0.0-474.0","2068","bed","","","","","","","","","","","","","","perceptual","","","2","56","","","","","318","cat","10","0","0",""
"","","","","","","","","","","","canvas-button-response","475","501023","0.0-475.0","637","1","","","","","","","","","","","","","","confidence","","","2","56","","","","","","","","","","3"
"","","","","","","","","","","","preload","476","501023","0.0-476.0","","","","","true","","","","","","","","","","","preload","","","2","57","false","[]","[]","[]","","","","","",""
"","","","","","","","","","","","canvas-keyboard-response","477","501324","0.0-477.0","null","null","","","","","","","","","","","","","","fixation","","","2","57","","","","","","","","","",""
"","","","","","","","","","","","canvas-keyboard-response","478","501627","0.0-478.0","null","null","","","","","","","","","","","","","","stimulus","","","2","57","","","","","","","","","",""
"","","","","","","","","","","","canvas-button-response","479","503240","0.0-479.0","1611","elephant","","","","","","","","","","","","","","perceptual","","","2","57","","","","","155","bed","10","0","0",""
"","","","","","","","","","","","canvas-button-response","480","504172","0.0-480.0","931","6","","","","","","","","","","","","","","confidence","","","2","57","","","","","","","","","","3"
"","","","","","","","","","","","preload","481","504173","0.0-481.0","","","","","true","","","","","","","","","","","preload","","","2","58","false","[]","[]","[]","","","","","",""
"","","","","","","","","","","","canvas-keyboard-response","482","504475","0.0-482.0","null","null","","","","","","","","","","","","","","fixation","","","2","58","","","","","","","","","",""
"","","","","","","","","","","","canvas-keyboard-response","483","504778","0.0-483.0","null","null","","","","","","","","","","","","","","stimulus","","","2","58","","","","","","","","","",""
"","","","","","","","","","","","canvas-button-response","484","506193","0.0-484.0","1413","flower","","","","","","","","","","","","","","perceptual","","","2","58","","","","","309","cat","10","0","0",""
"","","","","","","","","","","","canvas-button-response","485","507141","0.0-485.0","947","4","","","","","","","","","","","","","","confidence","","","2","58","","","","","","","","","","3"
"","","","","","","","","","","","preload","486","507142","0.0-486.0","","","","","true","","","","","","","","","","","preload","","","2","59","false","[]","[]","[]","","","","","",""
"","","","","","","","","","","","canvas-keyboard-response","487","507444","0.0-487.0","null","null","","","","","","","","","","","","","","fixation","","","2","59","","","","","","","","","",""
"","","","","","","","","","","","canvas-keyboard-response","488","507747","0.0-488.0","null","null","","","","","","","","","","","","","","stimulus","","","2","59","","","","","","","","","",""
"","","","","","","","","","","","canvas-button-response","489","508573","0.0-489.0","823","cat","","","","","","","","","","","","","","perceptual","","","2","59","","","","","281","cat","6","0","1",""
"","","","","","","","","","","","canvas-button-response","490","509105","0.0-490.0","531","7","","","","","","","","","","","","","","confidence","","","2","59","","","","","","","","","","4"
"","","","","","","","","","","","preload","491","509105","0.0-491.0","","","","","true","","","","","","","","","","","preload","","","2","60","false","[]","[]","[]","","","","","",""
"","","","","","","","","","","","canvas-keyboard-response","492","509407","0.0-492.0","null","null","","","","","","","","","","","","","","fixation","","","2","60","","","","","","","","","",""
