"width","height","webaudio","browser","browser_version","mobile","os","fullscreen","vsync_rate","webcam","microphone","trial_type","trial_index","time_elapsed","internal_node_id","rt","response","accuracy","view_history","success","item_width_mm","item_height_mm","item_width_px","px2mm","view_dist_mm","item_width_deg","px2deg","scale_factor","win_width_deg","win_height_deg","stimulus","datetime","subjectID","curr_triallist","trial_no","timeout","failed_images","failed_audio","failed_video","image_index","category","blur","reps","correct","running_score"
"1426","992","true","chrome","139.0.0","false","Mac OS","true","119.98","true","true","browser-check","0","508","0.0-0.0","","","","","","","","","","","","","","","","","","","","","","","","","","","","","",""
"","","","","","","","","","","","survey","1","24318","0.0-1.0","23779","{""P0_Q0"":""903812547"",""P0_Q1"":""21"",""P1_Q0"":""Female"",""P1_Q1"":""Not Hispanic or Latino"",""P1_Q2"":""Asian"",""P1_Q3"":""Corrected-to-Normal (using glasses/contacts)"",""P1_Q4"":""Right-Handed""}","[]","","","","","","","","","","","","","","","","","","","","","","","","","","",""
"","","","","","","","","","","","instructions","2","33867","0.0-2.0","9547","","","[{""page_index"":0,""viewing_time"":6794},{""page_index"":1,""viewing_time"":751},{""page_index"":2,""viewing_time"":691},{""page_index"":3,""viewing_time"":1311}]","","","","","","","","","","","","","","","","","","","","","","","","","",""
"","","","","","","","","","","","fullscreen","3","36293","0.0-3.0","1421","","","","true","","","","","","","","","","","","","","","","","","","","","","","","",""
"","","","","","","","","","","","virtual-chinrest","4","152213","0.0-4.0","115918","","","","","85.6","53.98","175.94679540866966","2.0547349900598664","835.52","5.8648931802889885","30","2.4723382940259317","57.6","36","","","","","","","","","","","","","","",""
"","","","","","","","","","","","instructions","5","215114","0.0-5.0","62900","","","[{""page_index"":0,""viewing_time"":8500},{""page_index"":1,""viewing_time"":10588},{""page_index"":2,""viewing_time"":16841},{""page_index"":3,""viewing_time"":3354},{""page_index"":4,""viewing_time"":10259},{""page_index"":5,""viewing_time"":11218},{""page_index"":6,""viewing_time"":2141}]","","","","","","","","","","","","","","","","","","","","","","","","","",""
"","","","","","","","","","","","html-button-response","6","217649","0.0-6.0","2532","0","","","","","","","","","","","","","","start_practice","Sat Oct 11 2025 16:21:14 GMT-0400 (Eastern Daylight Time)","20771","","","","","","","","","","","",""
"","","","","","","","","","","","preload","7","217650","0.0-7.0","","","","","true","","","","","","","","","","","preload","","","0","0","false","[]","[]","[]","","","","","",""
"","","","","","","","","","","","canvas-keyboard-response","8","217956","0.0-8.0","null","null","","","","","","","","","","","","","","fixation","","","0","0","","","","","","","","","",""
"","","","","","","","","","","","canvas-keyboard-response","9","218264","0.0-9.0","null","null","","","","","","","","","","","","","","stimulus","","","0","0","","","","","","","","","",""
"","","","","","","","","","","","canvas-button-response","10","220112","0.0-10.0","1846","car","","","","","","","","","","","","","","perceptual","","","0","0","","","","","12","car","1","","1",""
"","","","","","","","","","","","canvas-button-response","11","221740","0.0-11.0","1626","5","","","","","","","","","","","","","","confidence","","","0","0","","","","","","","","","","1"
"","","","","","","","","","","","html-keyboard-response","12","222742","0.0-12.0","null","null","","","","","","","","","","","","","","feedback","Sat Oct 11 2025 16:21:20 GMT-0400 (Eastern Daylight Time)","20771","0","0","","","","","","","","","",""
"","","","","","","","","","","","preload","13","222743","0.0-13.0","","","","","true","","","","","","","","","","","preload","","","0","1","false","[]","[]","[]","","","","","",""
"","","","","","","","","","","","canvas-keyboard-response","14","223045","0.0-14.0","null","null","","","","","","","","","","","","","","fixation","","","0","1","","","","","","","","","",""
"","","","","","","","","","","","canvas-keyboard-response","15","223347","0.0-15.0","null","null","","","","","","","","","","","","","","stimulus","","","0","1","","","","","","","","","",""
"","","","","","","","","","","","canvas-button-response","16","225900","0.0-16.0","2552","house","","","","","","","","","","","","","","perceptual","","","0","1","","","","","2","house","1","","1",""
"","","","","","","","","","","","canvas-button-response","17","226824","0.0-17.0","922","10","","","","","","","","","","","","","","confidence","","","0","1","","","","","","","","","","2"
"","","","","","","","","","","","html-keyboard-response","18","227828","0.0-18.0","null","null","","","","","","","","","","","","","","feedback","Sat Oct 11 2025 16:21:25 GMT-0400 (Eastern Daylight Time)","20771","0","1","","","","","","","","","",""
"","","","","","","","","","","","preload","19","227830","0.0-19.0","","","","","true","","","","","","","","","","","preload","","","0","2","false","[]","[]","[]","","","","","",""
"","","","","","","","","","","","canvas-keyboard-response","20","228133","0.0-20.0","null","null","","","","","","","","","","","","","","fixation","","","0","2","","","","","","","","","",""
"","","","","","","","","","","","canvas-keyboard-response","21","228435","0.0-21.0","null","null","","","","","","","","","","","","","","stimulus","","","0","2","","","","","","","","","",""
"","","","","","","","","","","","canvas-button-response","22","229807","0.0-22.0","1370","bed","","","","","","","","","","","","","","perceptual","","","0","2","","","","","32","bed","1","","1",""
"","","","","","","","","","","","canvas-button-response","23","230498","0.0-23.0","690","10","","","","","","","","","","","","","","confidence","","","0","2","","","","","","","","","","3"
"","","","","","","","","","","","html-keyboard-response","24","231500","0.0-24.0","null","null","","","","","","","","","","","","","","feedback","Sat Oct 11 2025 16:21:29 GMT-0400 (Eastern Daylight Time)","20771","0","2","","","","","","","","","",""
"","","","","","","","","","","","preload","25","231501","0.0-25.0","","","","","true","","","","","","","","","","","preload","","","0","3","false","[]","[]","[]","","","","","",""
"","","","","","","","","","","","canvas-keyboard-response","26","231804","0.0-26.0","null","null","","","","","","","","","","","","","","fixation","","","0","3","","","","","","","","","",""
"","","","","","","","","","","","canvas-keyboard-response","27","232107","0.0-27.0","null","null","","","","","","","","","","","","","","stimulus","","","0","3","","","","","","","","","",""
"","","","","","","","","","","","canvas-button-response","28","233309","0.0-28.0","1201","bridge","","","","","","","","","","","","","","perceptual","","","0","3","","","","","42","bridge","1","","1",""
"","","","","","","","","","","","canvas-button-response","29","233976","0.0-29.0","666","10","","","","","","","","","","","","","","confidence","","","0","3","","","","","","","","","","4"
"","","","","","","","","","","","html-keyboard-response","30","234979","0.0-30.0","null","null","","","","","","","","","","","","","","feedback","Sat Oct 11 2025 16:21:32 GMT-0400 (Eastern Daylight Time)","20771","0","3","","","","","","","","","",""
"","","","","","","","","","","","preload","31","234980","0.0-31.0","","","","","true","","","","","","","","","","","preload","","","0","4","false","[]","[]","[]","","","","","",""
"","","","","","","","","","","","canvas-keyboard-response","32","235282","0.0-32.0","null","null","","","","","","","","","","","","","","fixation","","","0","4","","","","","","","","","",""
"","","","","","","","","","","","canvas-keyboard-response","33","235585","0.0-33.0","null","null","","","","","","","","","","","","","","stimulus","","","0","4","","","","","","","","","",""
"","","","","","","","","","","","canvas-button-response","34","239416","0.0-34.0","3827","knife","","","","","","","","","","","","","","perceptual","","","0","4","","","","","92","knife","1","","1",""
"","","","","","","","","","","","canvas-button-response","35","240205","0.0-35.0","788","8","","","","","","","","","","","","","","confidence","","","0","4","","","","","","","","","","5"
"","","","","","","","","","","","html-keyboard-response","36","241209","0.0-36.0","null","null","","","","","","","","","","","","","","feedback","Sat Oct 11 2025 16:21:39 GMT-0400 (Eastern Daylight Time)","20771","0","4","","","","","","","","","",""
"","","","","","","","","","","","preload","37","241210","0.0-37.0","","","","","true","","","","","","","","","","","preload","","","0","5","false","[]","[]","[]","","","","","",""
"","","","","","","","","","","","canvas-keyboard-response","38","241512","0.0-38.0","null","null","","","","","","","","","","","","","","fixation","","","0","5","","","","","","","","","",""
"","","","","","","","","","","","canvas-keyboard-response","39","241814","0.0-39.0","null","null","","","","","","","","","","","","","","stimulus","","","0","5","","","","","","","","","",""
"","","","","","","","","","","","canvas-button-response","40","243093","0.0-40.0","1277","house","","","","","","","","","","","","","","perceptual","","","0","5","","","","","52","flower","1","","0",""
"","","","","","","","","","","","canvas-button-response","41","245320","0.0-41.0","2226","3","","","","","","","","","","","","","","confidence","","","0","5","","","","","","","","","","5"
"","","","","","","","","","","","html-keyboard-response","42","246323","0.0-42.0","null","null","","","","","","","","","","","","","","feedback","Sat Oct 11 2025 16:21:44 GMT-0400 (Eastern Daylight Time)","20771","0","5","","","","","","","","","",""
"","","","","","","","","","","","preload","43","246324","0.0-43.0","","","","","true","","","","","","","","","","","preload","","","0","6","false","[]","[]","[]","","","","","",""
"","","","","","","","","","","","canvas-keyboard-response","44","246624","0.0-44.0","null","null","","","","","","","","","","","","","","fixation","","","0","6","","","","","","","","","",""
"","","","","","","","","","","","canvas-keyboard-response","45","246926","0.0-45.0","null","null","","","","","","","","","","","","","","stimulus","","","0","6","","","","","","","","","",""
"","","","","","","","","","","","canvas-button-response","46","248663","0.0-46.0","1735","train","","","","","","","","","","","","","","perceptual","","","0","6","","","","","62","train","1","","1",""
"","","","","","","","","","","","canvas-button-response","47","249324","0.0-47.0","660","10","","","","","","","","","","","","","","confidence","","","0","6","","","","","","","","","","6"
"","","","","","","","","","","","html-keyboard-response","48","250326","0.0-48.0","null","null","","","","","","","","","","","","","","feedback","Sat Oct 11 2025 16:21:48 GMT-0400 (Eastern Daylight Time)","20771","0","6","","","","","","","","","",""
"","","","","","","","","","","","preload","49","250327","0.0-49.0","","","","","true","","","","","","","","","","","preload","","","0","7","false","[]","[]","[]","","","","","",""
"","","","","","","","","","","","canvas-keyboard-response","50","250628","0.0-50.0","null","null","","","","","","","","","","","","","","fixation","","","0","7","","","","","","","","","",""
"","","","","","","","","","","","canvas-keyboard-response","51","250929","0.0-51.0","null","null","","","","","","","","","","","","","","stimulus","","","0","7","","","","","","","","","",""
"","","","","","","","","","","","canvas-button-response","52","252588","0.0-52.0","1657","phone","","","","","","","","","","","","","","perceptual","","","0","7","","","","","22","phone","1","","1",""
"","","","","","","","","","","","canvas-button-response","53","253349","0.0-53.0","758","10","","","","","","","","","","","","","","confidence","","","0","7","","","","","","","","","","7"
"","","","","","","","","","","","html-keyboard-response","54","254352","0.0-54.0","null","null","","","","","","","","","","","","","","feedback","Sat Oct 11 2025 16:21:52 GMT-0400 (Eastern Daylight Time)","20771","0","7","","","","","","","","","",""
"","","","","","","","","","","","preload","55","254354","0.0-55.0","","","","","true","","","","","","","","","","","preload","","","0","8","false","[]","[]","[]","","","","","",""
"","","","","","","","","","","","canvas-keyboard-response","56","254660","0.0-56.0","null","null","","","","","","","","","","","","","","fixation","","","0","8","","","","","","","","","",""
"","","","","","","","","","","","canvas-keyboard-response","57","254964","0.0-57.0","null","null","","","","","","","","","","","","","","stimulus","","","0","8","","","","","","","","","",""
"","","","","","","","","","","","canvas-button-response","58","265453","0.0-58.0","10486","cat","","","","","","","","","","","","","","perceptual","","","0","8","","","","","82","elephant","1","","0",""
"","","","","","","","","","","","canvas-button-response","59","266869","0.0-59.0","1414","1","","","","","","","","","","","","","","confidence","","","0","8","","","","","","","","","","7"
"","","","","","","","","","","","html-keyboard-response","60","267871","0.0-60.0","null","null","","","","","","","","","","","","","","feedback","Sat Oct 11 2025 16:22:05 GMT-0400 (Eastern Daylight Time)","20771","0","8","","","","","","","","","",""
"","","","","","","","","","","","preload","61","267872","0.0-61.0","","","","","true","","","","","","","","","","","preload","","","0","9","false","[]","[]","[]","","","","","",""
"","","","","","","","","","","","canvas-keyboard-response","62","268175","0.0-62.0","null","null","","","","","","","","","","","","","","fixation","","","0","9","","","","","","","","","",""
"","","","","","","","","","","","canvas-keyboard-response","63","268479","0.0-63.0","null","null","","","","","","","","","","","","","","stimulus","","","0","9","","","","","","","","","",""
"","","","","","","","","","","","canvas-button-response","64","269301","0.0-64.0","819","cat","","","","","","","","","","","","","","perceptual","","","0","9","","","","","72","cat","1","","1",""
"","","","","","","","","","","","canvas-button-response","65","270478","0.0-65.0","1176","10","","","","","","","","","","","","","","confidence","","","0","9","","","","","","","","","","8"
"","","","","","","","","","","","html-keyboard-response","66","271481","0.0-66.0","null","null","","","","","","","","","","","","","","feedback","Sat Oct 11 2025 16:22:09 GMT-0400 (Eastern Daylight Time)","20771","0","9","","","","","","","","","",""
"","","","","","","","","","","","html-button-response","67","273582","0.0-67.0","2098","0","","","","","","","","","","","","","","start_practice","Sat Oct 11 2025 16:22:10 GMT-0400 (Eastern Daylight Time)","20771","0","9","","","","","","","","","",""
"","","","","","","","","","","","preload","68","273582","0.0-68.0","","","","","true","","","","","","","","","","","preload","","","1","0","false","[]","[]","[]","","","","","",""
"","","","","","","","","","","","canvas-keyboard-response","69","273885","0.0-69.0","null","null","","","","","","","","","","","","","","fixation","","","1","0","","","","","","","","","",""
"","","","","","","","","","","","canvas-keyboard-response","70","274190","0.0-70.0","null","null","","","","","","","","","","","","","","stimulus","","","1","0","","","","","","","","","",""
"","","","","","","","","","","","canvas-button-response","71","280101","0.0-71.0","5910","knife","","","","","","","","","","","","","","perceptual","","","1","0","","","","","27","phone","10","","0",""
"","","","","","","","","","","","canvas-button-response","72","281534","0.0-72.0","1431","1","","","","","","","","","","","","","","confidence","","","1","0","","","","","","","","","","0"
"","","","","","","","","","","","html-keyboard-response","73","282537","0.0-73.0","null","null","","","","","","","","","","","","","","feedback","Sat Oct 11 2025 16:22:20 GMT-0400 (Eastern Daylight Time)","20771","1","0","","","","","","","","","",""
"","","","","","","","","","","","preload","74","282538","0.0-74.0","","","","","true","","","","","","","","","","","preload","","","1","1","false","[]","[]","[]","","","","","",""
"","","","","","","","","","","","canvas-keyboard-response","75","282841","0.0-75.0","null","null","","","","","","","","","","","","","","fixation","","","1","1","","","","","","","","","",""
"","","","","","","","","","","","canvas-keyboard-response","76","283144","0.0-76.0","null","null","","","","","","","","","","","","","","stimulus","","","1","1","","","","","","","","","",""
"","","","","","","","","","","","canvas-button-response","77","286062","0.0-77.0","2914","flower","","","","","","","","","","","","","","perceptual","","","1","1","","","","","87","elephant","10","","0",""
"","","","","","","","","","","","canvas-button-response","78","288302","0.0-78.0","2240","5","","","","","","","","","","","","","","confidence","","","1","1","","","","","","","","","","0"
"","","","","","","","","","","","html-keyboard-response","79","289305","0.0-79.0","null","null","","","","","","","","","","","","","","feedback","Sat Oct 11 2025 16:22:27 GMT-0400 (Eastern Daylight Time)","20771","1","1","","","","","","","","","",""
"","","","","","","","","","","","preload","80","289305","0.0-80.0","","","","","true","","","","","","","","","","","preload","","","1","2","false","[]","[]","[]","","","","","",""
"","","","","","","","","","","","canvas-keyboard-response","81","289608","0.0-81.0","null","null","","","","","","","","","","","","","","fixation","","","1","2","","","","","","","","","",""
"","","","","","","","","","","","canvas-keyboard-response","82","289911","0.0-82.0","null","null","","","","","","","","","","","","","","stimulus","","","1","2","","","","","","","","","",""
"","","","","","","","","","","","canvas-button-response","83","291040","0.0-83.0","1127","cat","","","","","","","","","","","","","","perceptual","","","1","2","","","","","74","cat","6","","1",""
"","","","","","","","","","","","canvas-button-response","84","291719","0.0-84.0","677","10","","","","","","","","","","","","","","confidence","","","1","2","","","","","","","","","","1"
"","","","","","","","","","","","html-keyboard-response","85","292722","0.0-85.0","null","null","","","","","","","","","","","","","","feedback","Sat Oct 11 2025 16:22:30 GMT-0400 (Eastern Daylight Time)","20771","1","2","","","","","","","","","",""
"","","","","","","","","","","","preload","86","292724","0.0-86.0","","","","","true","","","","","","","","","","","preload","","","1","3","false","[]","[]","[]","","","","","",""
"","","","","","","","","","","","canvas-keyboard-response","87","293027","0.0-87.0","null","null","","","","","","","","","","","","","","fixation","","","1","3","","","","","","","","","",""
"","","","","","","","","","","","canvas-keyboard-response","88","293332","0.0-88.0","null","null","","","","","","","","","","","","","","stimulus","","","1","3","","","","","","","","","",""
"","","","","","","","","","","","canvas-button-response","89","295302","0.0-89.0","1967","train","","","","","","","","","","","","","","perceptual","","","1","3","","","","","67","train","10","","1",""
"","","","","","","","","","","","canvas-button-response","90","296531","0.0-90.0","1227","10","","","","","","","","","","","","","","confidence","","","1","3","","","","","","","","","","2"
"","","","","","","","","","","","html-keyboard-response","91","297532","0.0-91.0","null","null","","","","","","","","","","","","","","feedback","Sat Oct 11 2025 16:22:35 GMT-0400 (Eastern Daylight Time)","20771","1","3","","","","","","","","","",""
"","","","","","","","","","","","preload","92","297533","0.0-92.0","","","","","true","","","","","","","","","","","preload","","","1","4","false","[]","[]","[]","","","","","",""
"","","","","","","","","","","","canvas-keyboard-response","93","297836","0.0-93.0","null","null","","","","","","","","","","","","","","fixation","","","1","4","","","","","","","","","",""
"","","","","","","","","","","","canvas-keyboard-response","94","298143","0.0-94.0","null","null","","","","","","","","","","","","","","stimulus","","","1","4","","","","","","","","","",""
"","","","","","","","","","","","canvas-button-response","95","301057","0.0-95.0","2912","flower","","","","","","","","","","","","","","perceptual","","","1","4","","","","","17","car","10","","0",""
"","","","","","","","","","","","canvas-button-response","96","302321","0.0-96.0","1262","2","","","","","","","","","","","","","","confidence","","","1","4","","","","","","","","","","2"
"","","","","","","","","","","","html-keyboard-response","97","303323","0.0-97.0","null","null","","","","","","","","","","","","","","feedback","Sat Oct 11 2025 16:22:41 GMT-0400 (Eastern Daylight Time)","20771","1","4","","","","","","","","","",""
"","","","","","","","","","","","preload","98","303323","0.0-98.0","","","","","true","","","","","","","","","","","preload","","","1","5","false","[]","[]","[]","","","","","",""
"","","","","","","","","","","","canvas-keyboard-response","99","303626","0.0-99.0","null","null","","","","","","","","","","","","","","fixation","","","1","5","","","","","","","","","",""
"","","","","","","","","","","","canvas-keyboard-response","100","303930","0.0-100.0","null","null","","","","","","","","","","","","","","stimulus","","","1","5","","","","","","","","","",""
"","","","","","","","","","","","canvas-button-response","101","305522","0.0-101.0","1588","house","","","","","","","","","","","","","","perceptual","","","1","5","","","","","4","house","6","","1",""
"","","","","","","","","","","","canvas-button-response","102","306264","0.0-102.0","740","10","","","","","","","","","","","","","","confidence","","","1","5","","","","","","","","","","3"
"","","","","","","","","","","","html-keyboard-response","103","307266","0.0-103.0","null","null","","","","","","","","","","","","","","feedback","Sat Oct 11 2025 16:22:45 GMT-0400 (Eastern Daylight Time)","20771","1","5","","","","","","","","","",""
"","","","","","","","","","","","preload","104","307268","0.0-104.0","","","","","true","","","","","","","","","","","preload","","","1","6","false","[]","[]","[]","","","","","",""
"","","","","","","","","","","","canvas-keyboard-response","105","307570","0.0-105.0","null","null","","","","","","","","","","","","","","fixation","","","1","6","","","","","","","","","",""
"","","","","","","","","","","","canvas-keyboard-response","106","307873","0.0-106.0","null","null","","","","","","","","","","","","","","stimulus","","","1","6","","","","","","","","","",""
"","","","","","","","","","","","canvas-button-response","107","316538","0.0-107.0","8660","car","","","","","","","","","","","","","","perceptual","","","1","6","","","","","77","cat","10","","0",""
"","","","","","","","","","","","canvas-button-response","108","317652","0.0-108.0","1113","3","","","","","","","","","","","","","","confidence","","","1","6","","","","","","","","","","3"
"","","","","","","","","","","","html-keyboard-response","109","318653","0.0-109.0","null","null","","","","","","","","","","","","","","feedback","Sat Oct 11 2025 16:22:56 GMT-0400 (Eastern Daylight Time)","20771","1","6","","","","","","","","","",""
"","","","","","","","","","","","preload","110","318654","0.0-110.0","","","","","true","","","","","","","","","","","preload","","","1","7","false","[]","[]","[]","","","","","",""
"","","","","","","","","","","","canvas-keyboard-response","111","318955","0.0-111.0","null","null","","","","","","","","","","","","","","fixation","","","1","7","","","","","","","","","",""
"","","","","","","","","","","","canvas-keyboard-response","112","319256","0.0-112.0","null","null","","","","","","","","","","","","","","stimulus","","","1","7","","","","","","","","","",""
"","","","","","","","","","","","canvas-button-response","113","320789","0.0-113.0","1531","train","","","","","","","","","","","","","","perceptual","","","1","7","","","","","37","bed","10","","0",""
"","","","","","","","","","","","canvas-button-response","114","322339","0.0-114.0","1548","9","","","","","","","","","","","","","","confidence","","","1","7","","","","","","","","","","3"
"","","","","","","","","","","","html-keyboard-response","115","323341","0.0-115.0","null","null","","","","","","","","","","","","","","feedback","Sat Oct 11 2025 16:23:01 GMT-0400 (Eastern Daylight Time)","20771","1","7","","","","","","","","","",""
"","","","","","","","","","","","preload","116","323341","0.0-116.0","","","","","true","","","","","","","","","","","preload","","","1","8","false","[]","[]","[]","","","","","",""
"","","","","","","","","","","","canvas-keyboard-response","117","323643","0.0-117.0","null","null","","","","","","","","","","","","","","fixation","","","1","8","","","","","","","","","",""
"","","","","","","","","","","","canvas-keyboard-response","118","323947","0.0-118.0","null","null","","","","","","","","","","","","","","stimulus","","","1","8","","","","","","","","","",""
"","","","","","","","","","","","canvas-button-response","119","324785","0.0-119.0","835","knife","","","","","","","","","","","","","","perceptual","","","1","8","","","","","97","knife","10","","1",""
"","","","","","","","","","","","canvas-button-response","120","325341","0.0-120.0","554","10","","","","","","","","","","","","","","confidence","","","1","8","","","","","","","","","","4"
"","","","","","","","","","","","html-keyboard-response","121","326342","0.0-121.0","null","null","","","","","","","","","","","","","","feedback","Sat Oct 11 2025 16:23:04 GMT-0400 (Eastern Daylight Time)","20771","1","8","","","","","","","","","",""
"","","","","","","","","","","","preload","122","326342","0.0-122.0","","","","","true","","","","","","","","","","","preload","","","1","9","false","[]","[]","[]","","","","","",""
"","","","","","","","","","","","canvas-keyboard-response","123","326644","0.0-123.0","null","null","","","","","","","","","","","","","","fixation","","","1","9","","","","","","","","","",""
"","","","","","","","","","","","canvas-keyboard-response","124","326947","0.0-124.0","null","null","","","","","","","","","","","","","","stimulus","","","1","9","","","","","","","","","",""
"","","","","","","","","","","","canvas-button-response","125","331653","0.0-125.0","4703","phone","","","","","","","","","","","","","","perceptual","","","1","9","","","","","94","knife","6","","0",""
"","","","","","","","","","","","canvas-button-response","126","332578","0.0-126.0","923","9","","","","","","","","","","","","","","confidence","","","1","9","","","","","","","","","","4"
"","","","","","","","","","","","html-keyboard-response","127","333579","0.0-127.0","null","null","","","","","","","","","","","","","","feedback","Sat Oct 11 2025 16:23:11 GMT-0400 (Eastern Daylight Time)","20771","1","9","","","","","","","","","",""
"","","","","","","","","","","","preload","128","333580","0.0-128.0","","","","","true","","","","","","","","","","","preload","","","1","10","false","[]","[]","[]","","","","","",""
"","","","","","","","","","","","canvas-keyboard-response","129","333882","0.0-129.0","null","null","","","","","","","","","","","","","","fixation","","","1","10","","","","","","","","","",""
"","","","","","","","","","","","canvas-keyboard-response","130","334184","0.0-130.0","null","null","","","","","","","","","","","","","","stimulus","","","1","10","","","","","","","","","",""
"","","","","","","","","","","","canvas-button-response","131","335264","0.0-131.0","1077","knife","","","","","","","","","","","","","","perceptual","","","1","10","","","","","47","bridge","10","","0",""
"","","","","","","","","","","","canvas-button-response","132","336587","0.0-132.0","1321","2","","","","","","","","","","","","","","confidence","","","1","10","","","","","","","","","","4"
"","","","","","","","","","","","html-keyboard-response","133","337589","0.0-133.0","null","null","","","","","","","","","","","","","","feedback","Sat Oct 11 2025 16:23:15 GMT-0400 (Eastern Daylight Time)","20771","1","10","","","","","","","","","",""
"","","","","","","","","","","","preload","134","337593","0.0-134.0","","","","","true","","","","","","","","","","","preload","","","1","11","false","[]","[]","[]","","","","","",""
"","","","","","","","","","","","canvas-keyboard-response","135","337895","0.0-135.0","null","null","","","","","","","","","","","","","","fixation","","","1","11","","","","","","","","","",""
"","","","","","","","","","","","canvas-keyboard-response","136","338198","0.0-136.0","null","null","","","","","","","","","","","","","","stimulus","","","1","11","","","","","","","","","",""
"","","","","","","","","","","","canvas-button-response","137","339035","0.0-137.0","835","train","","","","","","","","","","","","","","perceptual","","","1","11","","","","","64","train","6","","1",""
"","","","","","","","","","","","canvas-button-response","138","339768","0.0-138.0","732","10","","","","","","","","","","","","","","confidence","","","1","11","","","","","","","","","","5"
"","","","","","","","","","","","html-keyboard-response","139","340769","0.0-139.0","null","null","","","","","","","","","","","","","","feedback","Sat Oct 11 2025 16:23:18 GMT-0400 (Eastern Daylight Time)","20771","1","11","","","","","","","","","",""
"","","","","","","","","","","","preload","140","340769","0.0-140.0","","","","","true","","","","","","","","","","","preload","","","1","12","false","[]","[]","[]","","","","","",""
"","","","","","","","","","","","canvas-keyboard-response","141","341071","0.0-141.0","null","null","","","","","","","","","","","","","","fixation","","","1","12","","","","","","","","","",""
"","","","","","","","","","","","canvas-keyboard-response","142","341374","0.0-142.0","null","null","","","","","","","","","","","","","","stimulus","","","1","12","","","","","","","","","",""
"","","","","","","","","","","","canvas-button-response","143","343807","0.0-143.0","2432","bed","","","","","","","","","","","","","","perceptual","","","1","12","","","","","44","bridge","6","","0",""
"","","","","","","","","","","","canvas-button-response","144","345044","0.0-144.0","1235","2","","","","","","","","","","","","","","confidence","","","1","12","","","","","","","","","","5"
"","","","","","","","","","","","html-keyboard-response","145","346047","0.0-145.0","null","null","","","","","","","","","","","","","","feedback","Sat Oct 11 2025 16:23:23 GMT-0400 (Eastern Daylight Time)","20771","1","12","","","","","","","","","",""
"","","","","","","","","","","","preload","146","346048","0.0-146.0","","","","","true","","","","","","","","","","","preload","","","1","13","false","[]","[]","[]","","","","","",""
"","","","","","","","","","","","canvas-keyboard-response","147","346352","0.0-147.0","null","null","","","","","","","","","","","","","","fixation","","","1","13","","","","","","","","","",""
"","","","","","","","","","","","canvas-keyboard-response","148","346654","0.0-148.0","null","null","","","","","","","","","","","","","","stimulus","","","1","13","","","","","","","","","",""
"","","","","","","","","","","","canvas-button-response","149","347581","0.0-149.0","922","flower","","","","","","","","","","","","","","perceptual","","","1","13","","","","","57","flower","10","","1",""
"","","","","","","","","","","","canvas-button-response","150","348206","0.0-150.0","624","10","","","","","","","","","","","","","","confidence","","","1","13","","","","","","","","","","6"
"","","","","","","","","","","","html-keyboard-response","151","349209","0.0-151.0","null","null","","","","","","","","","","","","","","feedback","Sat Oct 11 2025 16:23:27 GMT-0400 (Eastern Daylight Time)","20771","1","13","","","","","","","","","",""
"","","","","","","","","","","","preload","152","349211","0.0-152.0","","","","","true","","","","","","","","","","","preload","","","1","14","false","[]","[]","[]","","","","","",""
"","","","","","","","","","","","canvas-keyboard-response","153","349514","0.0-153.0","null","null","","","","","","","","","","","","","","fixation","","","1","14","","","","","","","","","",""
"","","","","","","","","","","","canvas-keyboard-response","154","349817","0.0-154.0","null","null","","","","","","","","","","","","","","stimulus","","","1","14","","","","","","","","","",""
"","","","","","","","","","","","canvas-button-response","155","351186","0.0-155.0","1364","house","","","","","","","","","","","","","","perceptual","","","1","14","","","","","14","car","6","","0",""
"","","","","","","","","","","","canvas-button-response","156","352010","0.0-156.0","823","3","","","","","","","","","","","","","","confidence","","","1","14","","","","","","","","","","6"
"","","","","","","","","","","","html-keyboard-response","157","353013","0.0-157.0","null","null","","","","","","","","","","","","","","feedback","Sat Oct 11 2025 16:23:30 GMT-0400 (Eastern Daylight Time)","20771","1","14","","","","","","","","","",""
"","","","","","","","","","","","preload","158","353014","0.0-158.0","","","","","true","","","","","","","","","","","preload","","","1","15","false","[]","[]","[]","","","","","",""
"","","","","","","","","","","","canvas-keyboard-response","159","353317","0.0-159.0","null","null","","","","","","","","","","","","","","fixation","","","1","15","","","","","","","","","",""
"","","","","","","","","","","","canvas-keyboard-response","160","353622","0.0-160.0","null","null","","","","","","","","","","","","","","stimulus","","","1","15","","","","","","","","","",""
"","","","","","","","","","","","canvas-button-response","161","355231","0.0-161.0","1607","elephant","","","","","","","","","","","","","","perceptual","","","1","15","","","","","84","elephant","6","","1",""
"","","","","","","","","","","","canvas-button-response","162","356038","0.0-162.0","805","10","","","","","","","","","","","","","","confidence","","","1","15","","","","","","","","","","7"
"","","","","","","","","","","","html-keyboard-response","163","357041","0.0-163.0","null","null","","","","","","","","","","","","","","feedback","Sat Oct 11 2025 16:23:34 GMT-0400 (Eastern Daylight Time)","20771","1","15","","","","","","","","","",""
"","","","","","","","","","","","preload","164","357043","0.0-164.0","","","","","true","","","","","","","","","","","preload","","","1","16","false","[]","[]","[]","","","","","",""
"","","","","","","","","","","","canvas-keyboard-response","165","357344","0.0-165.0","null","null","","","","","","","","","","","","","","fixation","","","1","16","","","","","","","","","",""
"","","","","","","","","","","","canvas-keyboard-response","166","357647","0.0-166.0","null","null","","","","","","","","","","","","","","stimulus","","","1","16","","","","","","","","","",""
"","","","","","","","","","","","canvas-button-response","167","359423","0.0-167.0","1770","phone","","","","","","","","","","","","","","perceptual","","","1","16","","","","","24","phone","6","","1",""
"","","","","","","","","","","","canvas-button-response","168","360653","0.0-168.0","1228","3","","","","","","","","","","","","","","confidence","","","1","16","","","","","","","","","","8"
"","","","","","","","","","","","html-keyboard-response","169","361655","0.0-169.0","null","null","","","","","","","","","","","","","","feedback","Sat Oct 11 2025 16:23:39 GMT-0400 (Eastern Daylight Time)","20771","1","16","","","","","","","","","",""
"","","","","","","","","","","","preload","170","361657","0.0-170.0","","","","","true","","","","","","","","","","","preload","","","1","17","false","[]","[]","[]","","","","","",""
"","","","","","","","","","","","canvas-keyboard-response","171","361961","0.0-171.0","null","null","","","","","","","","","","","","","","fixation","","","1","17","","","","","","","","","",""
"","","","","","","","","","","","canvas-keyboard-response","172","362264","0.0-172.0","null","null","","","","","","","","","","","","","","stimulus","","","1","17","","","","","","","","","",""
"","","","","","","","","","","","canvas-button-response","173","363737","0.0-173.0","1468","bed","","","","","","","","","","","","","","perceptual","","","1","17","","","","","34","bed","6","","1",""
"","","","","","","","","","","","canvas-button-response","174","364554","0.0-174.0","815","10","","","","","","","","","","","","","","confidence","","","1","17","","","","","","","","","","9"
"","","","","","","","","","","","html-keyboard-response","175","365555","0.0-175.0","null","null","","","","","","","","","","","","","","feedback","Sat Oct 11 2025 16:23:43 GMT-0400 (Eastern Daylight Time)","20771","1","17","","","","","","","","","",""
"","","","","","","","","","","","preload","176","365556","0.0-176.0","","","","","true","","","","","","","","","","","preload","","","1","18","false","[]","[]","[]","","","","","",""
"","","","","","","","","","","","canvas-keyboard-response","177","365858","0.0-177.0","null","null","","","","","","","","","","","","","","fixation","","","1","18","","","","","","","","","",""
"","","","","","","","","","","","canvas-keyboard-response","178","366162","0.0-178.0","null","null","","","","","","","","","","","","","","stimulus","","","1","18","","","","","","","","","",""
"","","","","","","","","","","","canvas-button-response","179","367433","0.0-179.0","1268","house","","","","","","","","","","","","","","perceptual","","","1","18","","","","","7","house","10","","1",""
"","","","","","","","","","","","canvas-button-response","180","368400","0.0-180.0","966","10","","","","","","","","","","","","","","confidence","","","1","18","","","","","","","","","","10"
"","","","","","","","","","","","html-keyboard-response","181","369403","0.0-181.0","null","null","","","","","","","","","","","","","","feedback","Sat Oct 11 2025 16:23:47 GMT-0400 (Eastern Daylight Time)","20771","1","18","","","","","","","","","",""
"","","","","","","","","","","","preload","182","369405","0.0-182.0","","","","","true","","","","","","","","","","","preload","","","1","19","false","[]","[]","[]","","","","","",""
"","","","","","","","","","","","canvas-keyboard-response","183","369708","0.0-183.0","null","null","","","","","","","","","","","","","","fixation","","","1","19","","","","","","","","","",""
"","","","","","","","","","","","canvas-keyboard-response","184","370011","0.0-184.0","null","null","","","","","","","","","","","","","","stimulus","","","1","19","","","","","","","","","",""
"","","","","","","","","","","","canvas-button-response","185","372146","0.0-185.0","2133","flower","","","","","","","","","","","","","","perceptual","","","1","19","","","","","54","flower","6","","1",""
"","","","","","","","","","","","canvas-button-response","186","373131","0.0-186.0","983","10","","","","","","","","","","","","","","confidence","","","1","19","","","","","","","","","","11"
"","","","","","","","","","","","html-keyboard-response","187","374132","0.0-187.0","null","null","","","","","","","","","","","","","","feedback","Sat Oct 11 2025 16:23:52 GMT-0400 (Eastern Daylight Time)","20771","1","19","","","","","","","","","",""
"","","","","","","","","","","","html-button-response","188","375510","0.0-188.0","1377","0","","","","","","","","","","","","","","start experiment","Sat Oct 11 2025 16:23:53 GMT-0400 (Eastern Daylight Time)","20771","1","19","","","","","","","","","",""
"","","","","","","","","","","","preload","189","375511","0.0-189.0","","","","","true","","","","","","","","","","","preload","","","2","0","false","[]","[]","[]","","","","","",""
"","","","","","","","","","","","canvas-keyboard-response","190","375814","0.0-190.0","null","null","","","","","","","","","","","","","","fixation","","","2","0","","","","","","","","","",""
"","","","","","","","","","","","canvas-keyboard-response","191","376117","0.0-191.0","null","null","","","","","","","","","","","","","","stimulus","","","2","0","","","","","","","","","",""
"","","","","","","","","","","","canvas-button-response","192","377492","0.0-192.0","1374","bed","","","","","","","","","","","","","","perceptual","","","2","0","","","","","137","bed","6","0","1",""
"","","","","","","","","","","","canvas-button-response","193","378399","0.0-193.0","905","4","","","","","","","","","","","","","","confidence","","","2","0","","","","","","","","","","1"
"","","","","","","","","","","","preload","194","378400","0.0-194.0","","","","","true","","","","","","","","","","","preload","","","2","1","false","[]","[]","[]","","","","","",""
"","","","","","","","","","","","canvas-keyboard-response","195","378702","0.0-195.0","null","null","","","","","","","","","","","","","","fixation","","","2","1","","","","","","","","","",""
"","","","","","","","","","","","canvas-keyboard-response","196","379005","0.0-196.0","null","null","","","","","","","","","","","","","","stimulus","","","2","1","","","","","","","","","",""
"","","","","","","","","","","","canvas-button-response","197","381840","0.0-197.0","2834","house","","","","","","","","","","","","","","perceptual","","","2","1","","","","","153","bed","10","0","0",""
"","","","","","","","","","","","canvas-button-response","198","382420","0.0-198.0","579","3","","","","","","","","","","","","","","confidence","","","2","1","","","","","","","","","","1"
"","","","","","","","","","","","preload","199","382421","0.0-199.0","","","","","true","","","","","","","","","","","preload","","","2","2","false","[]","[]","[]","","","","","",""
"","","","","","","","","","","","canvas-keyboard-response","200","382724","0.0-200.0","null","null","","","","","","","","","","","","","","fixation","","","2","2","","","","","","","","","",""
"","","","","","","","","","","","canvas-keyboard-response","201","383027","0.0-201.0","null","null","","","","","","","","","","","","","","stimulus","","","2","2","","","","","","","","","",""
"","","","","","","","","","","","canvas-button-response","202","384148","0.0-202.0","1119","cat","","","","","","","","","","","","","","perceptual","","","2","2","","","","","286","cat","6","0","1",""
"","","","","","","","","","","","canvas-button-response","203","385647","0.0-203.0","1498","6","","","","","","","","","","","","","","confidence","","","2","2","","","","","","","","","","2"
"","","","","","","","","","","","preload","204","385648","0.0-204.0","","","","","true","","","","","","","","","","","preload","","","2","3","false","[]","[]","[]","","","","","",""
"","","","","","","","","","","","canvas-keyboard-response","205","385950","0.0-205.0","null","null","","","","","","","","","","","","","","fixation","","","2","3","","","","","","","","","",""
"","","","","","","","","","","","canvas-keyboard-response","206","386252","0.0-206.0","null","null","","","","","","","","","","","","","","stimulus","","","2","3","","","","","","","","","",""
"","","","","","","","","","","","canvas-button-response","207","387163","0.0-207.0","911","bridge","","","","","","","","","","","","","","perceptual","","","2","3","","","","","168","bridge","6","0","1",""
"","","","","","","","","","","","canvas-button-response","208","387754","0.0-208.0","589","10","","","","","","","","","","","","","","confidence","","","2","3","","","","","","","","","","3"
"","","","","","","","","","","","preload","209","387755","0.0-209.0","","","","","true","","","","","","","","","","","preload","","","2","4","false","[]","[]","[]","","","","","",""
"","","","","","","","","","","","canvas-keyboard-response","210","388056","0.0-210.0","null","null","","","","","","","","","","","","","","fixation","","","2","4","","","","","","","","","",""
"","","","","","","","","","","","canvas-keyboard-response","211","388358","0.0-211.0","null","null","","","","","","","","","","","","","","stimulus","","","2","4","","","","","","","","","",""
"","","","","","","","","","","","canvas-button-response","212","389054","0.0-212.0","695","cat","","","","","","","","","","","","","","perceptual","","","2","4","","","","","285","cat","6","0","1",""
"","","","","","","","","","","","canvas-button-response","213","389677","0.0-213.0","621","10","","","","","","","","","","","","","","confidence","","","2","4","","","","","","","","","","4"
"","","","","","","","","","","","preload","214","389677","0.0-214.0","","","","","true","","","","","","","","","","","preload","","","2","5","false","[]","[]","[]","","","","","",""
"","","","","","","","","","","","canvas-keyboard-response","215","389979","0.0-215.0","null","null","","","","","","","","","","","","","","fixation","","","2","5","","","","","","","","","",""
"","","","","","","","","","","","canvas-keyboard-response","216","390280","0.0-216.0","null","null","","","","","","","","","","","","","","stimulus","","","2","5","","","","","","","","","",""
"","","","","","","","","","","","canvas-button-response","217","391339","0.0-217.0","1057","knife","","","","","","","","","","","","","","perceptual","","","2","5","","","","","141","bed","10","0","0",""
"","","","","","","","","","","","canvas-button-response","218","392720","0.0-218.0","1379","5","","","","","","","","","","","","","","confidence","","","2","5","","","","","","","","","","4"
"","","","","","","","","","","","preload","219","392720","0.0-219.0","","","","","true","","","","","","","","","","","preload","","","2","6","false","[]","[]","[]","","","","","",""
"","","","","","","","","","","","canvas-keyboard-response","220","393022","0.0-220.0","null","null","","","","","","","","","","","","","","fixation","","","2","6","","","","","","","","","",""
"","","","","","","","","","","","canvas-keyboard-response","221","393327","0.0-221.0","null","null","","","","","","","","","","","","","","stimulus","","","2","6","","","","","","","","","",""
"","","","","","","","","","","","canvas-button-response","222","394061","0.0-222.0","733","flower","","","","","","","","","","","","","","perceptual","","","2","6","","","","","215","flower","6","0","1",""
"","","","","","","","","","","","canvas-button-response","223","394861","0.0-223.0","799","10","","","","","","","","","","","","","","confidence","","","2","6","","","","","","","","","","5"
"","","","","","","","","","","","preload","224","394862","0.0-224.0","","","","","true","","","","","","","","","","","preload","","","2","7","false","[]","[]","[]","","","","","",""
"","","","","","","","","","","","canvas-keyboard-response","225","395165","0.0-225.0","null","null","","","","","","","","","","","","","","fixation","","","2","7","","","","","","","","","",""
"","","","","","","","","","","","canvas-keyboard-response","226","395468","0.0-226.0","null","null","","","","","","","","","","","","","","stimulus","","","2","7","","","","","","","","","",""
"","","","","","","","","","","","canvas-button-response","227","397760","0.0-227.0","2292","elephant","","","","","","","","","","","","","","perceptual","","","2","7","","","","","294","cat","6","0","0",""
"","","","","","","","","","","","canvas-button-response","228","398839","0.0-228.0","1077","7","","","","","","","","","","","","","","confidence","","","2","7","","","","","","","","","","5"
"","","","","","","","","","","","preload","229","398840","0.0-229.0","","","","","true","","","","","","","","","","","preload","","","2","8","false","[]","[]","[]","","","","","",""
"","","","","","","","","","","","canvas-keyboard-response","230","399142","0.0-230.0","null","null","","","","","","","","","","","","","","fixation","","","2","8","","","","","","","","","",""
"","","","","","","","","","","","canvas-keyboard-response","231","399445","0.0-231.0","null","null","","","","","","","","","","","","","","stimulus","","","2","8","","","","","","","","","",""
"","","","","","","","","","","","canvas-button-response","232","401685","0.0-232.0","2238","bed","","","","","","","","","","","","","","perceptual","","","2","8","","","","","144","bed","10","0","1",""
"","","","","","","","","","","","canvas-button-response","233","402443","0.0-233.0","757","3","","","","","","","","","","","","","","confidence","","","2","8","","","","","","","","","","6"
"","","","","","","","","","","","preload","234","402443","0.0-234.0","","","","","true","","","","","","","","","","","preload","","","2","9","false","[]","[]","[]","","","","","",""
"","","","","","","","","","","","canvas-keyboard-response","235","402745","0.0-235.0","null","null","","","","","","","","","","","","","","fixation","","","2","9","","","","","","","","","",""
"","","","","","","","","","","","canvas-keyboard-response","236","403047","0.0-236.0","null","null","","","","","","","","","","","","","","stimulus","","","2","9","","","","","","","","","",""
"","","","","","","","","","","","canvas-button-response","237","403985","0.0-237.0","937","cat","","","","","","","","","","","","","","perceptual","","","2","9","","","","","355","elephant","10","0","0",""
"","","","","","","","","","","","canvas-button-response","238","404788","0.0-238.0","801","9","","","","","","","","","","","","","","confidence","","","2","9","","","","","","","","","","6"
"","","","","","","","","","","","preload","239","404789","0.0-239.0","","","","","true","","","","","","","","","","","preload","","","2","10","false","[]","[]","[]","","","","","",""
"","","","","","","","","","","","canvas-keyboard-response","240","405091","0.0-240.0","null","null","","","","","","","","","","","","","","fixation","","","2","10","","","","","","","","","",""
"","","","","","","","","","","","canvas-keyboard-response","241","405394","0.0-241.0","null","null","","","","","","","","","","","","","","stimulus","","","2","10","","","","","","","","","",""
"","","","","","","","","","","","canvas-button-response","242","406936","0.0-242.0","1540","bridge","","","","","","","","","","","","","","perceptual","","","2","10","","","","","162","bridge","6","0","1",""
"","","","","","","","","","","","canvas-button-response","243","407479","0.0-243.0","542","3","","","","","","","","","","","","","","confidence","","","2","10","","","","","","","","","","7"
"","","","","","","","","","","","preload","244","407480","0.0-244.0","","","","","true","","","","","","","","","","","preload","","","2","11","false","[]","[]","[]","","","","","",""
"","","","","","","","","","","","canvas-keyboard-response","245","407782","0.0-245.0","null","null","","","","","","","","","","","","","","fixation","","","2","11","","","","","","","","","",""
"","","","","","","","","","","","canvas-keyboard-response","246","408084","0.0-246.0","null","null","","","","","","","","","","","","","","stimulus","","","2","11","","","","","","","","","",""
"","","","","","","","","","","","canvas-button-response","247","409072","0.0-247.0","984","car","","","","","","","","","","","","","","perceptual","","","2","11","","","","","70","car","10","0","1",""
"","","","","","","","","","","","canvas-button-response","248","409797","0.0-248.0","724","10","","","","","","","","","","","","","","confidence","","","2","11","","","","","","","","","","8"
"","","","","","","","","","","","preload","249","409798","0.0-249.0","","","","","true","","","","","","","","","","","preload","","","2","12","false","[]","[]","[]","","","","","",""
"","","","","","","","","","","","canvas-keyboard-response","250","410100","0.0-250.0","null","null","","","","","","","","","","","","","","fixation","","","2","12","","","","","","","","","",""
"","","","","","","","","","","","canvas-keyboard-response","251","410401","0.0-251.0","null","null","","","","","","","","","","","","","","stimulus","","","2","12","","","","","","","","","",""
"","","","","","","","","","","","canvas-button-response","252","411817","0.0-252.0","1415","flower","","","","","","","","","","","","","","perceptual","","","2","12","","","","","76","car","10","0","0",""
"","","","","","","","","","","","canvas-button-response","253","413168","0.0-253.0","1350","2","","","","","","","","","","","","","","confidence","","","2","12","","","","","","","","","","8"
"","","","","","","","","","","","preload","254","413169","0.0-254.0","","","","","true","","","","","","","","","","","preload","","","2","13","false","[]","[]","[]","","","","","",""
"","","","","","","","","","","","canvas-keyboard-response","255","413470","0.0-255.0","null","null","","","","","","","","","","","","","","fixation","","","2","13","","","","","","","","","",""
"","","","","","","","","","","","canvas-keyboard-response","256","413772","0.0-256.0","null","null","","","","","","","","","","","","","","stimulus","","","2","13","","","","","","","","","",""
"","","","","","","","","","","","canvas-button-response","257","414799","0.0-257.0","1025","car","","","","","","","","","","","","","","perceptual","","","2","13","","","","","67","car","10","0","1",""
"","","","","","","","","","","","canvas-button-response","258","415776","0.0-258.0","975","10","","","","","","","","","","","","","","confidence","","","2","13","","","","","","","","","","9"
"","","","","","","","","","","","preload","259","415776","0.0-259.0","","","","","true","","","","","","","","","","","preload","","","2","14","false","[]","[]","[]","","","","","",""
"","","","","","","","","","","","canvas-keyboard-response","260","416078","0.0-260.0","null","null","","","","","","","","","","","","","","fixation","","","2","14","","","","","","","","","",""
"","","","","","","","","","","","canvas-keyboard-response","261","416380","0.0-261.0","null","null","","","","","","","","","","","","","","stimulus","","","2","14","","","","","","","","","",""
"","","","","","","","","","","","canvas-button-response","262","417507","0.0-262.0","1123","bed","","","","","","","","","","","","","","perceptual","","","2","14","","","","","143","bed","10","0","1",""
"","","","","","","","","","","","canvas-button-response","263","418182","0.0-263.0","673","8","","","","","","","","","","","","","","confidence","","","2","14","","","","","","","","","","10"
"","","","","","","","","","","","preload","264","418182","0.0-264.0","","","","","true","","","","","","","","","","","preload","","","2","15","false","[]","[]","[]","","","","","",""
"","","","","","","","","","","","canvas-keyboard-response","265","418483","0.0-265.0","null","null","","","","","","","","","","","","","","fixation","","","2","15","","","","","","","","","",""
"","","","","","","","","","","","canvas-keyboard-response","266","418785","0.0-266.0","null","null","","","","","","","","","","","","","","stimulus","","","2","15","","","","","","","","","",""
"","","","","","","","","","","","canvas-button-response","267","420777","0.0-267.0","1991","house","","","","","","","","","","","","","","perceptual","","","2","15","","","","","179","bridge","6","0","0",""
"","","","","","","","","","","","canvas-button-response","268","421409","0.0-268.0","631","3","","","","","","","","","","","","","","confidence","","","2","15","","","","","","","","","","10"
"","","","","","","","","","","","preload","269","421410","0.0-269.0","","","","","true","","","","","","","","","","","preload","","","2","16","false","[]","[]","[]","","","","","",""
"","","","","","","","","","","","canvas-keyboard-response","270","421711","0.0-270.0","null","null","","","","","","","","","","","","","","fixation","","","2","16","","","","","","","","","",""
"","","","","","","","","","","","canvas-keyboard-response","271","422014","0.0-271.0","null","null","","","","","","","","","","","","","","stimulus","","","2","16","","","","","","","","","",""
"","","","","","","","","","","","canvas-button-response","272","423319","0.0-272.0","1301","house","","","","","","","","","","","","","","perceptual","","","2","16","","","","","4","house","6","0","1",""
"","","","","","","","","","","","canvas-button-response","273","424528","0.0-273.0","1208","2","","","","","","","","","","","","","","confidence","","","2","16","","","","","","","","","","11"
"","","","","","","","","","","","preload","274","424528","0.0-274.0","","","","","true","","","","","","","","","","","preload","","","2","17","false","[]","[]","[]","","","","","",""
"","","","","","","","","","","","canvas-keyboard-response","275","424833","0.0-275.0","null","null","","","","","","","","","","","","","","fixation","","","2","17","","","","","","","","","",""
"","","","","","","","","","","","canvas-keyboard-response","276","425136","0.0-276.0","null","null","","","","","","","","","","","","","","stimulus","","","2","17","","","","","","","","","",""
"","","","","","","","","","","","canvas-button-response","277","426067","0.0-277.0","929","car","","","","","","","","","","","","","","perceptual","","","2","17","","","","","77","car","10","0","1",""
"","","","","","","","","","","","canvas-button-response","278","426546","0.0-278.0","477","7","","","","","","","","","","","","","","confidence","","","2","17","","","","","","","","","","12"
"","","","","","","","","","","","preload","279","426547","0.0-279.0","","","","","true","","","","","","","","","","","preload","","","2","18","false","[]","[]","[]","","","","","",""
"","","","","","","","","","","","canvas-keyboard-response","280","426849","0.0-280.0","null","null","","","","","","","","","","","","","","fixation","","","2","18","","","","","","","","","",""
"","","","","","","","","","","","canvas-keyboard-response","281","427151","0.0-281.0","null","null","","","","","","","","","","","","","","stimulus","","","2","18","","","","","","","","","",""
"","","","","","","","","","","","canvas-button-response","282","428278","0.0-282.0","1126","phone","","","","","","","","","","","","","","perceptual","","","2","18","","","","","118","phone","10","0","1",""
"","","","","","","","","","","","canvas-button-response","283","428947","0.0-283.0","667","8","","","","","","","","","","","","","","confidence","","","2","18","","","","","","","","","","13"
"","","","","","","","","","","","preload","284","428948","0.0-284.0","","","","","true","","","","","","","","","","","preload","","","2","19","false","[]","[]","[]","","","","","",""
"","","","","","","","","","","","canvas-keyboard-response","285","429251","0.0-285.0","null","null","","","","","","","","","","","","","","fixation","","","2","19","","","","","","","","","",""
"","","","","","","","","","","","canvas-keyboard-response","286","429553","0.0-286.0","null","null","","","","","","","","","","","","","","stimulus","","","2","19","","","","","","","","","",""
"","","","","","","","","","","","canvas-button-response","287","430269","0.0-287.0","715","cat","","","","","","","","","","","","","","perceptual","","","2","19","","","","","319","cat","10","0","1",""
"","","","","","","","","","","","canvas-button-response","288","430960","0.0-288.0","689","10","","","","","","","","","","","","","","confidence","","","2","19","","","","","","","","","","14"
"","","","","","","","","","","","preload","289","430961","0.0-289.0","","","","","true","","","","","","","","","","","preload","","","2","20","false","[]","[]","[]","","","","","",""
"","","","","","","","","","","","canvas-keyboard-response","290","431262","0.0-290.0","null","null","","","","","","","","","","","","","","fixation","","","2","20","","","","","","","","","",""
"","","","","","","","","","","","canvas-keyboard-response","291","431563","0.0-291.0","null","null","","","","","","","","","","","","","","stimulus","","","2","20","","","","","","","","","",""
"","","","","","","","","","","","canvas-button-response","292","435441","0.0-292.0","3877","bridge","","","","","","","","","","","","","","perceptual","","","2","20","","","","","110","phone","10","0","0",""
"","","","","","","","","","","","canvas-button-response","293","436009","0.0-293.0","566","2","","","","","","","","","","","","","","confidence","","","2","20","","","","","","","","","","14"
"","","","","","","","","","","","preload","294","436009","0.0-294.0","","","","","true","","","","","","","","","","","preload","","","2","21","false","[]","[]","[]","","","","","",""
"","","","","","","","","","","","canvas-keyboard-response","295","436312","0.0-295.0","null","null","","","","","","","","","","","","","","fixation","","","2","21","","","","","","","","","",""
"","","","","","","","","","","","canvas-keyboard-response","296","436615","0.0-296.0","null","null","","","","","","","","","","","","","","stimulus","","","2","21","","","","","","","","","",""
"","","","","","","","","","","","canvas-button-response","297","437420","0.0-297.0","802","knife","","","","","","","","","","","","","","perceptual","","","2","21","","","","","360","knife","6","0","1",""
"","","","","","","","","","","","canvas-button-response","298","438162","0.0-298.0","740","10","","","","","","","","","","","","","","confidence","","","2","21","","","","","","","","","","15"
"","","","","","","","","","","","preload","299","438163","0.0-299.0","","","","","true","","","","","","","","","","","preload","","","2","22","false","[]","[]","[]","","","","","",""
"","","","","","","","","","","","canvas-keyboard-response","300","438464","0.0-300.0","null","null","","","","","","","","","","","","","","fixation","","","2","22","","","","","","","","","",""
"","","","","","","","","","","","canvas-keyboard-response","301","438765","0.0-301.0","null","null","","","","","","","","","","","","","","stimulus","","","2","22","","","","","","","","","",""
"","","","","","","","","","","","canvas-button-response","302","440210","0.0-302.0","1443","train","","","","","","","","","","","","","","perceptual","","","2","22","","","","","278","train","10","0","1",""
"","","","","","","","","","","","canvas-button-response","303","440854","0.0-303.0","642","10","","","","","","","","","","","","","","confidence","","","2","22","","","","","","","","","","16"
"","","","","","","","","","","","preload","304","440854","0.0-304.0","","","","","true","","","","","","","","","","","preload","","","2","23","false","[]","[]","[]","","","","","",""
"","","","","","","","","","","","canvas-keyboard-response","305","441156","0.0-305.0","null","null","","","","","","","","","","","","","","fixation","","","2","23","","","","","","","","","",""
"","","","","","","","","","","","canvas-keyboard-response","306","441457","0.0-306.0","null","null","","","","","","","","","","","","","","stimulus","","","2","23","","","","","","","","","",""
"","","","","","","","","","","","canvas-button-response","307","442769","0.0-307.0","1310","cat","","","","","","","","","","","","","","perceptual","","","2","23","","","","","308","cat","10","0","1",""
"","","","","","","","","","","","canvas-button-response","308","443488","0.0-308.0","718","7","","","","","","","","","","","","","","confidence","","","2","23","","","","","","","","","","17"
"","","","","","","","","","","","preload","309","443489","0.0-309.0","","","","","true","","","","","","","","","","","preload","","","2","24","false","[]","[]","[]","","","","","",""
"","","","","","","","","","","","canvas-keyboard-response","310","443791","0.0-310.0","null","null","","","","","","","","","","","","","","fixation","","","2","24","","","","","","","","","",""
"","","","","","","","","","","","canvas-keyboard-response","311","444094","0.0-311.0","null","null","","","","","","","","","","","","","","stimulus","","","2","24","","","","","","","","","",""
"","","","","","","","","","","","canvas-button-response","312","445222","0.0-312.0","1124","flower","","","","","","","","","","","","","","perceptual","","","2","24","","","","","232","flower","10","0","1",""
"","","","","","","","","","","","canvas-button-response","313","445870","0.0-313.0","646","10","","","","","","","","","","","","","","confidence","","","2","24","","","","","","","","","","18"
"","","","","","","","","","","","preload","314","445870","0.0-314.0","","","","","true","","","","","","","","","","","preload","","","2","25","false","[]","[]","[]","","","","","",""
"","","","","","","","","","","","canvas-keyboard-response","315","446173","0.0-315.0","null","null","","","","","","","","","","","","","","fixation","","","2","25","","","","","","","","","",""
"","","","","","","","","","","","canvas-keyboard-response","316","446476","0.0-316.0","null","null","","","","","","","","","","","","","","stimulus","","","2","25","","","","","","","","","",""
"","","","","","","","","","","","canvas-button-response","317","447505","0.0-317.0","1028","house","","","","","","","","","","","","","","perceptual","","","2","25","","","","","12","house","6","0","1",""
"","","","","","","","","","","","canvas-button-response","318","448169","0.0-318.0","663","10","","","","","","","","","","","","","","confidence","","","2","25","","","","","","","","","","19"
"","","","","","","","","","","","preload","319","448170","0.0-319.0","","","","","true","","","","","","","","","","","preload","","","2","26","false","[]","[]","[]","","","","","",""
"","","","","","","","","","","","canvas-keyboard-response","320","448471","0.0-320.0","null","null","","","","","","","","","","","","","","fixation","","","2","26","","","","","","","","","",""
"","","","","","","","","","","","canvas-keyboard-response","321","448773","0.0-321.0","null","null","","","","","","","","","","","","","","stimulus","","","2","26","","","","","","","","","",""
"","","","","","","","","","","","canvas-button-response","322","450002","0.0-322.0","1228","bridge","","","","","","","","","","","","","","perceptual","","","2","26","","","","","160","bridge","6","0","1",""
"","","","","","","","","","","","canvas-button-response","323","450836","0.0-323.0","832","10","","","","","","","","","","","","","","confidence","","","2","26","","","","","","","","","","20"
"","","","","","","","","","","","preload","324","450836","0.0-324.0","","","","","true","","","","","","","","","","","preload","","","2","27","false","[]","[]","[]","","","","","",""
"","","","","","","","","","","","canvas-keyboard-response","325","451138","0.0-325.0","null","null","","","","","","","","","","","","","","fixation","","","2","27","","","","","","","","","",""
"","","","","","","","","","","","canvas-keyboard-response","326","451440","0.0-326.0","null","null","","","","","","","","","","","","","","stimulus","","","2","27","","","","","","","","","",""
"","","","","","","","","","","","canvas-button-response","327","452401","0.0-327.0","960","elephant","","","","","","","","","","","","","","perceptual","","","2","27","","","","","335","elephant","6","0","1",""
"","","","","","","","","","","","canvas-button-response","328","452883","0.0-328.0","480","10","","","","","","","","","","","","","","confidence","","","2","27","","","","","","","","","","21"
"","","","","","","","","","","","preload","329","452883","0.0-329.0","","","","","true","","","","","","","","","","","preload","","","2","28","false","[]","[]","[]","","","","","",""
"","","","","","","","","","","","canvas-keyboard-response","330","453184","0.0-330.0","null","null","","","","","","","","","","","","","","fixation","","","2","28","","","","","","","","","",""
"","","","","","","","","","","","canvas-keyboard-response","331","453485","0.0-331.0","null","null","","","","","","","","","","","","","","stimulus","","","2","28","","","","","","","","","",""
"","","","","","","","","","","","canvas-button-response","332","454653","0.0-332.0","1167","house","","","","","","","","","","","","","","perceptual","","","2","28","","","","","33","house","10","0","1",""
"","","","","","","","","","","","canvas-button-response","333","455353","0.0-333.0","699","6","","","","","","","","","","","","","","confidence","","","2","28","","","","","","","","","","22"
"","","","","","","","","","","","preload","334","455354","0.0-334.0","","","","","true","","","","","","","","","","","preload","","","2","29","false","[]","[]","[]","","","","","",""
"","","","","","","","","","","","canvas-keyboard-response","335","455657","0.0-335.0","null","null","","","","","","","","","","","","","","fixation","","","2","29","","","","","","","","","",""
"","","","","","","","","","","","canvas-keyboard-response","336","455959","0.0-336.0","null","null","","","","","","","","","","","","","","stimulus","","","2","29","","","","","","","","","",""
"","","","","","","","","","","","canvas-button-response","337","459611","0.0-337.0","3650","flower","","","","","","","","","","","","","","perceptual","","","2","29","","","","","292","cat","6","0","0",""
"","","","","","","","","","","","canvas-button-response","338","460605","0.0-338.0","993","3","","","","","","","","","","","","","","confidence","","","2","29","","","","","","","","","","22"
"","","","","","","","","","","","preload","339","460605","0.0-339.0","","","","","true","","","","","","","","","","","preload","","","2","30","false","[]","[]","[]","","","","","",""
"","","","","","","","","","","","canvas-keyboard-response","340","460907","0.0-340.0","null","null","","","","","","","","","","","","","","fixation","","","2","30","","","","","","","","","",""
"","","","","","","","","","","","canvas-keyboard-response","341","461210","0.0-341.0","null","null","","","","","","","","","","","","","","stimulus","","","2","30","","","","","","","","","",""
"","","","","","","","","","","","canvas-button-response","342","464545","0.0-342.0","3332","car","","","","","","","","","","","","","","perceptual","","","2","30","","","","","119","phone","10","0","0",""
"","","","","","","","","","","","canvas-button-response","343","465135","0.0-343.0","588","6","","","","","","","","","","","","","","confidence","","","2","30","","","","","","","","","","22"
"","","","","","","","","","","","preload","344","465135","0.0-344.0","","","","","true","","","","","","","","","","","preload","","","2","31","false","[]","[]","[]","","","","","",""
"","","","","","","","","","","","canvas-keyboard-response","345","465436","0.0-345.0","null","null","","","","","","","","","","","","","","fixation","","","2","31","","","","","","","","","",""
"","","","","","","","","","","","canvas-keyboard-response","346","465740","0.0-346.0","null","null","","","","","","","","","","","","","","stimulus","","","2","31","","","","","","","","","",""
"","","","","","","","","","","","canvas-button-response","347","468671","0.0-347.0","2928","house","","","","","","","","","","","","","","perceptual","","","2","31","","","","","133","bed","6","0","0",""
"","","","","","","","","","","","canvas-button-response","348","469172","0.0-348.0","499","4","","","","","","","","","","","","","","confidence","","","2","31","","","","","","","","","","22"
"","","","","","","","","","","","preload","349","469172","0.0-349.0","","","","","true","","","","","","","","","","","preload","","","2","32","false","[]","[]","[]","","","","","",""
"","","","","","","","","","","","canvas-keyboard-response","350","469474","0.0-350.0","null","null","","","","","","","","","","","","","","fixation","","","2","32","","","","","","","","","",""
"","","","","","","","","","","","canvas-keyboard-response","351","469775","0.0-351.0","null","null","","","","","","","","","","","","","","stimulus","","","2","32","","","","","","","","","",""
"","","","","","","","","","","","canvas-button-response","352","470905","0.0-352.0","1129","train","","","","","","","","","","","","","","perceptual","","","2","32","","","","","186","bridge","10","0","0",""
"","","","","","","","","","","","canvas-button-response","353","474178","0.0-353.0","3272","0","","","","","","","","","","","","","","confidence","","","2","32","","","","","","","","","","22"
"","","","","","","","","","","","preload","354","474179","0.0-354.0","","","","","true","","","","","","","","","","","preload","","","2","33","false","[]","[]","[]","","","","","",""
"","","","","","","","","","","","canvas-keyboard-response","355","474481","0.0-355.0","null","null","","","","","","","","","","","","","","fixation","","","2","33","","","","","","","","","",""
"","","","","","","","","","","","canvas-keyboard-response","356","474783","0.0-356.0","null","null","","","","","","","","","","","","","","stimulus","","","2","33","","","","","","","","","",""
"","","","","","","","","","","","canvas-button-response","357","476188","0.0-357.0","1402","bridge","","","","","","","","","","","","","","perceptual","","","2","33","","","","","165","bridge","6","0","1",""
"","","","","","","","","","","","canvas-button-response","358","477464","0.0-358.0","1274","10","","","","","","","","","","","","","","confidence","","","2","33","","","","","","","","","","23"
"","","","","","","","","","","","preload","359","477464","0.0-359.0","","","","","true","","","","","","","","","","","preload","","","2","34","false","[]","[]","[]","","","","","",""
"","","","","","","","","","","","canvas-keyboard-response","360","477766","0.0-360.0","null","null","","","","","","","","","","","","","","fixation","","","2","34","","","","","","","","","",""
"","","","","","","","","","","","canvas-keyboard-response","361","478067","0.0-361.0","null","null","","","","","","","","","","","","","","stimulus","","","2","34","","","","","","","","","",""
"","","","","","","","","","","","canvas-button-response","362","480063","0.0-362.0","1994","knife","","","","","","","","","","","","","","perceptual","","","2","34","","","","","363","knife","6","0","1",""
"","","","","","","","","","","","canvas-button-response","363","480738","0.0-363.0","674","6","","","","","","","","","","","","","","confidence","","","2","34","","","","","","","","","","24"
"","","","","","","","","","","","preload","364","480739","0.0-364.0","","","","","true","","","","","","","","","","","preload","","","2","35","false","[]","[]","[]","","","","","",""
"","","","","","","","","","","","canvas-keyboard-response","365","481041","0.0-365.0","null","null","","","","","","","","","","","","","","fixation","","","2","35","","","","","","","","","",""
"","","","","","","","","","","","canvas-keyboard-response","366","481344","0.0-366.0","null","null","","","","","","","","","","","","","","stimulus","","","2","35","","","","","","","","","",""
"","","","","","","","","","","","canvas-button-response","367","482388","0.0-367.0","1042","elephant","","","","","","","","","","","","","","perceptual","","","2","35","","","","","338","elephant","6","0","1",""
"","","","","","","","","","","","canvas-button-response","368","483086","0.0-368.0","696","10","","","","","","","","","","","","","","confidence","","","2","35","","","","","","","","","","25"
"","","","","","","","","","","","preload","369","483086","0.0-369.0","","","","","true","","","","","","","","","","","preload","","","2","36","false","[]","[]","[]","","","","","",""
"","","","","","","","","","","","canvas-keyboard-response","370","483391","0.0-370.0","null","null","","","","","","","","","","","","","","fixation","","","2","36","","","","","","","","","",""
"","","","","","","","","","","","canvas-keyboard-response","371","483694","0.0-371.0","null","null","","","","","","","","","","","","","","stimulus","","","2","36","","","","","","","","","",""
"","","","","","","","","","","","canvas-button-response","372","484902","0.0-372.0","1207","car","","","","","","","","","","","","","","perceptual","","","2","36","","","","","50","car","6","0","1",""
"","","","","","","","","","","","canvas-button-response","373","485479","0.0-373.0","576","10","","","","","","","","","","","","","","confidence","","","2","36","","","","","","","","","","26"
"","","","","","","","","","","","preload","374","485480","0.0-374.0","","","","","true","","","","","","","","","","","preload","","","2","37","false","[]","[]","[]","","","","","",""
"","","","","","","","","","","","canvas-keyboard-response","375","485781","0.0-375.0","null","null","","","","","","","","","","","","","","fixation","","","2","37","","","","","","","","","",""
"","","","","","","","","","","","canvas-keyboard-response","376","486082","0.0-376.0","null","null","","","","","","","","","","","","","","stimulus","","","2","37","","","","","","","","","",""
"","","","","","","","","","","","canvas-button-response","377","486930","0.0-377.0","845","knife","","","","","","","","","","","","","","perceptual","","","2","37","","","","","368","knife","6","0","1",""
"","","","","","","","","","","","canvas-button-response","378","487560","0.0-378.0","628","10","","","","","","","","","","","","","","confidence","","","2","37","","","","","","","","","","27"
"","","","","","","","","","","","preload","379","487561","0.0-379.0","","","","","true","","","","","","","","","","","preload","","","2","38","false","[]","[]","[]","","","","","",""
"","","","","","","","","","","","canvas-keyboard-response","380","487861","0.0-380.0","null","null","","","","","","","","","","","","","","fixation","","","2","38","","","","","","","","","",""
"","","","","","","","","","","","canvas-keyboard-response","381","488163","0.0-381.0","null","null","","","","","","","","","","","","","","stimulus","","","2","38","","","","","","","","","",""
"","","","","","","","","","","","canvas-button-response","382","490144","0.0-382.0","1979","elephant","","","","","","","","","","","","","","perceptual","","","2","38","","","","","191","bridge","10","0","0",""
"","","","","","","","","","","","canvas-button-response","383","490678","0.0-383.0","533","10","","","","","","","","","","","","","","confidence","","","2","38","","","","","","","","","","27"
"","","","","","","","","","","","preload","384","490679","0.0-384.0","","","","","true","","","","","","","","","","","preload","","","2","39","false","[]","[]","[]","","","","","",""
"","","","","","","","","","","","canvas-keyboard-response","385","490980","0.0-385.0","null","null","","","","","","","","","","","","","","fixation","","","2","39","","","","","","","","","",""
"","","","","","","","","","","","canvas-keyboard-response","386","491283","0.0-386.0","null","null","","","","","","","","","","","","","","stimulus","","","2","39","","","","","","","","","",""
"","","","","","","","","","","","canvas-button-response","387","492646","0.0-387.0","1362","flower","","","","","","","","","","","","","","perceptual","","","2","39","","","","","214","flower","6","0","1",""
"","","","","","","","","","","","canvas-button-response","388","493228","0.0-388.0","580","10","","","","","","","","","","","","","","confidence","","","2","39","","","","","","","","","","28"
"","","","","","","","","","","","preload","389","493228","0.0-389.0","","","","","true","","","","","","","","","","","preload","","","2","40","false","[]","[]","[]","","","","","",""
"","","","","","","","","","","","canvas-keyboard-response","390","493530","0.0-390.0","null","null","","","","","","","","","","","","","","fixation","","","2","40","","","","","","","","","",""
"","","","","","","","","","","","canvas-keyboard-response","391","493832","0.0-391.0","null","null","","","","","","","","","","","","","","stimulus","","","2","40","","","","","","","","","",""
"","","","","","","","","","","","canvas-button-response","392","494598","0.0-392.0","764","car","","","","","","","","","","","","","","perceptual","","","2","40","","","","","269","train","10","0","0",""
"","","","","","","","","","","","canvas-button-response","393","495226","0.0-393.0","626","10","","","","","","","","","","","","","","confidence","","","2","40","","","","","","","","","","28"
"","","","","","","","","","","","preload","394","495226","0.0-394.0","","","","","true","","","","","","","","","","","preload","","","2","41","false","[]","[]","[]","","","","","",""
"","","","","","","","","","","","canvas-keyboard-response","395","495528","0.0-395.0","null","null","","","","","","","","","","","","","","fixation","","","2","41","","","","","","","","","",""
"","","","","","","","","","","","canvas-keyboard-response","396","495830","0.0-396.0","null","null","","","","","","","","","","","","","","stimulus","","","2","41","","","","","","","","","",""
"","","","","","","","","","","","canvas-button-response","397","497237","0.0-397.0","1406","bed","","","","","","","","","","","","","","perceptual","","","2","41","","","","","139","bed","6","0","1",""
"","","","","","","","","","","","canvas-button-response","398","497894","0.0-398.0","655","8","","","","","","","","","","","","","","confidence","","","2","41","","","","","","","","","","29"
"","","","","","","","","","","","preload","399","497894","0.0-399.0","","","","","true","","","","","","","","","","","preload","","","2","42","false","[]","[]","[]","","","","","",""
"","","","","","","","","","","","canvas-keyboard-response","400","498195","0.0-400.0","null","null","","","","","","","","","","","","","","fixation","","","2","42","","","","","","","","","",""
"","","","","","","","","","","","canvas-keyboard-response","401","498498","0.0-401.0","null","null","","","","","","","","","","","","","","stimulus","","","2","42","","","","","","","","","",""
"","","","","","","","","","","","canvas-button-response","402","499342","0.0-402.0","841","car","","","","","","","","","","","","","","perceptual","","","2","42","","","","","49","car","6","0","1",""
"","","","","","","","","","","","canvas-button-response","403","500169","0.0-403.0","825","10","","","","","","","","","","","","","","confidence","","","2","42","","","","","","","","","","30"
"","","","","","","","","","","","preload","404","500169","0.0-404.0","","","","","true","","","","","","","","","","","preload","","","2","43","false","[]","[]","[]","","","","","",""
"","","","","","","","","","","","canvas-keyboard-response","405","500472","0.0-405.0","null","null","","","","","","","","","","","","","","fixation","","","2","43","","","","","","","","","",""
"","","","","","","","","","","","canvas-keyboard-response","406","500774","0.0-406.0","null","null","","","","","","","","","","","","","","stimulus","","","2","43","","","","","","","","","",""
"","","","","","","","","","","","canvas-button-response","407","501913","0.0-407.0","1138","bridge","","","","","","","","","","","","","","perceptual","","","2","43","","","","","384","knife","10","0","0",""
"","","","","","","","","","","","canvas-button-response","408","502827","0.0-408.0","913","5","","","","","","","","","","","","","","confidence","","","2","43","","","","","","","","","","30"
"","","","","","","","","","","","preload","409","502828","0.0-409.0","","","","","true","","","","","","","","","","","preload","","","2","44","false","[]","[]","[]","","","","","",""
"","","","","","","","","","","","canvas-keyboard-response","410","503129","0.0-410.0","null","null","","","","","","","","","","","","","","fixation","","","2","44","","","","","","","","","",""
"","","","","","","","","","","","canvas-keyboard-response","411","503432","0.0-411.0","null","null","","","","","","","","","","","","","","stimulus","","","2","44","","","","","","","","","",""
"","","","","","","","","","","","canvas-button-response","412","505987","0.0-412.0","2552","knife","","","","","","","","","","","","","","perceptual","","","2","44","","","","","94","phone","6","0","0",""
"","","","","","","","","","","","canvas-button-response","413","506729","0.0-413.0","741","6","","","","","","","","","","","","","","confidence","","","2","44","","","","","","","","","","30"
"","","","","","","","","","","","preload","414","506730","0.0-414.0","","","","","true","","","","","","","","","","","preload","","","2","45","false","[]","[]","[]","","","","","",""
"","","","","","","","","","","","canvas-keyboard-response","415","507031","0.0-415.0","null","null","","","","","","","","","","","","","","fixation","","","2","45","","","","","","","","","",""
"","","","","","","","","","","","canvas-keyboard-response","416","507334","0.0-416.0","null","null","","","","","","","","","","","","","","stimulus","","","2","45","","","","","","","","","",""
"","","","","","","","","","","","canvas-button-response","417","508254","0.0-417.0","919","train","","","","","","","","","","","","","","perceptual","","","2","45","","","","","250","train","6","0","1",""
"","","","","","","","","","","","canvas-button-response","418","508853","0.0-418.0","598","10","","","","","","","","","","","","","","confidence","","","2","45","","","","","","","","","","31"
"","","","","","","","","","","","preload","419","508854","0.0-419.0","","","","","true","","","","","","","","","","","preload","","","2","46","false","[]","[]","[]","","","","","",""
"","","","","","","","","","","","canvas-keyboard-response","420","509156","0.0-420.0","null","null","","","","","","","","","","","","","","fixation","","","2","46","","","","","","","","","",""
"","","","","","","","","","","","canvas-keyboard-response","421","509457","0.0-421.0","null","null","","","","","","","","","","","","","","stimulus","","","2","46","","","","","","","","","",""
"","","","","","","","","","","","canvas-button-response","422","510538","0.0-422.0","1080","knife","","","","","","","","","","","","","","perceptual","","","2","46","","","","","148","bed","10","0","0",""
"","","","","","","","","","","","canvas-button-response","423","511062","0.0-423.0","522","8","","","","","","","","","","","","","","confidence","","","2","46","","","","","","","","","","31"
"","","","","","","","","","","","preload","424","511062","0.0-424.0","","","","","true","","","","","","","","","","","preload","","","2","47","false","[]","[]","[]","","","","","",""
"","","","","","","","","","","","canvas-keyboard-response","425","511363","0.0-425.0","null","null","","","","","","","","","","","","","","fixation","","","2","47","","","","","","","","","",""
"","","","","","","","","","","","canvas-keyboard-response","426","511665","0.0-426.0","null","null","","","","","","","","","","","","","","stimulus","","","2","47","","","","","","","","","",""
"","","","","","","","","","","","canvas-button-response","427","512462","0.0-427.0","796","elephant","","","","","","","","","","","","","","perceptual","","","2","47","","","","","336","elephant","6","0","1",""
"","","","","","","","","","","","canvas-button-response","428","513280","0.0-428.0","816","8","","","","","","","","","","","","","","confidence","","","2","47","","","","","","","","","","32"
"","","","","","","","","","","","preload","429","513280","0.0-429.0","","","","","true","","","","","","","","","","","preload","","","2","48","false","[]","[]","[]","","","","","",""
"","","","","","","","","","","","canvas-keyboard-response","430","513581","0.0-430.0","null","null","","","","","","","","","","","","","","fixation","","","2","48","","","","","","","","","",""
"","","","","","","","","","","","canvas-keyboard-response","431","513883","0.0-431.0","null","null","","","","","","","","","","","","","","stimulus","","","2","48","","","","","","","","","",""
"","","","","","","","","","","","canvas-button-response","432","516908","0.0-432.0","3024","bridge","","","","","","","","","","","","","","perceptual","","","2","48","","","","","96","phone","6","0","0",""
"","","","","","","","","","","","canvas-button-response","433","517456","0.0-433.0","547","7","","","","","","","","","","","","","","confidence","","","2","48","","","","","","","","","","32"
"","","","","","","","","","","","preload","434","517457","0.0-434.0","","","","","true","","","","","","","","","","","preload","","","2","49","false","[]","[]","[]","","","","","",""
"","","","","","","","","","","","canvas-keyboard-response","435","517757","0.0-435.0","null","null","","","","","","","","","","","","","","fixation","","","2","49","","","","","","","","","",""
"","","","","","","","","","","","canvas-keyboard-response","436","518058","0.0-436.0","null","null","","","","","","","","","","","","","","stimulus","","","2","49","","","","","","","","","",""
"","","","","","","","","","","","canvas-button-response","437","519032","0.0-437.0","972","house","","","","","","","","","","","","","","perceptual","","","2","49","","","","","7","house","6","0","1",""
"","","","","","","","","","","","canvas-button-response","438","519659","0.0-438.0","626","10","","","","","","","","","","","","","","confidence","","","2","49","","","","","","","","","","33"
"","","","","","","","","","","","html-button-response","439","571579","0.0-439.0","51919","0","","","","","","","","","","","","","","<p style=""font-size:20px;color:#000000"">You got 33 out of 50 trials correct in this block.<br><br>You have completed 6% of the experiment.<br><br>Take a short break.<br><br>When you are ready, click Continue to proceed.","","","2","49","","","","","","","","","",""
"","","","","","","","","","","","html-keyboard-response","440","572582","0.0-440.0","null","null","","","","","","","","","","","","","","<p style=""font-size:32px;color:#000000""><br><br> RUN: &nbsp 1/4 <br><br> BLOCK: 2/4 ","","","2","49","","","","","","","","","",""
"","","","","","","","","","","","preload","441","572583","0.0-441.0","","","","","true","","","","","","","","","","","preload","","","2","50","false","[]","[]","[]","","","","","",""
"","","","","","","","","","","","canvas-keyboard-response","442","572888","0.0-442.0","null","null","","","","","","","","","","","","","","fixation","","","2","50","","","","","","","","","",""
"","","","","","","","","","","","canvas-keyboard-response","443","573196","0.0-443.0","null","null","","","","","","","","","","","","","","stimulus","","","2","50","","","","","","","","","",""
"","","","","","","","","","","","canvas-button-response","444","580333","0.0-444.0","7135","flower","","","","","","","","","","","","","","perceptual","","","2","50","","","","","37","house","10","0","0",""
"","","","","","","","","","","","canvas-button-response","445","581150","0.0-445.0","815","10","","","","","","","","","","","","","","confidence","","","2","50","","","","","","","","","","0"
"","","","","","","","","","","","preload","446","581151","0.0-446.0","","","","","true","","","","","","","","","","","preload","","","2","51","false","[]","[]","[]","","","","","",""
"","","","","","","","","","","","canvas-keyboard-response","447","581453","0.0-447.0","null","null","","","","","","","","","","","","","","fixation","","","2","51","","","","","","","","","",""
"","","","","","","","","","","","canvas-keyboard-response","448","581756","0.0-448.0","null","null","","","","","","","","","","","","","","stimulus","","","2","51","","","","","","","","","",""
"","","","","","","","","","","","canvas-button-response","449","582974","0.0-449.0","1215","house","","","","","","","","","","","","","","perceptual","","","2","51","","","","","102","phone","10","0","0",""
"","","","","","","","","","","","canvas-button-response","450","584505","0.0-450.0","1530","2","","","","","","","","","","","","","","confidence","","","2","51","","","","","","","","","","0"
"","","","","","","","","","","","preload","451","584506","0.0-451.0","","","","","true","","","","","","","","","","","preload","","","2","52","false","[]","[]","[]","","","","","",""
"","","","","","","","","","","","canvas-keyboard-response","452","584808","0.0-452.0","null","null","","","","","","","","","","","","","","fixation","","","2","52","","","","","","","","","",""
"","","","","","","","","","","","canvas-keyboard-response","453","585113","0.0-453.0","null","null","","","","","","","","","","","","","","stimulus","","","2","52","","","","","","","","","",""
"","","","","","","","","","","","canvas-button-response","454","588547","0.0-454.0","3432","bridge","","","","","","","","","","","","","","perceptual","","","2","52","","","","","177","bridge","6","0","1",""
"","","","","","","","","","","","canvas-button-response","455","589233","0.0-455.0","685","3","","","","","","","","","","","","","","confidence","","","2","52","","","","","","","","","","1"
"","","","","","","","","","","","preload","456","589234","0.0-456.0","","","","","true","","","","","","","","","","","preload","","","2","53","false","[]","[]","[]","","","","","",""
"","","","","","","","","","","","canvas-keyboard-response","457","589537","0.0-457.0","null","null","","","","","","","","","","","","","","fixation","","","2","53","","","","","","","","","",""
"","","","","","","","","","","","canvas-keyboard-response","458","589839","0.0-458.0","null","null","","","","","","","","","","","","","","stimulus","","","2","53","","","","","","","","","",""
"","","","","","","","","","","","canvas-button-response","459","592097","0.0-459.0","2256","bridge","","","","","","","","","","","","","","perceptual","","","2","53","","","","","107","phone","10","0","0",""
"","","","","","","","","","","","canvas-button-response","460","592574","0.0-460.0","476","3","","","","","","","","","","","","","","confidence","","","2","53","","","","","","","","","","1"
"","","","","","","","","","","","preload","461","592575","0.0-461.0","","","","","true","","","","","","","","","","","preload","","","2","54","false","[]","[]","[]","","","","","",""
"","","","","","","","","","","","canvas-keyboard-response","462","592879","0.0-462.0","null","null","","","","","","","","","","","","","","fixation","","","2","54","","","","","","","","","",""
"","","","","","","","","","","","canvas-keyboard-response","463","593182","0.0-463.0","null","null","","","","","","","","","","","","","","stimulus","","","2","54","","","","","","","","","",""
"","","","","","","","","","","","canvas-button-response","464","594451","0.0-464.0","1266","bed","","","","","","","","","","","","","","perceptual","","","2","54","","","","","270","train","10","0","0",""
"","","","","","","","","","","","canvas-button-response","465","595031","0.0-465.0","579","2","","","","","","","","","","","","","","confidence","","","2","54","","","","","","","","","","1"
"","","","","","","","","","","","preload","466","595032","0.0-466.0","","","","","true","","","","","","","","","","","preload","","","2","55","false","[]","[]","[]","","","","","",""
"","","","","","","","","","","","canvas-keyboard-response","467","595333","0.0-467.0","null","null","","","","","","","","","","","","","","fixation","","","2","55","","","","","","","","","",""
"","","","","","","","","","","","canvas-keyboard-response","468","595635","0.0-468.0","null","null","","","","","","","","","","","","","","stimulus","","","2","55","","","","","","","","","",""
"","","","","","","","","","","","canvas-button-response","469","597745","0.0-469.0","2109","phone","","","","","","","","","","","","","","perceptual","","","2","55","","","","","97","phone","6","0","1",""
"","","","","","","","","","","","canvas-button-response","470","598634","0.0-470.0","886","10","","","","","","","","","","","","","","confidence","","","2","55","","","","","","","","","","2"
"","","","","","","","","","","","preload","471","598634","0.0-471.0","","","","","true","","","","","","","","","","","preload","","","2","56","false","[]","[]","[]","","","","","",""
"","","","","","","","","","","","canvas-keyboard-response","472","598936","0.0-472.0","null","null","","","","","","","","","","","","","","fixation","","","2","56","","","","","","","","","",""
"","","","","","","","","","","","canvas-keyboard-response","473","599240","0.0-473.0","null","null","","","","","","","","","","","","","","stimulus","","","2","56","","","","","","","","","",""
"","","","","","","","","","","","canvas-button-response","474","600079","0.0-474.0","835","elephant","","","","","","","","","","","","","","perceptual","","","2","56","","","","","348","elephant","10","0","1",""
"","","","","","","","","","","","canvas-button-response","475","600667","0.0-475.0","587","9","","","","","","","","","","","","","","confidence","","","2","56","","","","","","","","","","3"
"","","","","","","","","","","","preload","476","600668","0.0-476.0","","","","","true","","","","","","","","","","","preload","","","2","57","false","[]","[]","[]","","","","","",""
"","","","","","","","","","","","canvas-keyboard-response","477","600970","0.0-477.0","null","null","","","","","","","","","","","","","","fixation","","","2","57","","","","","","","","","",""
"","","","","","","","","","","","canvas-keyboard-response","478","601272","0.0-478.0","null","null","","","","","","","","","","","","","","stimulus","","","2","57","","","","","","","","","",""
"","","","","","","","","","","","canvas-button-response","479","603562","0.0-479.0","2290","bed","","","","","","","","","","","","","","perceptual","","","2","57","","","","","130","bed","6","0","1",""
"","","","","","","","","","","","canvas-button-response","480","604279","0.0-480.0","714","7","","","","","","","","","","","","","","confidence","","","2","57","","","","","","","","","","4"
"","","","","","","","","","","","preload","481","604279","0.0-481.0","","","","","true","","","","","","","","","","","preload","","","2","58","false","[]","[]","[]","","","","","",""
"","","","","","","","","","","","canvas-keyboard-response","482","604581","0.0-482.0","null","null","","","","","","","","","","","","","","fixation","","","2","58","","","","","","","","","",""
"","","","","","","","","","","","canvas-keyboard-response","483","604882","0.0-483.0","null","null","","","","","","","","","","","","","","stimulus","","","2","58","","","","","","","","","",""
"","","","","","","","","","","","canvas-button-response","484","606156","0.0-484.0","1273","cat","","","","","","","","","","","","","","perceptual","","","2","58","","","","","291","cat","6","0","1",""
"","","","","","","","","","","","canvas-button-response","485","606808","0.0-485.0","650","8","","","","","","","","","","","","","","confidence","","","2","58","","","","","","","","","","5"
"","","","","","","","","","","","preload","486","606809","0.0-486.0","","","","","true","","","","","","","","","","","preload","","","2","59","false","[]","[]","[]","","","","","",""
"","","","","","","","","","","","canvas-keyboard-response","487","607112","0.0-487.0","null","null","","","","","","","","","","","","","","fixation","","","2","59","","","","","","","","","",""
"","","","","","","","","","","","canvas-keyboard-response","488","607415","0.0-488.0","null","null","","","","","","","","","","","","","","stimulus","","","2","59","","","","","","","","","",""
"","","","","","","","","","","","canvas-button-response","489","608567","0.0-489.0","1148","flower","","","","","","","","","","","","","","perceptual","","","2","59","","","","","230","flower","10","0","1",""
"","","","","","","","","","","","canvas-button-response","490","609376","0.0-490.0","807","10","","","","","","","","","","","","","","confidence","","","2","59","","","","","","","","","","6"
"","","","","","","","","","","","preload","491","609377","0.0-491.0","","","","","true","","","","","","","","","","","preload","","","2","60","false","[]","[]","[]","","","","","",""
