"width","height","webaudio","browser","browser_version","mobile","os","fullscreen","vsync_rate","webcam","microphone","trial_type","trial_index","time_elapsed","internal_node_id","rt","response","accuracy","view_history","success","item_width_mm","item_height_mm","item_width_px","px2mm","view_dist_mm","item_width_deg","px2deg","scale_factor","win_width_deg","win_height_deg","stimulus","datetime","subjectID","curr_triallist","trial_no","timeout","failed_images","failed_audio","failed_video","image_index","category","blur","reps","correct","running_score"
"1470","797","true","chrome","141.0.0","false","Mac OS","true","60","true","true","browser-check","0","1010","0.0-0.0","","","","","","","","","","","","","","","","","","","","","","","","","","","","","",""
"","","","","","","","","","","","survey","1","75751","0.0-1.0","74712","{""P0_Q0"":""904095822"",""P0_Q1"":""18"",""P1_Q0"":""Female"",""P1_Q1"":""Not Hispanic or Latino"",""P1_Q2"":""Black or African American"",""P1_Q3"":""Normal"",""P1_Q4"":""Left-Handed""}","[]","","","","","","","","","","","","","","","","","","","","","","","","","","",""
"","","","","","","","","","","","instructions","2","134987","0.0-2.0","59236","","","[{""page_index"":0,""viewing_time"":4652},{""page_index"":1,""viewing_time"":28917},{""page_index"":2,""viewing_time"":16517},{""page_index"":3,""viewing_time"":9150}]","","","","","","","","","","","","","","","","","","","","","","","","","",""
"","","","","","","","","","","","fullscreen","3","137140","0.0-3.0","1149","","","","true","","","","","","","","","","","","","","","","","","","","","","","","",""
"","","","","","","","","","","","virtual-chinrest","4","214420","0.0-4.0","77278","","","","","85.6","53.98","242.2400728758037","2.831820570238269","606.39","8.074669095860123","30","1.7585859967042277","49","30.633333333333333","","","","","","","","","","","","","","",""
"","","","","","","","","","","","instructions","5","282003","0.0-5.0","67582","","","[{""page_index"":0,""viewing_time"":10664},{""page_index"":1,""viewing_time"":11501},{""page_index"":2,""viewing_time"":7666},{""page_index"":3,""viewing_time"":7751},{""page_index"":4,""viewing_time"":14267},{""page_index"":5,""viewing_time"":11400},{""page_index"":6,""viewing_time"":4333}]","","","","","","","","","","","","","","","","","","","","","","","","","",""
"","","","","","","","","","","","html-button-response","6","291137","0.0-6.0","9131","0","","","","","","","","","","","","","","start_practice","Thu Oct 16 2025 14:41:15 GMT-0400 (Eastern Daylight Time)","27355","","","","","","","","","","","",""
"","","","","","","","","","","","preload","7","291139","0.0-7.0","","","","","true","","","","","","","","","","","preload","","","0","0","false","[]","[]","[]","","","","","",""
"","","","","","","","","","","","canvas-keyboard-response","8","291443","0.0-8.0","null","null","","","","","","","","","","","","","","fixation","","","0","0","","","","","","","","","",""
"","","","","","","","","","","","canvas-keyboard-response","9","291746","0.0-9.0","null","null","","","","","","","","","","","","","","stimulus","","","0","0","","","","","","","","","",""
"","","","","","","","","","","","canvas-button-response","10","292902","0.0-10.0","1153","cat","","","","","","","","","","","","","","perceptual","","","0","0","","","","","72","cat","1","","1",""
"","","","","","","","","","","","canvas-button-response","11","295253","0.0-11.0","2349","10","","","","","","","","","","","","","","confidence","","","0","0","","","","","","","","","","1"
"","","","","","","","","","","","html-keyboard-response","12","296256","0.0-12.0","null","null","","","","","","","","","","","","","","feedback","Thu Oct 16 2025 14:41:28 GMT-0400 (Eastern Daylight Time)","27355","0","0","","","","","","","","","",""
"","","","","","","","","","","","preload","13","296257","0.0-13.0","","","","","true","","","","","","","","","","","preload","","","0","1","false","[]","[]","[]","","","","","",""
"","","","","","","","","","","","canvas-keyboard-response","14","296559","0.0-14.0","null","null","","","","","","","","","","","","","","fixation","","","0","1","","","","","","","","","",""
"","","","","","","","","","","","canvas-keyboard-response","15","296861","0.0-15.0","null","null","","","","","","","","","","","","","","stimulus","","","0","1","","","","","","","","","",""
"","","","","","","","","","","","canvas-button-response","16","301120","0.0-16.0","4258","flower","","","","","","","","","","","","","","perceptual","","","0","1","","","","","52","flower","1","","1",""
"","","","","","","","","","","","canvas-button-response","17","302852","0.0-17.0","1730","8","","","","","","","","","","","","","","confidence","","","0","1","","","","","","","","","","2"
"","","","","","","","","","","","html-keyboard-response","18","303855","0.0-18.0","null","null","","","","","","","","","","","","","","feedback","Thu Oct 16 2025 14:41:36 GMT-0400 (Eastern Daylight Time)","27355","0","1","","","","","","","","","",""
"","","","","","","","","","","","preload","19","303856","0.0-19.0","","","","","true","","","","","","","","","","","preload","","","0","2","false","[]","[]","[]","","","","","",""
"","","","","","","","","","","","canvas-keyboard-response","20","304158","0.0-20.0","null","null","","","","","","","","","","","","","","fixation","","","0","2","","","","","","","","","",""
"","","","","","","","","","","","canvas-keyboard-response","21","304461","0.0-21.0","null","null","","","","","","","","","","","","","","stimulus","","","0","2","","","","","","","","","",""
"","","","","","","","","","","","canvas-button-response","22","305553","0.0-22.0","1090","car","","","","","","","","","","","","","","perceptual","","","0","2","","","","","12","car","1","","1",""
"","","","","","","","","","","","canvas-button-response","23","306653","0.0-23.0","1098","10","","","","","","","","","","","","","","confidence","","","0","2","","","","","","","","","","3"
"","","","","","","","","","","","html-keyboard-response","24","307655","0.0-24.0","null","null","","","","","","","","","","","","","","feedback","Thu Oct 16 2025 14:41:40 GMT-0400 (Eastern Daylight Time)","27355","0","2","","","","","","","","","",""
"","","","","","","","","","","","preload","25","307655","0.0-25.0","","","","","true","","","","","","","","","","","preload","","","0","3","false","[]","[]","[]","","","","","",""
"","","","","","","","","","","","canvas-keyboard-response","26","307958","0.0-26.0","null","null","","","","","","","","","","","","","","fixation","","","0","3","","","","","","","","","",""
"","","","","","","","","","","","canvas-keyboard-response","27","308259","0.0-27.0","null","null","","","","","","","","","","","","","","stimulus","","","0","3","","","","","","","","","",""
"","","","","","","","","","","","canvas-button-response","28","310671","0.0-28.0","2409","phone","","","","","","","","","","","","","","perceptual","","","0","3","","","","","22","phone","1","","1",""
"","","","","","","","","","","","canvas-button-response","29","311521","0.0-29.0","847","10","","","","","","","","","","","","","","confidence","","","0","3","","","","","","","","","","4"
"","","","","","","","","","","","html-keyboard-response","30","312524","0.0-30.0","null","null","","","","","","","","","","","","","","feedback","Thu Oct 16 2025 14:41:45 GMT-0400 (Eastern Daylight Time)","27355","0","3","","","","","","","","","",""
"","","","","","","","","","","","preload","31","312525","0.0-31.0","","","","","true","","","","","","","","","","","preload","","","0","4","false","[]","[]","[]","","","","","",""
"","","","","","","","","","","","canvas-keyboard-response","32","312827","0.0-32.0","null","null","","","","","","","","","","","","","","fixation","","","0","4","","","","","","","","","",""
"","","","","","","","","","","","canvas-keyboard-response","33","313129","0.0-33.0","null","null","","","","","","","","","","","","","","stimulus","","","0","4","","","","","","","","","",""
"","","","","","","","","","","","canvas-button-response","34","316890","0.0-34.0","3757","knife","","","","","","","","","","","","","","perceptual","","","0","4","","","","","92","knife","1","","1",""
"","","","","","","","","","","","canvas-button-response","35","317940","0.0-35.0","1047","9","","","","","","","","","","","","","","confidence","","","0","4","","","","","","","","","","5"
"","","","","","","","","","","","html-keyboard-response","36","318943","0.0-36.0","null","null","","","","","","","","","","","","","","feedback","Thu Oct 16 2025 14:41:51 GMT-0400 (Eastern Daylight Time)","27355","0","4","","","","","","","","","",""
"","","","","","","","","","","","preload","37","318944","0.0-37.0","","","","","true","","","","","","","","","","","preload","","","0","5","false","[]","[]","[]","","","","","",""
"","","","","","","","","","","","canvas-keyboard-response","38","319245","0.0-38.0","null","null","","","","","","","","","","","","","","fixation","","","0","5","","","","","","","","","",""
"","","","","","","","","","","","canvas-keyboard-response","39","319549","0.0-39.0","null","null","","","","","","","","","","","","","","stimulus","","","0","5","","","","","","","","","",""
"","","","","","","","","","","","canvas-button-response","40","320508","0.0-40.0","957","bridge","","","","","","","","","","","","","","perceptual","","","0","5","","","","","42","bridge","1","","1",""
"","","","","","","","","","","","canvas-button-response","41","321542","0.0-41.0","1032","10","","","","","","","","","","","","","","confidence","","","0","5","","","","","","","","","","6"
"","","","","","","","","","","","html-keyboard-response","42","322544","0.0-42.0","null","null","","","","","","","","","","","","","","feedback","Thu Oct 16 2025 14:41:55 GMT-0400 (Eastern Daylight Time)","27355","0","5","","","","","","","","","",""
"","","","","","","","","","","","preload","43","322545","0.0-43.0","","","","","true","","","","","","","","","","","preload","","","0","6","false","[]","[]","[]","","","","","",""
"","","","","","","","","","","","canvas-keyboard-response","44","322847","0.0-44.0","null","null","","","","","","","","","","","","","","fixation","","","0","6","","","","","","","","","",""
"","","","","","","","","","","","canvas-keyboard-response","45","323149","0.0-45.0","null","null","","","","","","","","","","","","","","stimulus","","","0","6","","","","","","","","","",""
"","","","","","","","","","","","canvas-button-response","46","329060","0.0-46.0","5908","house","","","","","","","","","","","","","","perceptual","","","0","6","","","","","82","elephant","1","","0",""
"","","","","","","","","","","","canvas-button-response","47","330061","0.0-47.0","998","5","","","","","","","","","","","","","","confidence","","","0","6","","","","","","","","","","6"
"","","","","","","","","","","","html-keyboard-response","48","331064","0.0-48.0","null","null","","","","","","","","","","","","","","feedback","Thu Oct 16 2025 14:42:03 GMT-0400 (Eastern Daylight Time)","27355","0","6","","","","","","","","","",""
"","","","","","","","","","","","preload","49","331065","0.0-49.0","","","","","true","","","","","","","","","","","preload","","","0","7","false","[]","[]","[]","","","","","",""
"","","","","","","","","","","","canvas-keyboard-response","50","331367","0.0-50.0","null","null","","","","","","","","","","","","","","fixation","","","0","7","","","","","","","","","",""
"","","","","","","","","","","","canvas-keyboard-response","51","331670","0.0-51.0","null","null","","","","","","","","","","","","","","stimulus","","","0","7","","","","","","","","","",""
"","","","","","","","","","","","canvas-button-response","52","332894","0.0-52.0","1222","train","","","","","","","","","","","","","","perceptual","","","0","7","","","","","62","train","1","","1",""
"","","","","","","","","","","","canvas-button-response","53","334095","0.0-53.0","1199","10","","","","","","","","","","","","","","confidence","","","0","7","","","","","","","","","","7"
"","","","","","","","","","","","html-keyboard-response","54","335098","0.0-54.0","null","null","","","","","","","","","","","","","","feedback","Thu Oct 16 2025 14:42:07 GMT-0400 (Eastern Daylight Time)","27355","0","7","","","","","","","","","",""
"","","","","","","","","","","","preload","55","335099","0.0-55.0","","","","","true","","","","","","","","","","","preload","","","0","8","false","[]","[]","[]","","","","","",""
"","","","","","","","","","","","canvas-keyboard-response","56","335401","0.0-56.0","null","null","","","","","","","","","","","","","","fixation","","","0","8","","","","","","","","","",""
"","","","","","","","","","","","canvas-keyboard-response","57","335704","0.0-57.0","null","null","","","","","","","","","","","","","","stimulus","","","0","8","","","","","","","","","",""
"","","","","","","","","","","","canvas-button-response","58","336678","0.0-58.0","972","bed","","","","","","","","","","","","","","perceptual","","","0","8","","","","","32","bed","1","","1",""
"","","","","","","","","","","","canvas-button-response","59","337861","0.0-59.0","1181","10","","","","","","","","","","","","","","confidence","","","0","8","","","","","","","","","","8"
"","","","","","","","","","","","html-keyboard-response","60","338864","0.0-60.0","null","null","","","","","","","","","","","","","","feedback","Thu Oct 16 2025 14:42:11 GMT-0400 (Eastern Daylight Time)","27355","0","8","","","","","","","","","",""
"","","","","","","","","","","","preload","61","338865","0.0-61.0","","","","","true","","","","","","","","","","","preload","","","0","9","false","[]","[]","[]","","","","","",""
"","","","","","","","","","","","canvas-keyboard-response","62","339167","0.0-62.0","null","null","","","","","","","","","","","","","","fixation","","","0","9","","","","","","","","","",""
"","","","","","","","","","","","canvas-keyboard-response","63","339468","0.0-63.0","null","null","","","","","","","","","","","","","","stimulus","","","0","9","","","","","","","","","",""
"","","","","","","","","","","","canvas-button-response","64","340728","0.0-64.0","1258","house","","","","","","","","","","","","","","perceptual","","","0","9","","","","","2","house","1","","1",""
"","","","","","","","","","","","canvas-button-response","65","341679","0.0-65.0","949","8","","","","","","","","","","","","","","confidence","","","0","9","","","","","","","","","","9"
"","","","","","","","","","","","html-keyboard-response","66","342681","0.0-66.0","null","null","","","","","","","","","","","","","","feedback","Thu Oct 16 2025 14:42:15 GMT-0400 (Eastern Daylight Time)","27355","0","9","","","","","","","","","",""
"","","","","","","","","","","","html-button-response","67","348129","0.0-67.0","5445","0","","","","","","","","","","","","","","start_practice","Thu Oct 16 2025 14:42:16 GMT-0400 (Eastern Daylight Time)","27355","0","9","","","","","","","","","",""
"","","","","","","","","","","","preload","68","348130","0.0-68.0","","","","","true","","","","","","","","","","","preload","","","1","0","false","[]","[]","[]","","","","","",""
"","","","","","","","","","","","canvas-keyboard-response","69","348433","0.0-69.0","null","null","","","","","","","","","","","","","","fixation","","","1","0","","","","","","","","","",""
"","","","","","","","","","","","canvas-keyboard-response","70","348736","0.0-70.0","null","null","","","","","","","","","","","","","","stimulus","","","1","0","","","","","","","","","",""
"","","","","","","","","","","","canvas-button-response","71","350529","0.0-71.0","1791","flower","","","","","","","","","","","","","","perceptual","","","1","0","","","","","54","flower","6","","1",""
"","","","","","","","","","","","canvas-button-response","72","351496","0.0-72.0","965","4","","","","","","","","","","","","","","confidence","","","1","0","","","","","","","","","","1"
"","","","","","","","","","","","html-keyboard-response","73","352499","0.0-73.0","null","null","","","","","","","","","","","","","","feedback","Thu Oct 16 2025 14:42:25 GMT-0400 (Eastern Daylight Time)","27355","1","0","","","","","","","","","",""
"","","","","","","","","","","","preload","74","352500","0.0-74.0","","","","","true","","","","","","","","","","","preload","","","1","1","false","[]","[]","[]","","","","","",""
"","","","","","","","","","","","canvas-keyboard-response","75","352802","0.0-75.0","null","null","","","","","","","","","","","","","","fixation","","","1","1","","","","","","","","","",""
"","","","","","","","","","","","canvas-keyboard-response","76","353105","0.0-76.0","null","null","","","","","","","","","","","","","","stimulus","","","1","1","","","","","","","","","",""
"","","","","","","","","","","","canvas-button-response","77","355112","0.0-77.0","2005","train","","","","","","","","","","","","","","perceptual","","","1","1","","","","","27","phone","10","","0",""
"","","","","","","","","","","","canvas-button-response","78","355946","0.0-78.0","832","4","","","","","","","","","","","","","","confidence","","","1","1","","","","","","","","","","1"
"","","","","","","","","","","","html-keyboard-response","79","356949","0.0-79.0","null","null","","","","","","","","","","","","","","feedback","Thu Oct 16 2025 14:42:29 GMT-0400 (Eastern Daylight Time)","27355","1","1","","","","","","","","","",""
"","","","","","","","","","","","preload","80","356949","0.0-80.0","","","","","true","","","","","","","","","","","preload","","","1","2","false","[]","[]","[]","","","","","",""
"","","","","","","","","","","","canvas-keyboard-response","81","357250","0.0-81.0","null","null","","","","","","","","","","","","","","fixation","","","1","2","","","","","","","","","",""
"","","","","","","","","","","","canvas-keyboard-response","82","357553","0.0-82.0","null","null","","","","","","","","","","","","","","stimulus","","","1","2","","","","","","","","","",""
"","","","","","","","","","","","canvas-button-response","83","360813","0.0-83.0","3257","flower","","","","","","","","","","","","","","perceptual","","","1","2","","","","","84","elephant","6","","0",""
"","","","","","","","","","","","canvas-button-response","84","361678","0.0-84.0","864","3","","","","","","","","","","","","","","confidence","","","1","2","","","","","","","","","","1"
"","","","","","","","","","","","html-keyboard-response","85","362680","0.0-85.0","null","null","","","","","","","","","","","","","","feedback","Thu Oct 16 2025 14:42:35 GMT-0400 (Eastern Daylight Time)","27355","1","2","","","","","","","","","",""
"","","","","","","","","","","","preload","86","362681","0.0-86.0","","","","","true","","","","","","","","","","","preload","","","1","3","false","[]","[]","[]","","","","","",""
"","","","","","","","","","","","canvas-keyboard-response","87","362983","0.0-87.0","null","null","","","","","","","","","","","","","","fixation","","","1","3","","","","","","","","","",""
"","","","","","","","","","","","canvas-keyboard-response","88","363286","0.0-88.0","null","null","","","","","","","","","","","","","","stimulus","","","1","3","","","","","","","","","",""
"","","","","","","","","","","","canvas-button-response","89","368047","0.0-89.0","4758","house","","","","","","","","","","","","","","perceptual","","","1","3","","","","","7","house","10","","1",""
"","","","","","","","","","","","canvas-button-response","90","369013","0.0-90.0","965","3","","","","","","","","","","","","","","confidence","","","1","3","","","","","","","","","","2"
"","","","","","","","","","","","html-keyboard-response","91","370015","0.0-91.0","null","null","","","","","","","","","","","","","","feedback","Thu Oct 16 2025 14:42:42 GMT-0400 (Eastern Daylight Time)","27355","1","3","","","","","","","","","",""
"","","","","","","","","","","","preload","92","370016","0.0-92.0","","","","","true","","","","","","","","","","","preload","","","1","4","false","[]","[]","[]","","","","","",""
"","","","","","","","","","","","canvas-keyboard-response","93","370317","0.0-93.0","null","null","","","","","","","","","","","","","","fixation","","","1","4","","","","","","","","","",""
"","","","","","","","","","","","canvas-keyboard-response","94","370620","0.0-94.0","null","null","","","","","","","","","","","","","","stimulus","","","1","4","","","","","","","","","",""
"","","","","","","","","","","","canvas-button-response","95","378946","0.0-95.0","8324","train","","","","","","","","","","","","","","perceptual","","","1","4","","","","","44","bridge","6","","0",""
"","","","","","","","","","","","canvas-button-response","96","380613","0.0-96.0","1665","0","","","","","","","","","","","","","","confidence","","","1","4","","","","","","","","","","2"
"","","","","","","","","","","","html-keyboard-response","97","381616","0.0-97.0","null","null","","","","","","","","","","","","","","feedback","Thu Oct 16 2025 14:42:54 GMT-0400 (Eastern Daylight Time)","27355","1","4","","","","","","","","","",""
"","","","","","","","","","","","preload","98","381617","0.0-98.0","","","","","true","","","","","","","","","","","preload","","","1","5","false","[]","[]","[]","","","","","",""
"","","","","","","","","","","","canvas-keyboard-response","99","381920","0.0-99.0","null","null","","","","","","","","","","","","","","fixation","","","1","5","","","","","","","","","",""
"","","","","","","","","","","","canvas-keyboard-response","100","382223","0.0-100.0","null","null","","","","","","","","","","","","","","stimulus","","","1","5","","","","","","","","","",""
"","","","","","","","","","","","canvas-button-response","101","388014","0.0-101.0","5789","knife","","","","","","","","","","","","","","perceptual","","","1","5","","","","","94","knife","6","","1",""
"","","","","","","","","","","","canvas-button-response","102","389030","0.0-102.0","1014","1","","","","","","","","","","","","","","confidence","","","1","5","","","","","","","","","","3"
"","","","","","","","","","","","html-keyboard-response","103","390032","0.0-103.0","null","null","","","","","","","","","","","","","","feedback","Thu Oct 16 2025 14:43:02 GMT-0400 (Eastern Daylight Time)","27355","1","5","","","","","","","","","",""
"","","","","","","","","","","","preload","104","390033","0.0-104.0","","","","","true","","","","","","","","","","","preload","","","1","6","false","[]","[]","[]","","","","","",""
"","","","","","","","","","","","canvas-keyboard-response","105","390335","0.0-105.0","null","null","","","","","","","","","","","","","","fixation","","","1","6","","","","","","","","","",""
"","","","","","","","","","","","canvas-keyboard-response","106","390638","0.0-106.0","null","null","","","","","","","","","","","","","","stimulus","","","1","6","","","","","","","","","",""
"","","","","","","","","","","","canvas-button-response","107","391913","0.0-107.0","1272","flower","","","","","","","","","","","","","","perceptual","","","1","6","","","","","57","flower","10","","1",""
"","","","","","","","","","","","canvas-button-response","108","392997","0.0-108.0","1082","4","","","","","","","","","","","","","","confidence","","","1","6","","","","","","","","","","4"
"","","","","","","","","","","","html-keyboard-response","109","394000","0.0-109.0","null","null","","","","","","","","","","","","","","feedback","Thu Oct 16 2025 14:43:06 GMT-0400 (Eastern Daylight Time)","27355","1","6","","","","","","","","","",""
"","","","","","","","","","","","preload","110","394001","0.0-110.0","","","","","true","","","","","","","","","","","preload","","","1","7","false","[]","[]","[]","","","","","",""
"","","","","","","","","","","","canvas-keyboard-response","111","394304","0.0-111.0","null","null","","","","","","","","","","","","","","fixation","","","1","7","","","","","","","","","",""
"","","","","","","","","","","","canvas-keyboard-response","112","394606","0.0-112.0","null","null","","","","","","","","","","","","","","stimulus","","","1","7","","","","","","","","","",""
"","","","","","","","","","","","canvas-button-response","113","396097","0.0-113.0","1488","phone","","","","","","","","","","","","","","perceptual","","","1","7","","","","","24","phone","6","","1",""
"","","","","","","","","","","","canvas-button-response","114","396780","0.0-114.0","681","2","","","","","","","","","","","","","","confidence","","","1","7","","","","","","","","","","5"
"","","","","","","","","","","","html-keyboard-response","115","397782","0.0-115.0","null","null","","","","","","","","","","","","","","feedback","Thu Oct 16 2025 14:43:10 GMT-0400 (Eastern Daylight Time)","27355","1","7","","","","","","","","","",""
"","","","","","","","","","","","preload","116","397783","0.0-116.0","","","","","true","","","","","","","","","","","preload","","","1","8","false","[]","[]","[]","","","","","",""
"","","","","","","","","","","","canvas-keyboard-response","117","398086","0.0-117.0","null","null","","","","","","","","","","","","","","fixation","","","1","8","","","","","","","","","",""
"","","","","","","","","","","","canvas-keyboard-response","118","398389","0.0-118.0","null","null","","","","","","","","","","","","","","stimulus","","","1","8","","","","","","","","","",""
"","","","","","","","","","","","canvas-button-response","119","399446","0.0-119.0","1055","train","","","","","","","","","","","","","","perceptual","","","1","8","","","","","67","train","10","","1",""
"","","","","","","","","","","","canvas-button-response","120","400430","0.0-120.0","982","5","","","","","","","","","","","","","","confidence","","","1","8","","","","","","","","","","6"
"","","","","","","","","","","","html-keyboard-response","121","401432","0.0-121.0","null","null","","","","","","","","","","","","","","feedback","Thu Oct 16 2025 14:43:13 GMT-0400 (Eastern Daylight Time)","27355","1","8","","","","","","","","","",""
"","","","","","","","","","","","preload","122","401433","0.0-122.0","","","","","true","","","","","","","","","","","preload","","","1","9","false","[]","[]","[]","","","","","",""
"","","","","","","","","","","","canvas-keyboard-response","123","401736","0.0-123.0","null","null","","","","","","","","","","","","","","fixation","","","1","9","","","","","","","","","",""
"","","","","","","","","","","","canvas-keyboard-response","124","402039","0.0-124.0","null","null","","","","","","","","","","","","","","stimulus","","","1","9","","","","","","","","","",""
"","","","","","","","","","","","canvas-button-response","125","403346","0.0-125.0","1305","knife","","","","","","","","","","","","","","perceptual","","","1","9","","","","","97","knife","10","","1",""
"","","","","","","","","","","","canvas-button-response","126","404246","0.0-126.0","898","8","","","","","","","","","","","","","","confidence","","","1","9","","","","","","","","","","7"
"","","","","","","","","","","","html-keyboard-response","127","405250","0.0-127.0","null","null","","","","","","","","","","","","","","feedback","Thu Oct 16 2025 14:43:17 GMT-0400 (Eastern Daylight Time)","27355","1","9","","","","","","","","","",""
"","","","","","","","","","","","preload","128","405251","0.0-128.0","","","","","true","","","","","","","","","","","preload","","","1","10","false","[]","[]","[]","","","","","",""
"","","","","","","","","","","","canvas-keyboard-response","129","405553","0.0-129.0","null","null","","","","","","","","","","","","","","fixation","","","1","10","","","","","","","","","",""
"","","","","","","","","","","","canvas-keyboard-response","130","405856","0.0-130.0","null","null","","","","","","","","","","","","","","stimulus","","","1","10","","","","","","","","","",""
"","","","","","","","","","","","canvas-button-response","131","407030","0.0-131.0","1172","bed","","","","","","","","","","","","","","perceptual","","","1","10","","","","","34","bed","6","","1",""
"","","","","","","","","","","","canvas-button-response","132","408380","0.0-132.0","1347","9","","","","","","","","","","","","","","confidence","","","1","10","","","","","","","","","","8"
"","","","","","","","","","","","html-keyboard-response","133","409382","0.0-133.0","null","null","","","","","","","","","","","","","","feedback","Thu Oct 16 2025 14:43:21 GMT-0400 (Eastern Daylight Time)","27355","1","10","","","","","","","","","",""
"","","","","","","","","","","","preload","134","409383","0.0-134.0","","","","","true","","","","","","","","","","","preload","","","1","11","false","[]","[]","[]","","","","","",""
"","","","","","","","","","","","canvas-keyboard-response","135","409685","0.0-135.0","null","null","","","","","","","","","","","","","","fixation","","","1","11","","","","","","","","","",""
"","","","","","","","","","","","canvas-keyboard-response","136","409988","0.0-136.0","null","null","","","","","","","","","","","","","","stimulus","","","1","11","","","","","","","","","",""
"","","","","","","","","","","","canvas-button-response","137","412080","0.0-137.0","2090","bridge","","","","","","","","","","","","","","perceptual","","","1","11","","","","","37","bed","10","","0",""
"","","","","","","","","","","","canvas-button-response","138","412663","0.0-138.0","581","3","","","","","","","","","","","","","","confidence","","","1","11","","","","","","","","","","8"
"","","","","","","","","","","","html-keyboard-response","139","413665","0.0-139.0","null","null","","","","","","","","","","","","","","feedback","Thu Oct 16 2025 14:43:26 GMT-0400 (Eastern Daylight Time)","27355","1","11","","","","","","","","","",""
"","","","","","","","","","","","preload","140","413666","0.0-140.0","","","","","true","","","","","","","","","","","preload","","","1","12","false","[]","[]","[]","","","","","",""
"","","","","","","","","","","","canvas-keyboard-response","141","413969","0.0-141.0","null","null","","","","","","","","","","","","","","fixation","","","1","12","","","","","","","","","",""
"","","","","","","","","","","","canvas-keyboard-response","142","414272","0.0-142.0","null","null","","","","","","","","","","","","","","stimulus","","","1","12","","","","","","","","","",""
"","","","","","","","","","","","canvas-button-response","143","415896","0.0-143.0","1623","flower","","","","","","","","","","","","","","perceptual","","","1","12","","","","","87","elephant","10","","0",""
"","","","","","","","","","","","canvas-button-response","144","418797","0.0-144.0","2898","0","","","","","","","","","","","","","","confidence","","","1","12","","","","","","","","","","8"
"","","","","","","","","","","","html-keyboard-response","145","419799","0.0-145.0","null","null","","","","","","","","","","","","","","feedback","Thu Oct 16 2025 14:43:32 GMT-0400 (Eastern Daylight Time)","27355","1","12","","","","","","","","","",""
"","","","","","","","","","","","preload","146","419800","0.0-146.0","","","","","true","","","","","","","","","","","preload","","","1","13","false","[]","[]","[]","","","","","",""
"","","","","","","","","","","","canvas-keyboard-response","147","420103","0.0-147.0","null","null","","","","","","","","","","","","","","fixation","","","1","13","","","","","","","","","",""
"","","","","","","","","","","","canvas-keyboard-response","148","420406","0.0-148.0","null","null","","","","","","","","","","","","","","stimulus","","","1","13","","","","","","","","","",""
"","","","","","","","","","","","canvas-button-response","149","422549","0.0-149.0","2141","knife","","","","","","","","","","","","","","perceptual","","","1","13","","","","","17","car","10","","0",""
"","","","","","","","","","","","canvas-button-response","150","423813","0.0-150.0","1263","0","","","","","","","","","","","","","","confidence","","","1","13","","","","","","","","","","8"
"","","","","","","","","","","","html-keyboard-response","151","424817","0.0-151.0","null","null","","","","","","","","","","","","","","feedback","Thu Oct 16 2025 14:43:37 GMT-0400 (Eastern Daylight Time)","27355","1","13","","","","","","","","","",""
"","","","","","","","","","","","preload","152","424818","0.0-152.0","","","","","true","","","","","","","","","","","preload","","","1","14","false","[]","[]","[]","","","","","",""
"","","","","","","","","","","","canvas-keyboard-response","153","425119","0.0-153.0","null","null","","","","","","","","","","","","","","fixation","","","1","14","","","","","","","","","",""
"","","","","","","","","","","","canvas-keyboard-response","154","425421","0.0-154.0","null","null","","","","","","","","","","","","","","stimulus","","","1","14","","","","","","","","","",""
"","","","","","","","","","","","canvas-button-response","155","427295","0.0-155.0","1873","house","","","","","","","","","","","","","","perceptual","","","1","14","","","","","4","house","6","","1",""
"","","","","","","","","","","","canvas-button-response","156","428380","0.0-156.0","1084","10","","","","","","","","","","","","","","confidence","","","1","14","","","","","","","","","","9"
"","","","","","","","","","","","html-keyboard-response","157","429383","0.0-157.0","null","null","","","","","","","","","","","","","","feedback","Thu Oct 16 2025 14:43:41 GMT-0400 (Eastern Daylight Time)","27355","1","14","","","","","","","","","",""
"","","","","","","","","","","","preload","158","429384","0.0-158.0","","","","","true","","","","","","","","","","","preload","","","1","15","false","[]","[]","[]","","","","","",""
"","","","","","","","","","","","canvas-keyboard-response","159","429686","0.0-159.0","null","null","","","","","","","","","","","","","","fixation","","","1","15","","","","","","","","","",""
"","","","","","","","","","","","canvas-keyboard-response","160","429989","0.0-160.0","null","null","","","","","","","","","","","","","","stimulus","","","1","15","","","","","","","","","",""
"","","","","","","","","","","","canvas-button-response","161","431680","0.0-161.0","1689","bed","","","","","","","","","","","","","","perceptual","","","1","15","","","","","77","cat","10","","0",""
"","","","","","","","","","","","canvas-button-response","162","432446","0.0-162.0","765","0","","","","","","","","","","","","","","confidence","","","1","15","","","","","","","","","","9"
"","","","","","","","","","","","html-keyboard-response","163","433449","0.0-163.0","null","null","","","","","","","","","","","","","","feedback","Thu Oct 16 2025 14:43:45 GMT-0400 (Eastern Daylight Time)","27355","1","15","","","","","","","","","",""
"","","","","","","","","","","","preload","164","433450","0.0-164.0","","","","","true","","","","","","","","","","","preload","","","1","16","false","[]","[]","[]","","","","","",""
"","","","","","","","","","","","canvas-keyboard-response","165","433752","0.0-165.0","null","null","","","","","","","","","","","","","","fixation","","","1","16","","","","","","","","","",""
"","","","","","","","","","","","canvas-keyboard-response","166","434055","0.0-166.0","null","null","","","","","","","","","","","","","","stimulus","","","1","16","","","","","","","","","",""
"","","","","","","","","","","","canvas-button-response","167","435430","0.0-167.0","1373","train","","","","","","","","","","","","","","perceptual","","","1","16","","","","","47","bridge","10","","0",""
"","","","","","","","","","","","canvas-button-response","168","436963","0.0-168.0","1531","1","","","","","","","","","","","","","","confidence","","","1","16","","","","","","","","","","9"
"","","","","","","","","","","","html-keyboard-response","169","437966","0.0-169.0","null","null","","","","","","","","","","","","","","feedback","Thu Oct 16 2025 14:43:50 GMT-0400 (Eastern Daylight Time)","27355","1","16","","","","","","","","","",""
"","","","","","","","","","","","preload","170","437967","0.0-170.0","","","","","true","","","","","","","","","","","preload","","","1","17","false","[]","[]","[]","","","","","",""
"","","","","","","","","","","","canvas-keyboard-response","171","438270","0.0-171.0","null","null","","","","","","","","","","","","","","fixation","","","1","17","","","","","","","","","",""
"","","","","","","","","","","","canvas-keyboard-response","172","438572","0.0-172.0","null","null","","","","","","","","","","","","","","stimulus","","","1","17","","","","","","","","","",""
"","","","","","","","","","","","canvas-button-response","173","440213","0.0-173.0","1638","house","","","","","","","","","","","","","","perceptual","","","1","17","","","","","74","cat","6","","0",""
"","","","","","","","","","","","canvas-button-response","174","440862","0.0-174.0","647","0","","","","","","","","","","","","","","confidence","","","1","17","","","","","","","","","","9"
"","","","","","","","","","","","html-keyboard-response","175","441865","0.0-175.0","null","null","","","","","","","","","","","","","","feedback","Thu Oct 16 2025 14:43:54 GMT-0400 (Eastern Daylight Time)","27355","1","17","","","","","","","","","",""
"","","","","","","","","","","","preload","176","441866","0.0-176.0","","","","","true","","","","","","","","","","","preload","","","1","18","false","[]","[]","[]","","","","","",""
"","","","","","","","","","","","canvas-keyboard-response","177","442168","0.0-177.0","null","null","","","","","","","","","","","","","","fixation","","","1","18","","","","","","","","","",""
"","","","","","","","","","","","canvas-keyboard-response","178","442471","0.0-178.0","null","null","","","","","","","","","","","","","","stimulus","","","1","18","","","","","","","","","",""
"","","","","","","","","","","","canvas-button-response","179","446147","0.0-179.0","3673","car","","","","","","","","","","","","","","perceptual","","","1","18","","","","","14","car","6","","1",""
"","","","","","","","","","","","canvas-button-response","180","446980","0.0-180.0","831","0","","","","","","","","","","","","","","confidence","","","1","18","","","","","","","","","","10"
"","","","","","","","","","","","html-keyboard-response","181","447983","0.0-181.0","null","null","","","","","","","","","","","","","","feedback","Thu Oct 16 2025 14:44:00 GMT-0400 (Eastern Daylight Time)","27355","1","18","","","","","","","","","",""
"","","","","","","","","","","","preload","182","447984","0.0-182.0","","","","","true","","","","","","","","","","","preload","","","1","19","false","[]","[]","[]","","","","","",""
"","","","","","","","","","","","canvas-keyboard-response","183","448286","0.0-183.0","null","null","","","","","","","","","","","","","","fixation","","","1","19","","","","","","","","","",""
"","","","","","","","","","","","canvas-keyboard-response","184","448589","0.0-184.0","null","null","","","","","","","","","","","","","","stimulus","","","1","19","","","","","","","","","",""
"","","","","","","","","","","","canvas-button-response","185","449663","0.0-185.0","1072","train","","","","","","","","","","","","","","perceptual","","","1","19","","","","","64","train","6","","1",""
"","","","","","","","","","","","canvas-button-response","186","450347","0.0-186.0","681","8","","","","","","","","","","","","","","confidence","","","1","19","","","","","","","","","","11"
"","","","","","","","","","","","html-keyboard-response","187","451349","0.0-187.0","null","null","","","","","","","","","","","","","","feedback","Thu Oct 16 2025 14:44:03 GMT-0400 (Eastern Daylight Time)","27355","1","19","","","","","","","","","",""
"","","","","","","","","","","","html-button-response","188","456080","0.0-188.0","4729","0","","","","","","","","","","","","","","start experiment","Thu Oct 16 2025 14:44:04 GMT-0400 (Eastern Daylight Time)","27355","1","19","","","","","","","","","",""
"","","","","","","","","","","","preload","189","456081","0.0-189.0","","","","","true","","","","","","","","","","","preload","","","2","0","false","[]","[]","[]","","","","","",""
"","","","","","","","","","","","canvas-keyboard-response","190","456384","0.0-190.0","null","null","","","","","","","","","","","","","","fixation","","","2","0","","","","","","","","","",""
"","","","","","","","","","","","canvas-keyboard-response","191","456686","0.0-191.0","null","null","","","","","","","","","","","","","","stimulus","","","2","0","","","","","","","","","",""
"","","","","","","","","","","","canvas-button-response","192","458163","0.0-192.0","1475","house","","","","","","","","","","","","","","perceptual","","","2","0","","","","","119","phone","10","0","0",""
"","","","","","","","","","","","canvas-button-response","193","459279","0.0-193.0","1114","0","","","","","","","","","","","","","","confidence","","","2","0","","","","","","","","","","0"
"","","","","","","","","","","","preload","194","459279","0.0-194.0","","","","","true","","","","","","","","","","","preload","","","2","1","false","[]","[]","[]","","","","","",""
"","","","","","","","","","","","canvas-keyboard-response","195","459582","0.0-195.0","null","null","","","","","","","","","","","","","","fixation","","","2","1","","","","","","","","","",""
"","","","","","","","","","","","canvas-keyboard-response","196","459884","0.0-196.0","null","null","","","","","","","","","","","","","","stimulus","","","2","1","","","","","","","","","",""
"","","","","","","","","","","","canvas-button-response","197","461712","0.0-197.0","1827","car","","","","","","","","","","","","","","perceptual","","","2","1","","","","","291","cat","6","0","0",""
"","","","","","","","","","","","canvas-button-response","198","462435","0.0-198.0","721","0","","","","","","","","","","","","","","confidence","","","2","1","","","","","","","","","","0"
"","","","","","","","","","","","preload","199","462435","0.0-199.0","","","","","true","","","","","","","","","","","preload","","","2","2","false","[]","[]","[]","","","","","",""
"","","","","","","","","","","","canvas-keyboard-response","200","462738","0.0-200.0","null","null","","","","","","","","","","","","","","fixation","","","2","2","","","","","","","","","",""
"","","","","","","","","","","","canvas-keyboard-response","201","463041","0.0-201.0","null","null","","","","","","","","","","","","","","stimulus","","","2","2","","","","","","","","","",""
"","","","","","","","","","","","canvas-button-response","202","464329","0.0-202.0","1286","knife","","","","","","","","","","","","","","perceptual","","","2","2","","","","","87","phone","6","0","0",""
"","","","","","","","","","","","canvas-button-response","203","465913","0.0-203.0","1583","3","","","","","","","","","","","","","","confidence","","","2","2","","","","","","","","","","0"
"","","","","","","","","","","","preload","204","465914","0.0-204.0","","","","","true","","","","","","","","","","","preload","","","2","3","false","[]","[]","[]","","","","","",""
"","","","","","","","","","","","canvas-keyboard-response","205","466216","0.0-205.0","null","null","","","","","","","","","","","","","","fixation","","","2","3","","","","","","","","","",""
"","","","","","","","","","","","canvas-keyboard-response","206","466519","0.0-206.0","null","null","","","","","","","","","","","","","","stimulus","","","2","3","","","","","","","","","",""
"","","","","","","","","","","","canvas-button-response","207","467561","0.0-207.0","1041","flower","","","","","","","","","","","","","","perceptual","","","2","3","","","","","202","flower","6","0","1",""
"","","","","","","","","","","","canvas-button-response","208","468713","0.0-208.0","1151","8","","","","","","","","","","","","","","confidence","","","2","3","","","","","","","","","","1"
"","","","","","","","","","","","preload","209","468714","0.0-209.0","","","","","true","","","","","","","","","","","preload","","","2","4","false","[]","[]","[]","","","","","",""
"","","","","","","","","","","","canvas-keyboard-response","210","469016","0.0-210.0","null","null","","","","","","","","","","","","","","fixation","","","2","4","","","","","","","","","",""
"","","","","","","","","","","","canvas-keyboard-response","211","469318","0.0-211.0","null","null","","","","","","","","","","","","","","stimulus","","","2","4","","","","","","","","","",""
"","","","","","","","","","","","canvas-button-response","212","470646","0.0-212.0","1326","cat","","","","","","","","","","","","","","perceptual","","","2","4","","","","","346","elephant","10","0","0",""
"","","","","","","","","","","","canvas-button-response","213","471680","0.0-213.0","1031","2","","","","","","","","","","","","","","confidence","","","2","4","","","","","","","","","","1"
"","","","","","","","","","","","preload","214","471681","0.0-214.0","","","","","true","","","","","","","","","","","preload","","","2","5","false","[]","[]","[]","","","","","",""
"","","","","","","","","","","","canvas-keyboard-response","215","471984","0.0-215.0","null","null","","","","","","","","","","","","","","fixation","","","2","5","","","","","","","","","",""
"","","","","","","","","","","","canvas-keyboard-response","216","472287","0.0-216.0","null","null","","","","","","","","","","","","","","stimulus","","","2","5","","","","","","","","","",""
"","","","","","","","","","","","canvas-button-response","217","473312","0.0-217.0","1024","bridge","","","","","","","","","","","","","","perceptual","","","2","5","","","","","169","bridge","6","0","1",""
"","","","","","","","","","","","canvas-button-response","218","474280","0.0-218.0","966","9","","","","","","","","","","","","","","confidence","","","2","5","","","","","","","","","","2"
"","","","","","","","","","","","preload","219","474281","0.0-219.0","","","","","true","","","","","","","","","","","preload","","","2","6","false","[]","[]","[]","","","","","",""
"","","","","","","","","","","","canvas-keyboard-response","220","474583","0.0-220.0","null","null","","","","","","","","","","","","","","fixation","","","2","6","","","","","","","","","",""
"","","","","","","","","","","","canvas-keyboard-response","221","474885","0.0-221.0","null","null","","","","","","","","","","","","","","stimulus","","","2","6","","","","","","","","","",""
"","","","","","","","","","","","canvas-button-response","222","476480","0.0-222.0","1592","flower","","","","","","","","","","","","","","perceptual","","","2","6","","","","","239","flower","10","0","1",""
"","","","","","","","","","","","canvas-button-response","223","477964","0.0-223.0","1482","5","","","","","","","","","","","","","","confidence","","","2","6","","","","","","","","","","3"
"","","","","","","","","","","","preload","224","477965","0.0-224.0","","","","","true","","","","","","","","","","","preload","","","2","7","false","[]","[]","[]","","","","","",""
"","","","","","","","","","","","canvas-keyboard-response","225","478267","0.0-225.0","null","null","","","","","","","","","","","","","","fixation","","","2","7","","","","","","","","","",""
"","","","","","","","","","","","canvas-keyboard-response","226","478570","0.0-226.0","null","null","","","","","","","","","","","","","","stimulus","","","2","7","","","","","","","","","",""
"","","","","","","","","","","","canvas-button-response","227","480547","0.0-227.0","1975","cat","","","","","","","","","","","","","","perceptual","","","2","7","","","","","108","phone","10","0","0",""
"","","","","","","","","","","","canvas-button-response","228","481346","0.0-228.0","798","0","","","","","","","","","","","","","","confidence","","","2","7","","","","","","","","","","3"
"","","","","","","","","","","","preload","229","481347","0.0-229.0","","","","","true","","","","","","","","","","","preload","","","2","8","false","[]","[]","[]","","","","","",""
"","","","","","","","","","","","canvas-keyboard-response","230","481649","0.0-230.0","null","null","","","","","","","","","","","","","","fixation","","","2","8","","","","","","","","","",""
"","","","","","","","","","","","canvas-keyboard-response","231","481952","0.0-231.0","null","null","","","","","","","","","","","","","","stimulus","","","2","8","","","","","","","","","",""
"","","","","","","","","","","","canvas-button-response","232","483446","0.0-232.0","1493","house","","","","","","","","","","","","","","perceptual","","","2","8","","","","","16","house","6","0","1",""
"","","","","","","","","","","","canvas-button-response","233","484597","0.0-233.0","1148","8","","","","","","","","","","","","","","confidence","","","2","8","","","","","","","","","","4"
"","","","","","","","","","","","preload","234","484598","0.0-234.0","","","","","true","","","","","","","","","","","preload","","","2","9","false","[]","[]","[]","","","","","",""
"","","","","","","","","","","","canvas-keyboard-response","235","484900","0.0-235.0","null","null","","","","","","","","","","","","","","fixation","","","2","9","","","","","","","","","",""
"","","","","","","","","","","","canvas-keyboard-response","236","485203","0.0-236.0","null","null","","","","","","","","","","","","","","stimulus","","","2","9","","","","","","","","","",""
"","","","","","","","","","","","canvas-button-response","237","487296","0.0-237.0","2091","train","","","","","","","","","","","","","","perceptual","","","2","9","","","","","69","car","10","0","0",""
"","","","","","","","","","","","canvas-button-response","238","488363","0.0-238.0","1065","4","","","","","","","","","","","","","","confidence","","","2","9","","","","","","","","","","4"
"","","","","","","","","","","","preload","239","488364","0.0-239.0","","","","","true","","","","","","","","","","","preload","","","2","10","false","[]","[]","[]","","","","","",""
"","","","","","","","","","","","canvas-keyboard-response","240","488666","0.0-240.0","null","null","","","","","","","","","","","","","","fixation","","","2","10","","","","","","","","","",""
"","","","","","","","","","","","canvas-keyboard-response","241","488968","0.0-241.0","null","null","","","","","","","","","","","","","","stimulus","","","2","10","","","","","","","","","",""
"","","","","","","","","","","","canvas-button-response","242","490196","0.0-242.0","1226","train","","","","","","","","","","","","","","perceptual","","","2","10","","","","","259","train","6","0","1",""
"","","","","","","","","","","","canvas-button-response","243","490863","0.0-243.0","665","4","","","","","","","","","","","","","","confidence","","","2","10","","","","","","","","","","5"
"","","","","","","","","","","","preload","244","490864","0.0-244.0","","","","","true","","","","","","","","","","","preload","","","2","11","false","[]","[]","[]","","","","","",""
"","","","","","","","","","","","canvas-keyboard-response","245","491167","0.0-245.0","null","null","","","","","","","","","","","","","","fixation","","","2","11","","","","","","","","","",""
"","","","","","","","","","","","canvas-keyboard-response","246","491469","0.0-246.0","null","null","","","","","","","","","","","","","","stimulus","","","2","11","","","","","","","","","",""
"","","","","","","","","","","","canvas-button-response","247","492696","0.0-247.0","1225","phone","","","","","","","","","","","","","","perceptual","","","2","11","","","","","95","phone","6","0","1",""
"","","","","","","","","","","","canvas-button-response","248","493697","0.0-248.0","998","9","","","","","","","","","","","","","","confidence","","","2","11","","","","","","","","","","6"
"","","","","","","","","","","","preload","249","493697","0.0-249.0","","","","","true","","","","","","","","","","","preload","","","2","12","false","[]","[]","[]","","","","","",""
"","","","","","","","","","","","canvas-keyboard-response","250","494000","0.0-250.0","null","null","","","","","","","","","","","","","","fixation","","","2","12","","","","","","","","","",""
"","","","","","","","","","","","canvas-keyboard-response","251","494302","0.0-251.0","null","null","","","","","","","","","","","","","","stimulus","","","2","12","","","","","","","","","",""
"","","","","","","","","","","","canvas-button-response","252","498897","0.0-252.0","4592","house","","","","","","","","","","","","","","perceptual","","","2","12","","","","","348","elephant","10","0","0",""
"","","","","","","","","","","","canvas-button-response","253","500063","0.0-253.0","1164","3","","","","","","","","","","","","","","confidence","","","2","12","","","","","","","","","","6"
"","","","","","","","","","","","preload","254","500064","0.0-254.0","","","","","true","","","","","","","","","","","preload","","","2","13","false","[]","[]","[]","","","","","",""
"","","","","","","","","","","","canvas-keyboard-response","255","500366","0.0-255.0","null","null","","","","","","","","","","","","","","fixation","","","2","13","","","","","","","","","",""
"","","","","","","","","","","","canvas-keyboard-response","256","500669","0.0-256.0","null","null","","","","","","","","","","","","","","stimulus","","","2","13","","","","","","","","","",""
"","","","","","","","","","","","canvas-button-response","257","502196","0.0-257.0","1525","car","","","","","","","","","","","","","","perceptual","","","2","13","","","","","79","car","10","0","1",""
"","","","","","","","","","","","canvas-button-response","258","503163","0.0-258.0","965","2","","","","","","","","","","","","","","confidence","","","2","13","","","","","","","","","","7"
"","","","","","","","","","","","preload","259","503164","0.0-259.0","","","","","true","","","","","","","","","","","preload","","","2","14","false","[]","[]","[]","","","","","",""
"","","","","","","","","","","","canvas-keyboard-response","260","503467","0.0-260.0","null","null","","","","","","","","","","","","","","fixation","","","2","14","","","","","","","","","",""
"","","","","","","","","","","","canvas-keyboard-response","261","503769","0.0-261.0","null","null","","","","","","","","","","","","","","stimulus","","","2","14","","","","","","","","","",""
"","","","","","","","","","","","canvas-button-response","262","505364","0.0-262.0","1593","cat","","","","","","","","","","","","","","perceptual","","","2","14","","","","","347","elephant","10","0","0",""
"","","","","","","","","","","","canvas-button-response","263","506213","0.0-263.0","847","0","","","","","","","","","","","","","","confidence","","","2","14","","","","","","","","","","7"
"","","","","","","","","","","","preload","264","506214","0.0-264.0","","","","","true","","","","","","","","","","","preload","","","2","15","false","[]","[]","[]","","","","","",""
"","","","","","","","","","","","canvas-keyboard-response","265","506517","0.0-265.0","null","null","","","","","","","","","","","","","","fixation","","","2","15","","","","","","","","","",""
"","","","","","","","","","","","canvas-keyboard-response","266","506819","0.0-266.0","null","null","","","","","","","","","","","","","","stimulus","","","2","15","","","","","","","","","",""
"","","","","","","","","","","","canvas-button-response","267","509363","0.0-267.0","2542","house","","","","","","","","","","","","","","perceptual","","","2","15","","","","","4","house","6","0","1",""
"","","","","","","","","","","","canvas-button-response","268","510146","0.0-268.0","781","2","","","","","","","","","","","","","","confidence","","","2","15","","","","","","","","","","8"
"","","","","","","","","","","","preload","269","510147","0.0-269.0","","","","","true","","","","","","","","","","","preload","","","2","16","false","[]","[]","[]","","","","","",""
"","","","","","","","","","","","canvas-keyboard-response","270","510450","0.0-270.0","null","null","","","","","","","","","","","","","","fixation","","","2","16","","","","","","","","","",""
"","","","","","","","","","","","canvas-keyboard-response","271","510753","0.0-271.0","null","null","","","","","","","","","","","","","","stimulus","","","2","16","","","","","","","","","",""
"","","","","","","","","","","","canvas-button-response","272","515330","0.0-272.0","4575","house","","","","","","","","","","","","","","perceptual","","","2","16","","","","","398","knife","10","0","0",""
"","","","","","","","","","","","canvas-button-response","273","516346","0.0-273.0","1015","0","","","","","","","","","","","","","","confidence","","","2","16","","","","","","","","","","8"
"","","","","","","","","","","","preload","274","516347","0.0-274.0","","","","","true","","","","","","","","","","","preload","","","2","17","false","[]","[]","[]","","","","","",""
"","","","","","","","","","","","canvas-keyboard-response","275","516650","0.0-275.0","null","null","","","","","","","","","","","","","","fixation","","","2","17","","","","","","","","","",""
"","","","","","","","","","","","canvas-keyboard-response","276","516952","0.0-276.0","null","null","","","","","","","","","","","","","","stimulus","","","2","17","","","","","","","","","",""
"","","","","","","","","","","","canvas-button-response","277","518713","0.0-277.0","1759","flower","","","","","","","","","","","","","","perceptual","","","2","17","","","","","334","elephant","6","0","0",""
"","","","","","","","","","","","canvas-button-response","278","519396","0.0-278.0","682","0","","","","","","","","","","","","","","confidence","","","2","17","","","","","","","","","","8"
"","","","","","","","","","","","preload","279","519397","0.0-279.0","","","","","true","","","","","","","","","","","preload","","","2","18","false","[]","[]","[]","","","","","",""
"","","","","","","","","","","","canvas-keyboard-response","280","519699","0.0-280.0","null","null","","","","","","","","","","","","","","fixation","","","2","18","","","","","","","","","",""
"","","","","","","","","","","","canvas-keyboard-response","281","520002","0.0-281.0","null","null","","","","","","","","","","","","","","stimulus","","","2","18","","","","","","","","","",""
"","","","","","","","","","","","canvas-button-response","282","521046","0.0-282.0","1042","bridge","","","","","","","","","","","","","","perceptual","","","2","18","","","","","163","bridge","6","0","1",""
"","","","","","","","","","","","canvas-button-response","283","522730","0.0-283.0","1683","7","","","","","","","","","","","","","","confidence","","","2","18","","","","","","","","","","9"
"","","","","","","","","","","","preload","284","522731","0.0-284.0","","","","","true","","","","","","","","","","","preload","","","2","19","false","[]","[]","[]","","","","","",""
"","","","","","","","","","","","canvas-keyboard-response","285","523032","0.0-285.0","null","null","","","","","","","","","","","","","","fixation","","","2","19","","","","","","","","","",""
"","","","","","","","","","","","canvas-keyboard-response","286","523335","0.0-286.0","null","null","","","","","","","","","","","","","","stimulus","","","2","19","","","","","","","","","",""
"","","","","","","","","","","","canvas-button-response","287","528446","0.0-287.0","5109","phone","","","","","","","","","","","","","","perceptual","","","2","19","","","","","369","knife","6","0","0",""
"","","","","","","","","","","","canvas-button-response","288","529480","0.0-288.0","1032","0","","","","","","","","","","","","","","confidence","","","2","19","","","","","","","","","","9"
"","","","","","","","","","","","preload","289","529481","0.0-289.0","","","","","true","","","","","","","","","","","preload","","","2","20","false","[]","[]","[]","","","","","",""
"","","","","","","","","","","","canvas-keyboard-response","290","529782","0.0-290.0","null","null","","","","","","","","","","","","","","fixation","","","2","20","","","","","","","","","",""
"","","","","","","","","","","","canvas-keyboard-response","291","530085","0.0-291.0","null","null","","","","","","","","","","","","","","stimulus","","","2","20","","","","","","","","","",""
"","","","","","","","","","","","canvas-button-response","292","531396","0.0-292.0","1309","bed","","","","","","","","","","","","","","perceptual","","","2","20","","","","","135","bed","6","0","1",""
"","","","","","","","","","","","canvas-button-response","293","532147","0.0-293.0","749","6","","","","","","","","","","","","","","confidence","","","2","20","","","","","","","","","","10"
"","","","","","","","","","","","preload","294","532148","0.0-294.0","","","","","true","","","","","","","","","","","preload","","","2","21","false","[]","[]","[]","","","","","",""
"","","","","","","","","","","","canvas-keyboard-response","295","532450","0.0-295.0","null","null","","","","","","","","","","","","","","fixation","","","2","21","","","","","","","","","",""
"","","","","","","","","","","","canvas-keyboard-response","296","532753","0.0-296.0","null","null","","","","","","","","","","","","","","stimulus","","","2","21","","","","","","","","","",""
"","","","","","","","","","","","canvas-button-response","297","535161","0.0-297.0","2407","elephant","","","","","","","","","","","","","","perceptual","","","2","21","","","","","320","elephant","6","0","1",""
"","","","","","","","","","","","canvas-button-response","298","536114","0.0-298.0","951","0","","","","","","","","","","","","","","confidence","","","2","21","","","","","","","","","","11"
"","","","","","","","","","","","preload","299","536115","0.0-299.0","","","","","true","","","","","","","","","","","preload","","","2","22","false","[]","[]","[]","","","","","",""
"","","","","","","","","","","","canvas-keyboard-response","300","536417","0.0-300.0","null","null","","","","","","","","","","","","","","fixation","","","2","22","","","","","","","","","",""
"","","","","","","","","","","","canvas-keyboard-response","301","536720","0.0-301.0","null","null","","","","","","","","","","","","","","stimulus","","","2","22","","","","","","","","","",""
"","","","","","","","","","","","canvas-button-response","302","538080","0.0-302.0","1358","knife","","","","","","","","","","","","","","perceptual","","","2","22","","","","","395","knife","10","0","1",""
"","","","","","","","","","","","canvas-button-response","303","539163","0.0-303.0","1082","7","","","","","","","","","","","","","","confidence","","","2","22","","","","","","","","","","12"
"","","","","","","","","","","","preload","304","539164","0.0-304.0","","","","","true","","","","","","","","","","","preload","","","2","23","false","[]","[]","[]","","","","","",""
"","","","","","","","","","","","canvas-keyboard-response","305","539466","0.0-305.0","null","null","","","","","","","","","","","","","","fixation","","","2","23","","","","","","","","","",""
"","","","","","","","","","","","canvas-keyboard-response","306","539769","0.0-306.0","null","null","","","","","","","","","","","","","","stimulus","","","2","23","","","","","","","","","",""
"","","","","","","","","","","","canvas-button-response","307","541896","0.0-307.0","2125","house","","","","","","","","","","","","","","perceptual","","","2","23","","","","","77","car","10","0","0",""
"","","","","","","","","","","","canvas-button-response","308","542747","0.0-308.0","848","0","","","","","","","","","","","","","","confidence","","","2","23","","","","","","","","","","12"
"","","","","","","","","","","","preload","309","542748","0.0-309.0","","","","","true","","","","","","","","","","","preload","","","2","24","false","[]","[]","[]","","","","","",""
"","","","","","","","","","","","canvas-keyboard-response","310","543049","0.0-310.0","null","null","","","","","","","","","","","","","","fixation","","","2","24","","","","","","","","","",""
"","","","","","","","","","","","canvas-keyboard-response","311","543351","0.0-311.0","null","null","","","","","","","","","","","","","","stimulus","","","2","24","","","","","","","","","",""
"","","","","","","","","","","","canvas-button-response","312","544929","0.0-312.0","1576","elephant","","","","","","","","","","","","","","perceptual","","","2","24","","","","","327","elephant","6","0","1",""
"","","","","","","","","","","","canvas-button-response","313","545930","0.0-313.0","999","3","","","","","","","","","","","","","","confidence","","","2","24","","","","","","","","","","13"
"","","","","","","","","","","","preload","314","545931","0.0-314.0","","","","","true","","","","","","","","","","","preload","","","2","25","false","[]","[]","[]","","","","","",""
"","","","","","","","","","","","canvas-keyboard-response","315","546234","0.0-315.0","null","null","","","","","","","","","","","","","","fixation","","","2","25","","","","","","","","","",""
"","","","","","","","","","","","canvas-keyboard-response","316","546537","0.0-316.0","null","null","","","","","","","","","","","","","","stimulus","","","2","25","","","","","","","","","",""
"","","","","","","","","","","","canvas-button-response","317","548213","0.0-317.0","1674","cat","","","","","","","","","","","","","","perceptual","","","2","25","","","","","353","elephant","10","0","0",""
"","","","","","","","","","","","canvas-button-response","318","549163","0.0-318.0","948","5","","","","","","","","","","","","","","confidence","","","2","25","","","","","","","","","","13"
"","","","","","","","","","","","preload","319","549164","0.0-319.0","","","","","true","","","","","","","","","","","preload","","","2","26","false","[]","[]","[]","","","","","",""
"","","","","","","","","","","","canvas-keyboard-response","320","549467","0.0-320.0","null","null","","","","","","","","","","","","","","fixation","","","2","26","","","","","","","","","",""
"","","","","","","","","","","","canvas-keyboard-response","321","549769","0.0-321.0","null","null","","","","","","","","","","","","","","stimulus","","","2","26","","","","","","","","","",""
"","","","","","","","","","","","canvas-button-response","322","550596","0.0-322.0","824","knife","","","","","","","","","","","","","","perceptual","","","2","26","","","","","379","knife","6","0","1",""
"","","","","","","","","","","","canvas-button-response","323","551547","0.0-323.0","949","9","","","","","","","","","","","","","","confidence","","","2","26","","","","","","","","","","14"
"","","","","","","","","","","","preload","324","551548","0.0-324.0","","","","","true","","","","","","","","","","","preload","","","2","27","false","[]","[]","[]","","","","","",""
"","","","","","","","","","","","canvas-keyboard-response","325","551849","0.0-325.0","null","null","","","","","","","","","","","","","","fixation","","","2","27","","","","","","","","","",""
"","","","","","","","","","","","canvas-keyboard-response","326","552152","0.0-326.0","null","null","","","","","","","","","","","","","","stimulus","","","2","27","","","","","","","","","",""
"","","","","","","","","","","","canvas-button-response","327","553680","0.0-327.0","1526","house","","","","","","","","","","","","","","perceptual","","","2","27","","","","","11","house","6","0","1",""
"","","","","","","","","","","","canvas-button-response","328","554469","0.0-328.0","787","10","","","","","","","","","","","","","","confidence","","","2","27","","","","","","","","","","15"
"","","","","","","","","","","","preload","329","554470","0.0-329.0","","","","","true","","","","","","","","","","","preload","","","2","28","false","[]","[]","[]","","","","","",""
"","","","","","","","","","","","canvas-keyboard-response","330","554771","0.0-330.0","null","null","","","","","","","","","","","","","","fixation","","","2","28","","","","","","","","","",""
"","","","","","","","","","","","canvas-keyboard-response","331","555074","0.0-331.0","null","null","","","","","","","","","","","","","","stimulus","","","2","28","","","","","","","","","",""
"","","","","","","","","","","","canvas-button-response","332","557380","0.0-332.0","2303","car","","","","","","","","","","","","","","perceptual","","","2","28","","","","","47","car","6","0","1",""
"","","","","","","","","","","","canvas-button-response","333","558280","0.0-333.0","898","10","","","","","","","","","","","","","","confidence","","","2","28","","","","","","","","","","16"
"","","","","","","","","","","","preload","334","558281","0.0-334.0","","","","","true","","","","","","","","","","","preload","","","2","29","false","[]","[]","[]","","","","","",""
"","","","","","","","","","","","canvas-keyboard-response","335","558582","0.0-335.0","null","null","","","","","","","","","","","","","","fixation","","","2","29","","","","","","","","","",""
"","","","","","","","","","","","canvas-keyboard-response","336","558884","0.0-336.0","null","null","","","","","","","","","","","","","","stimulus","","","2","29","","","","","","","","","",""
"","","","","","","","","","","","canvas-button-response","337","560130","0.0-337.0","1244","train","","","","","","","","","","","","","","perceptual","","","2","29","","","","","255","train","6","0","1",""
"","","","","","","","","","","","canvas-button-response","338","560930","0.0-338.0","798","10","","","","","","","","","","","","","","confidence","","","2","29","","","","","","","","","","17"
"","","","","","","","","","","","preload","339","560931","0.0-339.0","","","","","true","","","","","","","","","","","preload","","","2","30","false","[]","[]","[]","","","","","",""
"","","","","","","","","","","","canvas-keyboard-response","340","561234","0.0-340.0","null","null","","","","","","","","","","","","","","fixation","","","2","30","","","","","","","","","",""
"","","","","","","","","","","","canvas-keyboard-response","341","561536","0.0-341.0","null","null","","","","","","","","","","","","","","stimulus","","","2","30","","","","","","","","","",""
"","","","","","","","","","","","canvas-button-response","342","562829","0.0-342.0","1290","flower","","","","","","","","","","","","","","perceptual","","","2","30","","","","","233","flower","10","0","1",""
"","","","","","","","","","","","canvas-button-response","343","564146","0.0-343.0","1315","1","","","","","","","","","","","","","","confidence","","","2","30","","","","","","","","","","18"
"","","","","","","","","","","","preload","344","564147","0.0-344.0","","","","","true","","","","","","","","","","","preload","","","2","31","false","[]","[]","[]","","","","","",""
"","","","","","","","","","","","canvas-keyboard-response","345","564449","0.0-345.0","null","null","","","","","","","","","","","","","","fixation","","","2","31","","","","","","","","","",""
"","","","","","","","","","","","canvas-keyboard-response","346","564752","0.0-346.0","null","null","","","","","","","","","","","","","","stimulus","","","2","31","","","","","","","","","",""
"","","","","","","","","","","","canvas-button-response","347","565964","0.0-347.0","1210","elephant","","","","","","","","","","","","","","perceptual","","","2","31","","","","","341","elephant","10","0","1",""
"","","","","","","","","","","","canvas-button-response","348","566630","0.0-348.0","664","7","","","","","","","","","","","","","","confidence","","","2","31","","","","","","","","","","19"
"","","","","","","","","","","","preload","349","566631","0.0-349.0","","","","","true","","","","","","","","","","","preload","","","2","32","false","[]","[]","[]","","","","","",""
"","","","","","","","","","","","canvas-keyboard-response","350","566933","0.0-350.0","null","null","","","","","","","","","","","","","","fixation","","","2","32","","","","","","","","","",""
"","","","","","","","","","","","canvas-keyboard-response","351","567236","0.0-351.0","null","null","","","","","","","","","","","","","","stimulus","","","2","32","","","","","","","","","",""
"","","","","","","","","","","","canvas-button-response","352","568230","0.0-352.0","992","bridge","","","","","","","","","","","","","","perceptual","","","2","32","","","","","178","bridge","6","0","1",""
"","","","","","","","","","","","canvas-button-response","353","569097","0.0-353.0","865","8","","","","","","","","","","","","","","confidence","","","2","32","","","","","","","","","","20"
"","","","","","","","","","","","preload","354","569098","0.0-354.0","","","","","true","","","","","","","","","","","preload","","","2","33","false","[]","[]","[]","","","","","",""
"","","","","","","","","","","","canvas-keyboard-response","355","569399","0.0-355.0","null","null","","","","","","","","","","","","","","fixation","","","2","33","","","","","","","","","",""
"","","","","","","","","","","","canvas-keyboard-response","356","569701","0.0-356.0","null","null","","","","","","","","","","","","","","stimulus","","","2","33","","","","","","","","","",""
"","","","","","","","","","","","canvas-button-response","357","571080","0.0-357.0","1377","bridge","","","","","","","","","","","","","","perceptual","","","2","33","","","","","174","bridge","6","0","1",""
"","","","","","","","","","","","canvas-button-response","358","571695","0.0-358.0","613","8","","","","","","","","","","","","","","confidence","","","2","33","","","","","","","","","","21"
"","","","","","","","","","","","preload","359","571696","0.0-359.0","","","","","true","","","","","","","","","","","preload","","","2","34","false","[]","[]","[]","","","","","",""
"","","","","","","","","","","","canvas-keyboard-response","360","571998","0.0-360.0","null","null","","","","","","","","","","","","","","fixation","","","2","34","","","","","","","","","",""
"","","","","","","","","","","","canvas-keyboard-response","361","572301","0.0-361.0","null","null","","","","","","","","","","","","","","stimulus","","","2","34","","","","","","","","","",""
"","","","","","","","","","","","canvas-button-response","362","573296","0.0-362.0","993","bridge","","","","","","","","","","","","","","perceptual","","","2","34","","","","","188","bridge","10","0","1",""
"","","","","","","","","","","","canvas-button-response","363","574896","0.0-363.0","1598","7","","","","","","","","","","","","","","confidence","","","2","34","","","","","","","","","","22"
"","","","","","","","","","","","preload","364","574897","0.0-364.0","","","","","true","","","","","","","","","","","preload","","","2","35","false","[]","[]","[]","","","","","",""
"","","","","","","","","","","","canvas-keyboard-response","365","575199","0.0-365.0","null","null","","","","","","","","","","","","","","fixation","","","2","35","","","","","","","","","",""
"","","","","","","","","","","","canvas-keyboard-response","366","575502","0.0-366.0","null","null","","","","","","","","","","","","","","stimulus","","","2","35","","","","","","","","","",""
"","","","","","","","","","","","canvas-button-response","367","576813","0.0-367.0","1310","car","","","","","","","","","","","","","","perceptual","","","2","35","","","","","57","car","6","0","1",""
"","","","","","","","","","","","canvas-button-response","368","578097","0.0-368.0","1282","6","","","","","","","","","","","","","","confidence","","","2","35","","","","","","","","","","23"
"","","","","","","","","","","","preload","369","578098","0.0-369.0","","","","","true","","","","","","","","","","","preload","","","2","36","false","[]","[]","[]","","","","","",""
"","","","","","","","","","","","canvas-keyboard-response","370","578400","0.0-370.0","null","null","","","","","","","","","","","","","","fixation","","","2","36","","","","","","","","","",""
"","","","","","","","","","","","canvas-keyboard-response","371","578702","0.0-371.0","null","null","","","","","","","","","","","","","","stimulus","","","2","36","","","","","","","","","",""
"","","","","","","","","","","","canvas-button-response","372","582030","0.0-372.0","3325","knife","","","","","","","","","","","","","","perceptual","","","2","36","","","","","100","phone","10","0","0",""
"","","","","","","","","","","","canvas-button-response","373","583218","0.0-373.0","1187","0","","","","","","","","","","","","","","confidence","","","2","36","","","","","","","","","","23"
"","","","","","","","","","","","preload","374","583219","0.0-374.0","","","","","true","","","","","","","","","","","preload","","","2","37","false","[]","[]","[]","","","","","",""
"","","","","","","","","","","","canvas-keyboard-response","375","583522","0.0-375.0","null","null","","","","","","","","","","","","","","fixation","","","2","37","","","","","","","","","",""
"","","","","","","","","","","","canvas-keyboard-response","376","583825","0.0-376.0","null","null","","","","","","","","","","","","","","stimulus","","","2","37","","","","","","","","","",""
"","","","","","","","","","","","canvas-button-response","377","585047","0.0-377.0","1220","cat","","","","","","","","","","","","","","perceptual","","","2","37","","","","","357","elephant","10","0","0",""
"","","","","","","","","","","","canvas-button-response","378","586330","0.0-378.0","1281","5","","","","","","","","","","","","","","confidence","","","2","37","","","","","","","","","","23"
"","","","","","","","","","","","preload","379","586331","0.0-379.0","","","","","true","","","","","","","","","","","preload","","","2","38","false","[]","[]","[]","","","","","",""
"","","","","","","","","","","","canvas-keyboard-response","380","586632","0.0-380.0","null","null","","","","","","","","","","","","","","fixation","","","2","38","","","","","","","","","",""
"","","","","","","","","","","","canvas-keyboard-response","381","586935","0.0-381.0","null","null","","","","","","","","","","","","","","stimulus","","","2","38","","","","","","","","","",""
"","","","","","","","","","","","canvas-button-response","382","588013","0.0-382.0","1075","flower","","","","","","","","","","","","","","perceptual","","","2","38","","","","","208","flower","6","0","1",""
"","","","","","","","","","","","canvas-button-response","383","588796","0.0-383.0","781","6","","","","","","","","","","","","","","confidence","","","2","38","","","","","","","","","","24"
"","","","","","","","","","","","preload","384","588798","0.0-384.0","","","","","true","","","","","","","","","","","preload","","","2","39","false","[]","[]","[]","","","","","",""
"","","","","","","","","","","","canvas-keyboard-response","385","589100","0.0-385.0","null","null","","","","","","","","","","","","","","fixation","","","2","39","","","","","","","","","",""
"","","","","","","","","","","","canvas-keyboard-response","386","589403","0.0-386.0","null","null","","","","","","","","","","","","","","stimulus","","","2","39","","","","","","","","","",""
"","","","","","","","","","","","canvas-button-response","387","591546","0.0-387.0","2141","car","","","","","","","","","","","","","","perceptual","","","2","39","","","","","36","house","10","0","0",""
"","","","","","","","","","","","canvas-button-response","388","592513","0.0-388.0","964","6","","","","","","","","","","","","","","confidence","","","2","39","","","","","","","","","","24"
"","","","","","","","","","","","preload","389","592514","0.0-389.0","","","","","true","","","","","","","","","","","preload","","","2","40","false","[]","[]","[]","","","","","",""
"","","","","","","","","","","","canvas-keyboard-response","390","592817","0.0-390.0","null","null","","","","","","","","","","","","","","fixation","","","2","40","","","","","","","","","",""
"","","","","","","","","","","","canvas-keyboard-response","391","593120","0.0-391.0","null","null","","","","","","","","","","","","","","stimulus","","","2","40","","","","","","","","","",""
"","","","","","","","","","","","canvas-button-response","392","594480","0.0-392.0","1358","house","","","","","","","","","","","","","","perceptual","","","2","40","","","","","0","house","6","0","1",""
"","","","","","","","","","","","canvas-button-response","393","596513","0.0-393.0","2031","3","","","","","","","","","","","","","","confidence","","","2","40","","","","","","","","","","25"
"","","","","","","","","","","","preload","394","596514","0.0-394.0","","","","","true","","","","","","","","","","","preload","","","2","41","false","[]","[]","[]","","","","","",""
"","","","","","","","","","","","canvas-keyboard-response","395","596816","0.0-395.0","null","null","","","","","","","","","","","","","","fixation","","","2","41","","","","","","","","","",""
"","","","","","","","","","","","canvas-keyboard-response","396","597119","0.0-396.0","null","null","","","","","","","","","","","","","","stimulus","","","2","41","","","","","","","","","",""
"","","","","","","","","","","","canvas-button-response","397","598063","0.0-397.0","942","flower","","","","","","","","","","","","","","perceptual","","","2","41","","","","","224","flower","10","0","1",""
"","","","","","","","","","","","canvas-button-response","398","598980","0.0-398.0","915","5","","","","","","","","","","","","","","confidence","","","2","41","","","","","","","","","","26"
"","","","","","","","","","","","preload","399","598980","0.0-399.0","","","","","true","","","","","","","","","","","preload","","","2","42","false","[]","[]","[]","","","","","",""
"","","","","","","","","","","","canvas-keyboard-response","400","599283","0.0-400.0","null","null","","","","","","","","","","","","","","fixation","","","2","42","","","","","","","","","",""
"","","","","","","","","","","","canvas-keyboard-response","401","599586","0.0-401.0","null","null","","","","","","","","","","","","","","stimulus","","","2","42","","","","","","","","","",""
"","","","","","","","","","","","canvas-button-response","402","600513","0.0-402.0","925","cat","","","","","","","","","","","","","","perceptual","","","2","42","","","","","317","cat","10","0","1",""
"","","","","","","","","","","","canvas-button-response","403","601313","0.0-403.0","797","9","","","","","","","","","","","","","","confidence","","","2","42","","","","","","","","","","27"
"","","","","","","","","","","","preload","404","601313","0.0-404.0","","","","","true","","","","","","","","","","","preload","","","2","43","false","[]","[]","[]","","","","","",""
"","","","","","","","","","","","canvas-keyboard-response","405","601616","0.0-405.0","null","null","","","","","","","","","","","","","","fixation","","","2","43","","","","","","","","","",""
"","","","","","","","","","","","canvas-keyboard-response","406","601919","0.0-406.0","null","null","","","","","","","","","","","","","","stimulus","","","2","43","","","","","","","","","",""
"","","","","","","","","","","","canvas-button-response","407","603096","0.0-407.0","1175","elephant","","","","","","","","","","","","","","perceptual","","","2","43","","","","","359","elephant","10","0","1",""
"","","","","","","","","","","","canvas-button-response","408","603780","0.0-408.0","682","9","","","","","","","","","","","","","","confidence","","","2","43","","","","","","","","","","28"
"","","","","","","","","","","","preload","409","603781","0.0-409.0","","","","","true","","","","","","","","","","","preload","","","2","44","false","[]","[]","[]","","","","","",""
"","","","","","","","","","","","canvas-keyboard-response","410","604084","0.0-410.0","null","null","","","","","","","","","","","","","","fixation","","","2","44","","","","","","","","","",""
"","","","","","","","","","","","canvas-keyboard-response","411","604386","0.0-411.0","null","null","","","","","","","","","","","","","","stimulus","","","2","44","","","","","","","","","",""
"","","","","","","","","","","","canvas-button-response","412","605579","0.0-412.0","1191","car","","","","","","","","","","","","","","perceptual","","","2","44","","","","","42","car","6","0","1",""
"","","","","","","","","","","","canvas-button-response","413","606813","0.0-413.0","1231","4","","","","","","","","","","","","","","confidence","","","2","44","","","","","","","","","","29"
"","","","","","","","","","","","preload","414","606814","0.0-414.0","","","","","true","","","","","","","","","","","preload","","","2","45","false","[]","[]","[]","","","","","",""
"","","","","","","","","","","","canvas-keyboard-response","415","607116","0.0-415.0","null","null","","","","","","","","","","","","","","fixation","","","2","45","","","","","","","","","",""
"","","","","","","","","","","","canvas-keyboard-response","416","607418","0.0-416.0","null","null","","","","","","","","","","","","","","stimulus","","","2","45","","","","","","","","","",""
"","","","","","","","","","","","canvas-button-response","417","610363","0.0-417.0","2943","house","","","","","","","","","","","","","","perceptual","","","2","45","","","","","313","cat","10","0","0",""
"","","","","","","","","","","","canvas-button-response","418","611229","0.0-418.0","865","0","","","","","","","","","","","","","","confidence","","","2","45","","","","","","","","","","29"
"","","","","","","","","","","","preload","419","611230","0.0-419.0","","","","","true","","","","","","","","","","","preload","","","2","46","false","[]","[]","[]","","","","","",""
"","","","","","","","","","","","canvas-keyboard-response","420","611533","0.0-420.0","null","null","","","","","","","","","","","","","","fixation","","","2","46","","","","","","","","","",""
"","","","","","","","","","","","canvas-keyboard-response","421","611836","0.0-421.0","null","null","","","","","","","","","","","","","","stimulus","","","2","46","","","","","","","","","",""
"","","","","","","","","","","","canvas-button-response","422","613046","0.0-422.0","1209","bridge","","","","","","","","","","","","","","perceptual","","","2","46","","","","","166","bridge","6","0","1",""
"","","","","","","","","","","","canvas-button-response","423","613796","0.0-423.0","748","4","","","","","","","","","","","","","","confidence","","","2","46","","","","","","","","","","30"
"","","","","","","","","","","","preload","424","613797","0.0-424.0","","","","","true","","","","","","","","","","","preload","","","2","47","false","[]","[]","[]","","","","","",""
"","","","","","","","","","","","canvas-keyboard-response","425","614099","0.0-425.0","null","null","","","","","","","","","","","","","","fixation","","","2","47","","","","","","","","","",""
"","","","","","","","","","","","canvas-keyboard-response","426","614401","0.0-426.0","null","null","","","","","","","","","","","","","","stimulus","","","2","47","","","","","","","","","",""
"","","","","","","","","","","","canvas-button-response","427","616729","0.0-427.0","2326","phone","","","","","","","","","","","","","","perceptual","","","2","47","","","","","228","flower","10","0","0",""
"","","","","","","","","","","","canvas-button-response","428","617963","0.0-428.0","1232","2","","","","","","","","","","","","","","confidence","","","2","47","","","","","","","","","","30"
"","","","","","","","","","","","preload","429","617964","0.0-429.0","","","","","true","","","","","","","","","","","preload","","","2","48","false","[]","[]","[]","","","","","",""
"","","","","","","","","","","","canvas-keyboard-response","430","618266","0.0-430.0","null","null","","","","","","","","","","","","","","fixation","","","2","48","","","","","","","","","",""
"","","","","","","","","","","","canvas-keyboard-response","431","618569","0.0-431.0","null","null","","","","","","","","","","","","","","stimulus","","","2","48","","","","","","","","","",""
"","","","","","","","","","","","canvas-button-response","432","619780","0.0-432.0","1209","cat","","","","","","","","","","","","","","perceptual","","","2","48","","","","","300","cat","10","0","1",""
"","","","","","","","","","","","canvas-button-response","433","620446","0.0-433.0","664","2","","","","","","","","","","","","","","confidence","","","2","48","","","","","","","","","","31"
"","","","","","","","","","","","preload","434","620447","0.0-434.0","","","","","true","","","","","","","","","","","preload","","","2","49","false","[]","[]","[]","","","","","",""
"","","","","","","","","","","","canvas-keyboard-response","435","620750","0.0-435.0","null","null","","","","","","","","","","","","","","fixation","","","2","49","","","","","","","","","",""
"","","","","","","","","","","","canvas-keyboard-response","436","621052","0.0-436.0","null","null","","","","","","","","","","","","","","stimulus","","","2","49","","","","","","","","","",""
"","","","","","","","","","","","canvas-button-response","437","622847","0.0-437.0","1792","elephant","","","","","","","","","","","","","","perceptual","","","2","49","","","","","117","phone","10","0","0",""
"","","","","","","","","","","","canvas-button-response","438","623746","0.0-438.0","898","4","","","","","","","","","","","","","","confidence","","","2","49","","","","","","","","","","31"
"","","","","","","","","","","","html-button-response","439","680779","0.0-439.0","57031","0","","","","","","","","","","","","","","<p style=""font-size:20px;color:#000000"">You got 31 out of 50 trials correct in this block.<br><br>You have completed 6% of the experiment.<br><br>Take a short break.<br><br>When you are ready, click Continue to proceed.","","","2","49","","","","","","","","","",""
"","","","","","","","","","","","html-keyboard-response","440","681781","0.0-440.0","null","null","","","","","","","","","","","","","","<p style=""font-size:32px;color:#000000""><br><br> RUN: &nbsp 1/4 <br><br> BLOCK: 2/4 ","","","2","49","","","","","","","","","",""
"","","","","","","","","","","","preload","441","681782","0.0-441.0","","","","","true","","","","","","","","","","","preload","","","2","50","false","[]","[]","[]","","","","","",""
"","","","","","","","","","","","canvas-keyboard-response","442","682085","0.0-442.0","null","null","","","","","","","","","","","","","","fixation","","","2","50","","","","","","","","","",""
"","","","","","","","","","","","canvas-keyboard-response","443","682388","0.0-443.0","null","null","","","","","","","","","","","","","","stimulus","","","2","50","","","","","","","","","",""
"","","","","","","","","","","","canvas-button-response","444","684479","0.0-444.0","2089","cat","","","","","","","","","","","","","","perceptual","","","2","50","","","","","321","elephant","6","0","0",""
"","","","","","","","","","","","canvas-button-response","445","686013","0.0-445.0","1532","1","","","","","","","","","","","","","","confidence","","","2","50","","","","","","","","","","0"
"","","","","","","","","","","","preload","446","686014","0.0-446.0","","","","","true","","","","","","","","","","","preload","","","2","51","false","[]","[]","[]","","","","","",""
"","","","","","","","","","","","canvas-keyboard-response","447","686317","0.0-447.0","null","null","","","","","","","","","","","","","","fixation","","","2","51","","","","","","","","","",""
"","","","","","","","","","","","canvas-keyboard-response","448","686620","0.0-448.0","null","null","","","","","","","","","","","","","","stimulus","","","2","51","","","","","","","","","",""
"","","","","","","","","","","","canvas-button-response","449","687896","0.0-449.0","1274","car","","","","","","","","","","","","","","perceptual","","","2","51","","","","","72","car","10","0","1",""
"","","","","","","","","","","","canvas-button-response","450","688896","0.0-450.0","998","8","","","","","","","","","","","","","","confidence","","","2","51","","","","","","","","","","1"
"","","","","","","","","","","","preload","451","688897","0.0-451.0","","","","","true","","","","","","","","","","","preload","","","2","52","false","[]","[]","[]","","","","","",""
"","","","","","","","","","","","canvas-keyboard-response","452","689198","0.0-452.0","null","null","","","","","","","","","","","","","","fixation","","","2","52","","","","","","","","","",""
"","","","","","","","","","","","canvas-keyboard-response","453","689501","0.0-453.0","null","null","","","","","","","","","","","","","","stimulus","","","2","52","","","","","","","","","",""
"","","","","","","","","","","","canvas-button-response","454","690545","0.0-454.0","1042","car","","","","","","","","","","","","","","perceptual","","","2","52","","","","","61","car","10","0","1",""
"","","","","","","","","","","","canvas-button-response","455","691463","0.0-455.0","916","9","","","","","","","","","","","","","","confidence","","","2","52","","","","","","","","","","2"
"","","","","","","","","","","","preload","456","691464","0.0-456.0","","","","","true","","","","","","","","","","","preload","","","2","53","false","[]","[]","[]","","","","","",""
"","","","","","","","","","","","canvas-keyboard-response","457","691767","0.0-457.0","null","null","","","","","","","","","","","","","","fixation","","","2","53","","","","","","","","","",""
"","","","","","","","","","","","canvas-keyboard-response","458","692070","0.0-458.0","null","null","","","","","","","","","","","","","","stimulus","","","2","53","","","","","","","","","",""
"","","","","","","","","","","","canvas-button-response","459","693313","0.0-459.0","1240","flower","","","","","","","","","","","","","","perceptual","","","2","53","","","","","226","flower","10","0","1",""
"","","","","","","","","","","","canvas-button-response","460","693913","0.0-460.0","598","5","","","","","","","","","","","","","","confidence","","","2","53","","","","","","","","","","3"
"","","","","","","","","","","","preload","461","693914","0.0-461.0","","","","","true","","","","","","","","","","","preload","","","2","54","false","[]","[]","[]","","","","","",""
"","","","","","","","","","","","canvas-keyboard-response","462","694217","0.0-462.0","null","null","","","","","","","","","","","","","","fixation","","","2","54","","","","","","","","","",""
"","","","","","","","","","","","canvas-keyboard-response","463","694520","0.0-463.0","null","null","","","","","","","","","","","","","","stimulus","","","2","54","","","","","","","","","",""
"","","","","","","","","","","","canvas-button-response","464","695429","0.0-464.0","907","train","","","","","","","","","","","","","","perceptual","","","2","54","","","","","254","train","6","0","1",""
"","","","","","","","","","","","canvas-button-response","465","696029","0.0-465.0","598","7","","","","","","","","","","","","","","confidence","","","2","54","","","","","","","","","","4"
"","","","","","","","","","","","preload","466","696030","0.0-466.0","","","","","true","","","","","","","","","","","preload","","","2","55","false","[]","[]","[]","","","","","",""
"","","","","","","","","","","","canvas-keyboard-response","467","696333","0.0-467.0","null","null","","","","","","","","","","","","","","fixation","","","2","55","","","","","","","","","",""
"","","","","","","","","","","","canvas-keyboard-response","468","696636","0.0-468.0","null","null","","","","","","","","","","","","","","stimulus","","","2","55","","","","","","","","","",""
"","","","","","","","","","","","canvas-button-response","469","697529","0.0-469.0","892","car","","","","","","","","","","","","","","perceptual","","","2","55","","","","","53","car","6","0","1",""
"","","","","","","","","","","","canvas-button-response","470","698263","0.0-470.0","731","8","","","","","","","","","","","","","","confidence","","","2","55","","","","","","","","","","5"
"","","","","","","","","","","","preload","471","698264","0.0-471.0","","","","","true","","","","","","","","","","","preload","","","2","56","false","[]","[]","[]","","","","","",""
"","","","","","","","","","","","canvas-keyboard-response","472","698565","0.0-472.0","null","null","","","","","","","","","","","","","","fixation","","","2","56","","","","","","","","","",""
"","","","","","","","","","","","canvas-keyboard-response","473","698868","0.0-473.0","null","null","","","","","","","","","","","","","","stimulus","","","2","56","","","","","","","","","",""
"","","","","","","","","","","","canvas-button-response","474","700096","0.0-474.0","1226","phone","","","","","","","","","","","","","","perceptual","","","2","56","","","","","88","phone","6","0","1",""
"","","","","","","","","","","","canvas-button-response","475","701162","0.0-475.0","1064","10","","","","","","","","","","","","","","confidence","","","2","56","","","","","","","","","","6"
"","","","","","","","","","","","preload","476","701163","0.0-476.0","","","","","true","","","","","","","","","","","preload","","","2","57","false","[]","[]","[]","","","","","",""
"","","","","","","","","","","","canvas-keyboard-response","477","701465","0.0-477.0","null","null","","","","","","","","","","","","","","fixation","","","2","57","","","","","","","","","",""
"","","","","","","","","","","","canvas-keyboard-response","478","701767","0.0-478.0","null","null","","","","","","","","","","","","","","stimulus","","","2","57","","","","","","","","","",""
"","","","","","","","","","","","canvas-button-response","479","702996","0.0-479.0","1227","phone","","","","","","","","","","","","","","perceptual","","","2","57","","","","","118","phone","10","0","1",""
"","","","","","","","","","","","canvas-button-response","480","703812","0.0-480.0","814","10","","","","","","","","","","","","","","confidence","","","2","57","","","","","","","","","","7"
"","","","","","","","","","","","preload","481","703813","0.0-481.0","","","","","true","","","","","","","","","","","preload","","","2","58","false","[]","[]","[]","","","","","",""
"","","","","","","","","","","","canvas-keyboard-response","482","704116","0.0-482.0","null","null","","","","","","","","","","","","","","fixation","","","2","58","","","","","","","","","",""
"","","","","","","","","","","","canvas-keyboard-response","483","704419","0.0-483.0","null","null","","","","","","","","","","","","","","stimulus","","","2","58","","","","","","","","","",""
"","","","","","","","","","","","canvas-button-response","484","705496","0.0-484.0","1075","knife","","","","","","","","","","","","","","perceptual","","","2","58","","","","","360","knife","6","0","1",""
"","","","","","","","","","","","canvas-button-response","485","706163","0.0-485.0","665","7","","","","","","","","","","","","","","confidence","","","2","58","","","","","","","","","","8"
"","","","","","","","","","","","preload","486","706164","0.0-486.0","","","","","true","","","","","","","","","","","preload","","","2","59","false","[]","[]","[]","","","","","",""
"","","","","","","","","","","","canvas-keyboard-response","487","706465","0.0-487.0","null","null","","","","","","","","","","","","","","fixation","","","2","59","","","","","","","","","",""
"","","","","","","","","","","","canvas-keyboard-response","488","706768","0.0-488.0","null","null","","","","","","","","","","","","","","stimulus","","","2","59","","","","","","","","","",""
"","","","","","","","","","","","canvas-button-response","489","707963","0.0-489.0","1193","flower","","","","","","","","","","","","","","perceptual","","","2","59","","","","","200","flower","6","0","1",""
"","","","","","","","","","","","canvas-button-response","490","709130","0.0-490.0","1165","7","","","","","","","","","","","","","","confidence","","","2","59","","","","","","","","","","9"
"","","","","","","","","","","","preload","491","709131","0.0-491.0","","","","","true","","","","","","","","","","","preload","","","2","60","false","[]","[]","[]","","","","","",""
