"width","height","webaudio","browser","browser_version","mobile","os","fullscreen","vsync_rate","webcam","microphone","trial_type","trial_index","time_elapsed","internal_node_id","rt","response","accuracy","view_history","success","item_width_mm","item_height_mm","item_width_px","px2mm","view_dist_mm","item_width_deg","px2deg","scale_factor","win_width_deg","win_height_deg","stimulus","datetime","subjectID","curr_triallist","trial_no","timeout","failed_images","failed_audio","failed_video","image_index","category","blur","reps","correct","running_score"
"1273","623","true","chrome","139.0.0","false","Mac OS","true","120.02","true","true","browser-check","0","508","0.0-0.0","","","","","","","","","","","","","","","","","","","","","","","","","","","","","",""
"","","","","","","","","","","","survey","1","59000","0.0-1.0","58464","{""P0_Q0"":""904083841"",""P0_Q1"":""18"",""P1_Q0"":""Male"",""P1_Q1"":""Not Hispanic or Latino"",""P1_Q2"":""White"",""P1_Q3"":""Corrected-to-Normal (using glasses/contacts)"",""P1_Q4"":""Right-Handed""}","[]","","","","","","","","","","","","","","","","","","","","","","","","","","",""
"","","","","","","","","","","","instructions","2","97837","0.0-2.0","38836","","","[{""page_index"":0,""viewing_time"":5837},{""page_index"":1,""viewing_time"":12300},{""page_index"":2,""viewing_time"":10378},{""page_index"":3,""viewing_time"":10321}]","","","","","","","","","","","","","","","","","","","","","","","","","",""
"","","","","","","","","","","","fullscreen","3","102690","0.0-3.0","3849","","","","true","","","","","","","","","","","","","","","","","","","","","","","","",""
"","","","","","","","","","","","virtual-chinrest","4","265516","0.0-4.0","162823","","","","","85.6","53.98","190.33368622417552","2.223524371777751","772.25","6.344456207472517","30","2.2486823456773726","50.4","31.5","","","","","","","","","","","","","","",""
"","","","","","","","","","","","instructions","5","337789","0.0-5.0","72271","","","[{""page_index"":0,""viewing_time"":13271},{""page_index"":1,""viewing_time"":22026},{""page_index"":2,""viewing_time"":11516},{""page_index"":3,""viewing_time"":7367},{""page_index"":4,""viewing_time"":3584},{""page_index"":5,""viewing_time"":10625},{""page_index"":6,""viewing_time"":3883}]","","","","","","","","","","","","","","","","","","","","","","","","","",""
"","","","","","","","","","","","html-button-response","6","342990","0.0-6.0","5198","0","","","","","","","","","","","","","","start_practice","Tue Oct 14 2025 19:50:14 GMT-0400 (Eastern Daylight Time)","27796","","","","","","","","","","","",""
"","","","","","","","","","","","preload","7","342991","0.0-7.0","","","","","true","","","","","","","","","","","preload","","","0","0","false","[]","[]","[]","","","","","",""
"","","","","","","","","","","","canvas-keyboard-response","8","343295","0.0-8.0","null","null","","","","","","","","","","","","","","fixation","","","0","0","","","","","","","","","",""
"","","","","","","","","","","","canvas-keyboard-response","9","343599","0.0-9.0","null","null","","","","","","","","","","","","","","stimulus","","","0","0","","","","","","","","","",""
"","","","","","","","","","","","canvas-button-response","10","346051","0.0-10.0","2450","bed","","","","","","","","","","","","","","perceptual","","","0","0","","","","","32","bed","1","","1",""
"","","","","","","","","","","","canvas-button-response","11","347739","0.0-11.0","1686","10","","","","","","","","","","","","","","confidence","","","0","0","","","","","","","","","","1"
"","","","","","","","","","","","html-keyboard-response","12","348742","0.0-12.0","null","null","","","","","","","","","","","","","","feedback","Tue Oct 14 2025 19:50:24 GMT-0400 (Eastern Daylight Time)","27796","0","0","","","","","","","","","",""
"","","","","","","","","","","","preload","13","348743","0.0-13.0","","","","","true","","","","","","","","","","","preload","","","0","1","false","[]","[]","[]","","","","","",""
"","","","","","","","","","","","canvas-keyboard-response","14","349045","0.0-14.0","null","null","","","","","","","","","","","","","","fixation","","","0","1","","","","","","","","","",""
"","","","","","","","","","","","canvas-keyboard-response","15","349348","0.0-15.0","null","null","","","","","","","","","","","","","","stimulus","","","0","1","","","","","","","","","",""
"","","","","","","","","","","","canvas-button-response","16","357739","0.0-16.0","8389","knife","","","","","","","","","","","","","","perceptual","","","0","1","","","","","92","knife","1","","1",""
"","","","","","","","","","","","canvas-button-response","17","359364","0.0-17.0","1624","8","","","","","","","","","","","","","","confidence","","","0","1","","","","","","","","","","2"
"","","","","","","","","","","","html-keyboard-response","18","360367","0.0-18.0","null","null","","","","","","","","","","","","","","feedback","Tue Oct 14 2025 19:50:35 GMT-0400 (Eastern Daylight Time)","27796","0","1","","","","","","","","","",""
"","","","","","","","","","","","preload","19","360368","0.0-19.0","","","","","true","","","","","","","","","","","preload","","","0","2","false","[]","[]","[]","","","","","",""
"","","","","","","","","","","","canvas-keyboard-response","20","360670","0.0-20.0","null","null","","","","","","","","","","","","","","fixation","","","0","2","","","","","","","","","",""
"","","","","","","","","","","","canvas-keyboard-response","21","360972","0.0-21.0","null","null","","","","","","","","","","","","","","stimulus","","","0","2","","","","","","","","","",""
"","","","","","","","","","","","canvas-button-response","22","363106","0.0-22.0","2132","house","","","","","","","","","","","","","","perceptual","","","0","2","","","","","2","house","1","","1",""
"","","","","","","","","","","","canvas-button-response","23","364102","0.0-23.0","994","10","","","","","","","","","","","","","","confidence","","","0","2","","","","","","","","","","3"
"","","","","","","","","","","","html-keyboard-response","24","365104","0.0-24.0","null","null","","","","","","","","","","","","","","feedback","Tue Oct 14 2025 19:50:40 GMT-0400 (Eastern Daylight Time)","27796","0","2","","","","","","","","","",""
"","","","","","","","","","","","preload","25","365105","0.0-25.0","","","","","true","","","","","","","","","","","preload","","","0","3","false","[]","[]","[]","","","","","",""
"","","","","","","","","","","","canvas-keyboard-response","26","365407","0.0-26.0","null","null","","","","","","","","","","","","","","fixation","","","0","3","","","","","","","","","",""
"","","","","","","","","","","","canvas-keyboard-response","27","365710","0.0-27.0","null","null","","","","","","","","","","","","","","stimulus","","","0","3","","","","","","","","","",""
"","","","","","","","","","","","canvas-button-response","28","366689","0.0-28.0","978","cat","","","","","","","","","","","","","","perceptual","","","0","3","","","","","72","cat","1","","1",""
"","","","","","","","","","","","canvas-button-response","29","367623","0.0-29.0","931","10","","","","","","","","","","","","","","confidence","","","0","3","","","","","","","","","","4"
"","","","","","","","","","","","html-keyboard-response","30","368625","0.0-30.0","null","null","","","","","","","","","","","","","","feedback","Tue Oct 14 2025 19:50:43 GMT-0400 (Eastern Daylight Time)","27796","0","3","","","","","","","","","",""
"","","","","","","","","","","","preload","31","368626","0.0-31.0","","","","","true","","","","","","","","","","","preload","","","0","4","false","[]","[]","[]","","","","","",""
"","","","","","","","","","","","canvas-keyboard-response","32","368928","0.0-32.0","null","null","","","","","","","","","","","","","","fixation","","","0","4","","","","","","","","","",""
"","","","","","","","","","","","canvas-keyboard-response","33","369230","0.0-33.0","null","null","","","","","","","","","","","","","","stimulus","","","0","4","","","","","","","","","",""
"","","","","","","","","","","","canvas-button-response","34","370210","0.0-34.0","978","car","","","","","","","","","","","","","","perceptual","","","0","4","","","","","12","car","1","","1",""
"","","","","","","","","","","","canvas-button-response","35","370968","0.0-35.0","756","10","","","","","","","","","","","","","","confidence","","","0","4","","","","","","","","","","5"
"","","","","","","","","","","","html-keyboard-response","36","371971","0.0-36.0","null","null","","","","","","","","","","","","","","feedback","Tue Oct 14 2025 19:50:47 GMT-0400 (Eastern Daylight Time)","27796","0","4","","","","","","","","","",""
"","","","","","","","","","","","preload","37","371972","0.0-37.0","","","","","true","","","","","","","","","","","preload","","","0","5","false","[]","[]","[]","","","","","",""
"","","","","","","","","","","","canvas-keyboard-response","38","372274","0.0-38.0","null","null","","","","","","","","","","","","","","fixation","","","0","5","","","","","","","","","",""
"","","","","","","","","","","","canvas-keyboard-response","39","372577","0.0-39.0","null","null","","","","","","","","","","","","","","stimulus","","","0","5","","","","","","","","","",""
"","","","","","","","","","","","canvas-button-response","40","373518","0.0-40.0","939","phone","","","","","","","","","","","","","","perceptual","","","0","5","","","","","22","phone","1","","1",""
"","","","","","","","","","","","canvas-button-response","41","374277","0.0-41.0","756","10","","","","","","","","","","","","","","confidence","","","0","5","","","","","","","","","","6"
"","","","","","","","","","","","html-keyboard-response","42","375279","0.0-42.0","null","null","","","","","","","","","","","","","","feedback","Tue Oct 14 2025 19:50:50 GMT-0400 (Eastern Daylight Time)","27796","0","5","","","","","","","","","",""
"","","","","","","","","","","","preload","43","375279","0.0-43.0","","","","","true","","","","","","","","","","","preload","","","0","6","false","[]","[]","[]","","","","","",""
"","","","","","","","","","","","canvas-keyboard-response","44","375582","0.0-44.0","null","null","","","","","","","","","","","","","","fixation","","","0","6","","","","","","","","","",""
"","","","","","","","","","","","canvas-keyboard-response","45","375885","0.0-45.0","null","null","","","","","","","","","","","","","","stimulus","","","0","6","","","","","","","","","",""
"","","","","","","","","","","","canvas-button-response","46","379210","0.0-46.0","3323","flower","","","","","","","","","","","","","","perceptual","","","0","6","","","","","52","flower","1","","1",""
"","","","","","","","","","","","canvas-button-response","47","380064","0.0-47.0","852","10","","","","","","","","","","","","","","confidence","","","0","6","","","","","","","","","","7"
"","","","","","","","","","","","html-keyboard-response","48","381066","0.0-48.0","null","null","","","","","","","","","","","","","","feedback","Tue Oct 14 2025 19:50:56 GMT-0400 (Eastern Daylight Time)","27796","0","6","","","","","","","","","",""
"","","","","","","","","","","","preload","49","381067","0.0-49.0","","","","","true","","","","","","","","","","","preload","","","0","7","false","[]","[]","[]","","","","","",""
"","","","","","","","","","","","canvas-keyboard-response","50","381370","0.0-50.0","null","null","","","","","","","","","","","","","","fixation","","","0","7","","","","","","","","","",""
"","","","","","","","","","","","canvas-keyboard-response","51","381672","0.0-51.0","null","null","","","","","","","","","","","","","","stimulus","","","0","7","","","","","","","","","",""
"","","","","","","","","","","","canvas-button-response","52","382448","0.0-52.0","774","train","","","","","","","","","","","","","","perceptual","","","0","7","","","","","62","train","1","","1",""
"","","","","","","","","","","","canvas-button-response","53","383101","0.0-53.0","651","10","","","","","","","","","","","","","","confidence","","","0","7","","","","","","","","","","8"
"","","","","","","","","","","","html-keyboard-response","54","384104","0.0-54.0","null","null","","","","","","","","","","","","","","feedback","Tue Oct 14 2025 19:50:59 GMT-0400 (Eastern Daylight Time)","27796","0","7","","","","","","","","","",""
"","","","","","","","","","","","preload","55","384105","0.0-55.0","","","","","true","","","","","","","","","","","preload","","","0","8","false","[]","[]","[]","","","","","",""
"","","","","","","","","","","","canvas-keyboard-response","56","384407","0.0-56.0","null","null","","","","","","","","","","","","","","fixation","","","0","8","","","","","","","","","",""
"","","","","","","","","","","","canvas-keyboard-response","57","384710","0.0-57.0","null","null","","","","","","","","","","","","","","stimulus","","","0","8","","","","","","","","","",""
"","","","","","","","","","","","canvas-button-response","58","397094","0.0-58.0","12382","cat","","","","","","","","","","","","","","perceptual","","","0","8","","","","","82","elephant","1","","0",""
"","","","","","","","","","","","canvas-button-response","59","397923","0.0-59.0","827","5","","","","","","","","","","","","","","confidence","","","0","8","","","","","","","","","","8"
"","","","","","","","","","","","html-keyboard-response","60","398925","0.0-60.0","null","null","","","","","","","","","","","","","","feedback","Tue Oct 14 2025 19:51:14 GMT-0400 (Eastern Daylight Time)","27796","0","8","","","","","","","","","",""
"","","","","","","","","","","","preload","61","398926","0.0-61.0","","","","","true","","","","","","","","","","","preload","","","0","9","false","[]","[]","[]","","","","","",""
"","","","","","","","","","","","canvas-keyboard-response","62","399229","0.0-62.0","null","null","","","","","","","","","","","","","","fixation","","","0","9","","","","","","","","","",""
"","","","","","","","","","","","canvas-keyboard-response","63","399532","0.0-63.0","null","null","","","","","","","","","","","","","","stimulus","","","0","9","","","","","","","","","",""
"","","","","","","","","","","","canvas-button-response","64","400581","0.0-64.0","1047","bridge","","","","","","","","","","","","","","perceptual","","","0","9","","","","","42","bridge","1","","1",""
"","","","","","","","","","","","canvas-button-response","65","401248","0.0-65.0","664","10","","","","","","","","","","","","","","confidence","","","0","9","","","","","","","","","","9"
"","","","","","","","","","","","html-keyboard-response","66","402250","0.0-66.0","null","null","","","","","","","","","","","","","","feedback","Tue Oct 14 2025 19:51:17 GMT-0400 (Eastern Daylight Time)","27796","0","9","","","","","","","","","",""
"","","","","","","","","","","","html-button-response","67","413817","0.0-67.0","11565","0","","","","","","","","","","","","","","start_practice","Tue Oct 14 2025 19:51:18 GMT-0400 (Eastern Daylight Time)","27796","0","9","","","","","","","","","",""
"","","","","","","","","","","","preload","68","413818","0.0-68.0","","","","","true","","","","","","","","","","","preload","","","1","0","false","[]","[]","[]","","","","","",""
"","","","","","","","","","","","canvas-keyboard-response","69","414120","0.0-69.0","null","null","","","","","","","","","","","","","","fixation","","","1","0","","","","","","","","","",""
"","","","","","","","","","","","canvas-keyboard-response","70","414422","0.0-70.0","null","null","","","","","","","","","","","","","","stimulus","","","1","0","","","","","","","","","",""
"","","","","","","","","","","","canvas-button-response","71","416256","0.0-71.0","1832","train","","","","","","","","","","","","","","perceptual","","","1","0","","","","","67","train","10","","1",""
"","","","","","","","","","","","canvas-button-response","72","417069","0.0-72.0","810","10","","","","","","","","","","","","","","confidence","","","1","0","","","","","","","","","","1"
"","","","","","","","","","","","html-keyboard-response","73","418072","0.0-73.0","null","null","","","","","","","","","","","","","","feedback","Tue Oct 14 2025 19:51:33 GMT-0400 (Eastern Daylight Time)","27796","1","0","","","","","","","","","",""
"","","","","","","","","","","","preload","74","418073","0.0-74.0","","","","","true","","","","","","","","","","","preload","","","1","1","false","[]","[]","[]","","","","","",""
"","","","","","","","","","","","canvas-keyboard-response","75","418375","0.0-75.0","null","null","","","","","","","","","","","","","","fixation","","","1","1","","","","","","","","","",""
"","","","","","","","","","","","canvas-keyboard-response","76","418678","0.0-76.0","null","null","","","","","","","","","","","","","","stimulus","","","1","1","","","","","","","","","",""
"","","","","","","","","","","","canvas-button-response","77","422664","0.0-77.0","3985","house","","","","","","","","","","","","","","perceptual","","","1","1","","","","","4","house","6","","1",""
"","","","","","","","","","","","canvas-button-response","78","423468","0.0-78.0","803","10","","","","","","","","","","","","","","confidence","","","1","1","","","","","","","","","","2"
"","","","","","","","","","","","html-keyboard-response","79","424471","0.0-79.0","null","null","","","","","","","","","","","","","","feedback","Tue Oct 14 2025 19:51:39 GMT-0400 (Eastern Daylight Time)","27796","1","1","","","","","","","","","",""
"","","","","","","","","","","","preload","80","424472","0.0-80.0","","","","","true","","","","","","","","","","","preload","","","1","2","false","[]","[]","[]","","","","","",""
"","","","","","","","","","","","canvas-keyboard-response","81","424774","0.0-81.0","null","null","","","","","","","","","","","","","","fixation","","","1","2","","","","","","","","","",""
"","","","","","","","","","","","canvas-keyboard-response","82","425077","0.0-82.0","null","null","","","","","","","","","","","","","","stimulus","","","1","2","","","","","","","","","",""
"","","","","","","","","","","","canvas-button-response","83","426464","0.0-83.0","1385","bed","","","","","","","","","","","","","","perceptual","","","1","2","","","","","34","bed","6","","1",""
"","","","","","","","","","","","canvas-button-response","84","427339","0.0-84.0","873","8","","","","","","","","","","","","","","confidence","","","1","2","","","","","","","","","","3"
"","","","","","","","","","","","html-keyboard-response","85","428341","0.0-85.0","null","null","","","","","","","","","","","","","","feedback","Tue Oct 14 2025 19:51:43 GMT-0400 (Eastern Daylight Time)","27796","1","2","","","","","","","","","",""
"","","","","","","","","","","","preload","86","428342","0.0-86.0","","","","","true","","","","","","","","","","","preload","","","1","3","false","[]","[]","[]","","","","","",""
"","","","","","","","","","","","canvas-keyboard-response","87","428645","0.0-87.0","null","null","","","","","","","","","","","","","","fixation","","","1","3","","","","","","","","","",""
"","","","","","","","","","","","canvas-keyboard-response","88","428947","0.0-88.0","null","null","","","","","","","","","","","","","","stimulus","","","1","3","","","","","","","","","",""
"","","","","","","","","","","","canvas-button-response","89","431922","0.0-89.0","2974","elephant","","","","","","","","","","","","","","perceptual","","","1","3","","","","","14","car","6","","0",""
"","","","","","","","","","","","canvas-button-response","90","432927","0.0-90.0","1003","4","","","","","","","","","","","","","","confidence","","","1","3","","","","","","","","","","3"
"","","","","","","","","","","","html-keyboard-response","91","433929","0.0-91.0","null","null","","","","","","","","","","","","","","feedback","Tue Oct 14 2025 19:51:49 GMT-0400 (Eastern Daylight Time)","27796","1","3","","","","","","","","","",""
"","","","","","","","","","","","preload","92","433930","0.0-92.0","","","","","true","","","","","","","","","","","preload","","","1","4","false","[]","[]","[]","","","","","",""
"","","","","","","","","","","","canvas-keyboard-response","93","434233","0.0-93.0","null","null","","","","","","","","","","","","","","fixation","","","1","4","","","","","","","","","",""
"","","","","","","","","","","","canvas-keyboard-response","94","434535","0.0-94.0","null","null","","","","","","","","","","","","","","stimulus","","","1","4","","","","","","","","","",""
"","","","","","","","","","","","canvas-button-response","95","437347","0.0-95.0","2810","flower","","","","","","","","","","","","","","perceptual","","","1","4","","","","","54","flower","6","","1",""
"","","","","","","","","","","","canvas-button-response","96","438014","0.0-96.0","666","6","","","","","","","","","","","","","","confidence","","","1","4","","","","","","","","","","4"
"","","","","","","","","","","","html-keyboard-response","97","439017","0.0-97.0","null","null","","","","","","","","","","","","","","feedback","Tue Oct 14 2025 19:51:54 GMT-0400 (Eastern Daylight Time)","27796","1","4","","","","","","","","","",""
"","","","","","","","","","","","preload","98","439018","0.0-98.0","","","","","true","","","","","","","","","","","preload","","","1","5","false","[]","[]","[]","","","","","",""
"","","","","","","","","","","","canvas-keyboard-response","99","439320","0.0-99.0","null","null","","","","","","","","","","","","","","fixation","","","1","5","","","","","","","","","",""
"","","","","","","","","","","","canvas-keyboard-response","100","439622","0.0-100.0","null","null","","","","","","","","","","","","","","stimulus","","","1","5","","","","","","","","","",""
"","","","","","","","","","","","canvas-button-response","101","441022","0.0-101.0","1398","knife","","","","","","","","","","","","","","perceptual","","","1","5","","","","","27","phone","10","","0",""
"","","","","","","","","","","","canvas-button-response","102","441639","0.0-102.0","615","4","","","","","","","","","","","","","","confidence","","","1","5","","","","","","","","","","4"
"","","","","","","","","","","","html-keyboard-response","103","442642","0.0-103.0","null","null","","","","","","","","","","","","","","feedback","Tue Oct 14 2025 19:51:57 GMT-0400 (Eastern Daylight Time)","27796","1","5","","","","","","","","","",""
"","","","","","","","","","","","preload","104","442643","0.0-104.0","","","","","true","","","","","","","","","","","preload","","","1","6","false","[]","[]","[]","","","","","",""
"","","","","","","","","","","","canvas-keyboard-response","105","442945","0.0-105.0","null","null","","","","","","","","","","","","","","fixation","","","1","6","","","","","","","","","",""
"","","","","","","","","","","","canvas-keyboard-response","106","443248","0.0-106.0","null","null","","","","","","","","","","","","","","stimulus","","","1","6","","","","","","","","","",""
"","","","","","","","","","","","canvas-button-response","107","444147","0.0-107.0","898","elephant","","","","","","","","","","","","","","perceptual","","","1","6","","","","","84","elephant","6","","1",""
"","","","","","","","","","","","canvas-button-response","108","445082","0.0-108.0","932","9","","","","","","","","","","","","","","confidence","","","1","6","","","","","","","","","","5"
"","","","","","","","","","","","html-keyboard-response","109","446085","0.0-109.0","null","null","","","","","","","","","","","","","","feedback","Tue Oct 14 2025 19:52:01 GMT-0400 (Eastern Daylight Time)","27796","1","6","","","","","","","","","",""
"","","","","","","","","","","","preload","110","446085","0.0-110.0","","","","","true","","","","","","","","","","","preload","","","1","7","false","[]","[]","[]","","","","","",""
"","","","","","","","","","","","canvas-keyboard-response","111","446388","0.0-111.0","null","null","","","","","","","","","","","","","","fixation","","","1","7","","","","","","","","","",""
"","","","","","","","","","","","canvas-keyboard-response","112","446691","0.0-112.0","null","null","","","","","","","","","","","","","","stimulus","","","1","7","","","","","","","","","",""
"","","","","","","","","","","","canvas-button-response","113","449314","0.0-113.0","2621","bed","","","","","","","","","","","","","","perceptual","","","1","7","","","","","74","cat","6","","0",""
"","","","","","","","","","","","canvas-button-response","114","450052","0.0-114.0","736","4","","","","","","","","","","","","","","confidence","","","1","7","","","","","","","","","","5"
"","","","","","","","","","","","html-keyboard-response","115","451054","0.0-115.0","null","null","","","","","","","","","","","","","","feedback","Tue Oct 14 2025 19:52:06 GMT-0400 (Eastern Daylight Time)","27796","1","7","","","","","","","","","",""
"","","","","","","","","","","","preload","116","451055","0.0-116.0","","","","","true","","","","","","","","","","","preload","","","1","8","false","[]","[]","[]","","","","","",""
"","","","","","","","","","","","canvas-keyboard-response","117","451358","0.0-117.0","null","null","","","","","","","","","","","","","","fixation","","","1","8","","","","","","","","","",""
"","","","","","","","","","","","canvas-keyboard-response","118","451661","0.0-118.0","null","null","","","","","","","","","","","","","","stimulus","","","1","8","","","","","","","","","",""
"","","","","","","","","","","","canvas-button-response","119","452539","0.0-119.0","877","phone","","","","","","","","","","","","","","perceptual","","","1","8","","","","","24","phone","6","","1",""
"","","","","","","","","","","","canvas-button-response","120","453644","0.0-120.0","1102","8","","","","","","","","","","","","","","confidence","","","1","8","","","","","","","","","","6"
"","","","","","","","","","","","html-keyboard-response","121","454646","0.0-121.0","null","null","","","","","","","","","","","","","","feedback","Tue Oct 14 2025 19:52:09 GMT-0400 (Eastern Daylight Time)","27796","1","8","","","","","","","","","",""
"","","","","","","","","","","","preload","122","454647","0.0-122.0","","","","","true","","","","","","","","","","","preload","","","1","9","false","[]","[]","[]","","","","","",""
"","","","","","","","","","","","canvas-keyboard-response","123","454950","0.0-123.0","null","null","","","","","","","","","","","","","","fixation","","","1","9","","","","","","","","","",""
"","","","","","","","","","","","canvas-keyboard-response","124","455252","0.0-124.0","null","null","","","","","","","","","","","","","","stimulus","","","1","9","","","","","","","","","",""
"","","","","","","","","","","","canvas-button-response","125","456635","0.0-125.0","1381","car","","","","","","","","","","","","","","perceptual","","","1","9","","","","","17","car","10","","1",""
"","","","","","","","","","","","canvas-button-response","126","457298","0.0-126.0","661","9","","","","","","","","","","","","","","confidence","","","1","9","","","","","","","","","","7"
"","","","","","","","","","","","html-keyboard-response","127","458301","0.0-127.0","null","null","","","","","","","","","","","","","","feedback","Tue Oct 14 2025 19:52:13 GMT-0400 (Eastern Daylight Time)","27796","1","9","","","","","","","","","",""
"","","","","","","","","","","","preload","128","458301","0.0-128.0","","","","","true","","","","","","","","","","","preload","","","1","10","false","[]","[]","[]","","","","","",""
"","","","","","","","","","","","canvas-keyboard-response","129","458604","0.0-129.0","null","null","","","","","","","","","","","","","","fixation","","","1","10","","","","","","","","","",""
"","","","","","","","","","","","canvas-keyboard-response","130","458907","0.0-130.0","null","null","","","","","","","","","","","","","","stimulus","","","1","10","","","","","","","","","",""
"","","","","","","","","","","","canvas-button-response","131","462964","0.0-131.0","4056","flower","","","","","","","","","","","","","","perceptual","","","1","10","","","","","77","cat","10","","0",""
"","","","","","","","","","","","canvas-button-response","132","464090","0.0-132.0","1124","8","","","","","","","","","","","","","","confidence","","","1","10","","","","","","","","","","7"
"","","","","","","","","","","","html-keyboard-response","133","465093","0.0-133.0","null","null","","","","","","","","","","","","","","feedback","Tue Oct 14 2025 19:52:20 GMT-0400 (Eastern Daylight Time)","27796","1","10","","","","","","","","","",""
"","","","","","","","","","","","preload","134","465094","0.0-134.0","","","","","true","","","","","","","","","","","preload","","","1","11","false","[]","[]","[]","","","","","",""
"","","","","","","","","","","","canvas-keyboard-response","135","465396","0.0-135.0","null","null","","","","","","","","","","","","","","fixation","","","1","11","","","","","","","","","",""
"","","","","","","","","","","","canvas-keyboard-response","136","465699","0.0-136.0","null","null","","","","","","","","","","","","","","stimulus","","","1","11","","","","","","","","","",""
"","","","","","","","","","","","canvas-button-response","137","468135","0.0-137.0","2434","flower","","","","","","","","","","","","","","perceptual","","","1","11","","","","","57","flower","10","","1",""
"","","","","","","","","","","","canvas-button-response","138","468918","0.0-138.0","782","10","","","","","","","","","","","","","","confidence","","","1","11","","","","","","","","","","8"
"","","","","","","","","","","","html-keyboard-response","139","469921","0.0-139.0","null","null","","","","","","","","","","","","","","feedback","Tue Oct 14 2025 19:52:25 GMT-0400 (Eastern Daylight Time)","27796","1","11","","","","","","","","","",""
"","","","","","","","","","","","preload","140","469922","0.0-140.0","","","","","true","","","","","","","","","","","preload","","","1","12","false","[]","[]","[]","","","","","",""
"","","","","","","","","","","","canvas-keyboard-response","141","470224","0.0-141.0","null","null","","","","","","","","","","","","","","fixation","","","1","12","","","","","","","","","",""
"","","","","","","","","","","","canvas-keyboard-response","142","470527","0.0-142.0","null","null","","","","","","","","","","","","","","stimulus","","","1","12","","","","","","","","","",""
"","","","","","","","","","","","canvas-button-response","143","471923","0.0-143.0","1394","train","","","","","","","","","","","","","","perceptual","","","1","12","","","","","47","bridge","10","","0",""
"","","","","","","","","","","","canvas-button-response","144","472440","0.0-144.0","515","9","","","","","","","","","","","","","","confidence","","","1","12","","","","","","","","","","8"
"","","","","","","","","","","","html-keyboard-response","145","473443","0.0-145.0","null","null","","","","","","","","","","","","","","feedback","Tue Oct 14 2025 19:52:28 GMT-0400 (Eastern Daylight Time)","27796","1","12","","","","","","","","","",""
"","","","","","","","","","","","preload","146","473444","0.0-146.0","","","","","true","","","","","","","","","","","preload","","","1","13","false","[]","[]","[]","","","","","",""
"","","","","","","","","","","","canvas-keyboard-response","147","473747","0.0-147.0","null","null","","","","","","","","","","","","","","fixation","","","1","13","","","","","","","","","",""
"","","","","","","","","","","","canvas-keyboard-response","148","474050","0.0-148.0","null","null","","","","","","","","","","","","","","stimulus","","","1","13","","","","","","","","","",""
"","","","","","","","","","","","canvas-button-response","149","475664","0.0-149.0","1613","car","","","","","","","","","","","","","","perceptual","","","1","13","","","","","37","bed","10","","0",""
"","","","","","","","","","","","canvas-button-response","150","476189","0.0-150.0","523","9","","","","","","","","","","","","","","confidence","","","1","13","","","","","","","","","","8"
"","","","","","","","","","","","html-keyboard-response","151","477192","0.0-151.0","null","null","","","","","","","","","","","","","","feedback","Tue Oct 14 2025 19:52:32 GMT-0400 (Eastern Daylight Time)","27796","1","13","","","","","","","","","",""
"","","","","","","","","","","","preload","152","477192","0.0-152.0","","","","","true","","","","","","","","","","","preload","","","1","14","false","[]","[]","[]","","","","","",""
"","","","","","","","","","","","canvas-keyboard-response","153","477495","0.0-153.0","null","null","","","","","","","","","","","","","","fixation","","","1","14","","","","","","","","","",""
"","","","","","","","","","","","canvas-keyboard-response","154","477798","0.0-154.0","null","null","","","","","","","","","","","","","","stimulus","","","1","14","","","","","","","","","",""
"","","","","","","","","","","","canvas-button-response","155","479477","0.0-155.0","1678","train","","","","","","","","","","","","","","perceptual","","","1","14","","","","","7","house","10","","0",""
"","","","","","","","","","","","canvas-button-response","156","480094","0.0-156.0","615","7","","","","","","","","","","","","","","confidence","","","1","14","","","","","","","","","","8"
"","","","","","","","","","","","html-keyboard-response","157","481097","0.0-157.0","null","null","","","","","","","","","","","","","","feedback","Tue Oct 14 2025 19:52:36 GMT-0400 (Eastern Daylight Time)","27796","1","14","","","","","","","","","",""
"","","","","","","","","","","","preload","158","481097","0.0-158.0","","","","","true","","","","","","","","","","","preload","","","1","15","false","[]","[]","[]","","","","","",""
"","","","","","","","","","","","canvas-keyboard-response","159","481400","0.0-159.0","null","null","","","","","","","","","","","","","","fixation","","","1","15","","","","","","","","","",""
"","","","","","","","","","","","canvas-keyboard-response","160","481703","0.0-160.0","null","null","","","","","","","","","","","","","","stimulus","","","1","15","","","","","","","","","",""
"","","","","","","","","","","","canvas-button-response","161","485673","0.0-161.0","3968","house","","","","","","","","","","","","","","perceptual","","","1","15","","","","","44","bridge","6","","0",""
"","","","","","","","","","","","canvas-button-response","162","486306","0.0-162.0","632","4","","","","","","","","","","","","","","confidence","","","1","15","","","","","","","","","","8"
"","","","","","","","","","","","html-keyboard-response","163","487309","0.0-163.0","null","null","","","","","","","","","","","","","","feedback","Tue Oct 14 2025 19:52:42 GMT-0400 (Eastern Daylight Time)","27796","1","15","","","","","","","","","",""
"","","","","","","","","","","","preload","164","487310","0.0-164.0","","","","","true","","","","","","","","","","","preload","","","1","16","false","[]","[]","[]","","","","","",""
"","","","","","","","","","","","canvas-keyboard-response","165","487613","0.0-165.0","null","null","","","","","","","","","","","","","","fixation","","","1","16","","","","","","","","","",""
"","","","","","","","","","","","canvas-keyboard-response","166","487915","0.0-166.0","null","null","","","","","","","","","","","","","","stimulus","","","1","16","","","","","","","","","",""
"","","","","","","","","","","","canvas-button-response","167","491231","0.0-167.0","3314","phone","","","","","","","","","","","","","","perceptual","","","1","16","","","","","94","knife","6","","0",""
"","","","","","","","","","","","canvas-button-response","168","491843","0.0-168.0","611","5","","","","","","","","","","","","","","confidence","","","1","16","","","","","","","","","","8"
"","","","","","","","","","","","html-keyboard-response","169","492846","0.0-169.0","null","null","","","","","","","","","","","","","","feedback","Tue Oct 14 2025 19:52:48 GMT-0400 (Eastern Daylight Time)","27796","1","16","","","","","","","","","",""
"","","","","","","","","","","","preload","170","492847","0.0-170.0","","","","","true","","","","","","","","","","","preload","","","1","17","false","[]","[]","[]","","","","","",""
"","","","","","","","","","","","canvas-keyboard-response","171","493150","0.0-171.0","null","null","","","","","","","","","","","","","","fixation","","","1","17","","","","","","","","","",""
"","","","","","","","","","","","canvas-keyboard-response","172","493452","0.0-172.0","null","null","","","","","","","","","","","","","","stimulus","","","1","17","","","","","","","","","",""
"","","","","","","","","","","","canvas-button-response","173","495786","0.0-173.0","2332","flower","","","","","","","","","","","","","","perceptual","","","1","17","","","","","87","elephant","10","","0",""
"","","","","","","","","","","","canvas-button-response","174","496494","0.0-174.0","706","4","","","","","","","","","","","","","","confidence","","","1","17","","","","","","","","","","8"
"","","","","","","","","","","","html-keyboard-response","175","497496","0.0-175.0","null","null","","","","","","","","","","","","","","feedback","Tue Oct 14 2025 19:52:52 GMT-0400 (Eastern Daylight Time)","27796","1","17","","","","","","","","","",""
"","","","","","","","","","","","preload","176","497497","0.0-176.0","","","","","true","","","","","","","","","","","preload","","","1","18","false","[]","[]","[]","","","","","",""
"","","","","","","","","","","","canvas-keyboard-response","177","497800","0.0-177.0","null","null","","","","","","","","","","","","","","fixation","","","1","18","","","","","","","","","",""
"","","","","","","","","","","","canvas-keyboard-response","178","498102","0.0-178.0","null","null","","","","","","","","","","","","","","stimulus","","","1","18","","","","","","","","","",""
"","","","","","","","","","","","canvas-button-response","179","499219","0.0-179.0","1114","knife","","","","","","","","","","","","","","perceptual","","","1","18","","","","","97","knife","10","","1",""
"","","","","","","","","","","","canvas-button-response","180","500052","0.0-180.0","832","10","","","","","","","","","","","","","","confidence","","","1","18","","","","","","","","","","9"
"","","","","","","","","","","","html-keyboard-response","181","501055","0.0-181.0","null","null","","","","","","","","","","","","","","feedback","Tue Oct 14 2025 19:52:56 GMT-0400 (Eastern Daylight Time)","27796","1","18","","","","","","","","","",""
"","","","","","","","","","","","preload","182","501056","0.0-182.0","","","","","true","","","","","","","","","","","preload","","","1","19","false","[]","[]","[]","","","","","",""
"","","","","","","","","","","","canvas-keyboard-response","183","501358","0.0-183.0","null","null","","","","","","","","","","","","","","fixation","","","1","19","","","","","","","","","",""
"","","","","","","","","","","","canvas-keyboard-response","184","501661","0.0-184.0","null","null","","","","","","","","","","","","","","stimulus","","","1","19","","","","","","","","","",""
"","","","","","","","","","","","canvas-button-response","185","502365","0.0-185.0","702","train","","","","","","","","","","","","","","perceptual","","","1","19","","","","","64","train","6","","1",""
"","","","","","","","","","","","canvas-button-response","186","502902","0.0-186.0","536","10","","","","","","","","","","","","","","confidence","","","1","19","","","","","","","","","","10"
"","","","","","","","","","","","html-keyboard-response","187","503905","0.0-187.0","null","null","","","","","","","","","","","","","","feedback","Tue Oct 14 2025 19:52:59 GMT-0400 (Eastern Daylight Time)","27796","1","19","","","","","","","","","",""
"","","","","","","","","","","","html-button-response","188","508823","0.0-188.0","4916","0","","","","","","","","","","","","","","start experiment","Tue Oct 14 2025 19:53:00 GMT-0400 (Eastern Daylight Time)","27796","1","19","","","","","","","","","",""
"","","","","","","","","","","","preload","189","508824","0.0-189.0","","","","","true","","","","","","","","","","","preload","","","2","0","false","[]","[]","[]","","","","","",""
"","","","","","","","","","","","canvas-keyboard-response","190","509126","0.0-190.0","null","null","","","","","","","","","","","","","","fixation","","","2","0","","","","","","","","","",""
"","","","","","","","","","","","canvas-keyboard-response","191","509428","0.0-191.0","null","null","","","","","","","","","","","","","","stimulus","","","2","0","","","","","","","","","",""
"","","","","","","","","","","","canvas-button-response","192","511048","0.0-192.0","1618","bridge","","","","","","","","","","","","","","perceptual","","","2","0","","","","","191","bridge","10","0","1",""
"","","","","","","","","","","","canvas-button-response","193","511548","0.0-193.0","498","5","","","","","","","","","","","","","","confidence","","","2","0","","","","","","","","","","1"
"","","","","","","","","","","","preload","194","511548","0.0-194.0","","","","","true","","","","","","","","","","","preload","","","2","1","false","[]","[]","[]","","","","","",""
"","","","","","","","","","","","canvas-keyboard-response","195","511851","0.0-195.0","null","null","","","","","","","","","","","","","","fixation","","","2","1","","","","","","","","","",""
"","","","","","","","","","","","canvas-keyboard-response","196","512154","0.0-196.0","null","null","","","","","","","","","","","","","","stimulus","","","2","1","","","","","","","","","",""
"","","","","","","","","","","","canvas-button-response","197","514790","0.0-197.0","2634","phone","","","","","","","","","","","","","","perceptual","","","2","1","","","","","144","bed","10","0","0",""
"","","","","","","","","","","","canvas-button-response","198","515498","0.0-198.0","706","5","","","","","","","","","","","","","","confidence","","","2","1","","","","","","","","","","1"
"","","","","","","","","","","","preload","199","515498","0.0-199.0","","","","","true","","","","","","","","","","","preload","","","2","2","false","[]","[]","[]","","","","","",""
"","","","","","","","","","","","canvas-keyboard-response","200","515801","0.0-200.0","null","null","","","","","","","","","","","","","","fixation","","","2","2","","","","","","","","","",""
"","","","","","","","","","","","canvas-keyboard-response","201","516102","0.0-201.0","null","null","","","","","","","","","","","","","","stimulus","","","2","2","","","","","","","","","",""
"","","","","","","","","","","","canvas-button-response","202","517669","0.0-202.0","1565","cat","","","","","","","","","","","","","","perceptual","","","2","2","","","","","321","elephant","6","0","0",""
"","","","","","","","","","","","canvas-button-response","203","518539","0.0-203.0","869","7","","","","","","","","","","","","","","confidence","","","2","2","","","","","","","","","","1"
"","","","","","","","","","","","preload","204","518540","0.0-204.0","","","","","true","","","","","","","","","","","preload","","","2","3","false","[]","[]","[]","","","","","",""
"","","","","","","","","","","","canvas-keyboard-response","205","518843","0.0-205.0","null","null","","","","","","","","","","","","","","fixation","","","2","3","","","","","","","","","",""
"","","","","","","","","","","","canvas-keyboard-response","206","519146","0.0-206.0","null","null","","","","","","","","","","","","","","stimulus","","","2","3","","","","","","","","","",""
"","","","","","","","","","","","canvas-button-response","207","524191","0.0-207.0","5043","train","","","","","","","","","","","","","","perceptual","","","2","3","","","","","233","flower","10","0","0",""
"","","","","","","","","","","","canvas-button-response","208","525010","0.0-208.0","818","7","","","","","","","","","","","","","","confidence","","","2","3","","","","","","","","","","1"
"","","","","","","","","","","","preload","209","525011","0.0-209.0","","","","","true","","","","","","","","","","","preload","","","2","4","false","[]","[]","[]","","","","","",""
"","","","","","","","","","","","canvas-keyboard-response","210","525313","0.0-210.0","null","null","","","","","","","","","","","","","","fixation","","","2","4","","","","","","","","","",""
"","","","","","","","","","","","canvas-keyboard-response","211","525615","0.0-211.0","null","null","","","","","","","","","","","","","","stimulus","","","2","4","","","","","","","","","",""
"","","","","","","","","","","","canvas-button-response","212","526536","0.0-212.0","919","car","","","","","","","","","","","","","","perceptual","","","2","4","","","","","67","car","10","0","1",""
"","","","","","","","","","","","canvas-button-response","213","527149","0.0-213.0","611","10","","","","","","","","","","","","","","confidence","","","2","4","","","","","","","","","","2"
"","","","","","","","","","","","preload","214","527149","0.0-214.0","","","","","true","","","","","","","","","","","preload","","","2","5","false","[]","[]","[]","","","","","",""
"","","","","","","","","","","","canvas-keyboard-response","215","527452","0.0-215.0","null","null","","","","","","","","","","","","","","fixation","","","2","5","","","","","","","","","",""
"","","","","","","","","","","","canvas-keyboard-response","216","527755","0.0-216.0","null","null","","","","","","","","","","","","","","stimulus","","","2","5","","","","","","","","","",""
"","","","","","","","","","","","canvas-button-response","217","528407","0.0-217.0","650","train","","","","","","","","","","","","","","perceptual","","","2","5","","","","","257","train","6","0","1",""
"","","","","","","","","","","","canvas-button-response","218","528869","0.0-218.0","461","10","","","","","","","","","","","","","","confidence","","","2","5","","","","","","","","","","3"
"","","","","","","","","","","","preload","219","528870","0.0-219.0","","","","","true","","","","","","","","","","","preload","","","2","6","false","[]","[]","[]","","","","","",""
"","","","","","","","","","","","canvas-keyboard-response","220","529171","0.0-220.0","null","null","","","","","","","","","","","","","","fixation","","","2","6","","","","","","","","","",""
"","","","","","","","","","","","canvas-keyboard-response","221","529474","0.0-221.0","null","null","","","","","","","","","","","","","","stimulus","","","2","6","","","","","","","","","",""
"","","","","","","","","","","","canvas-button-response","222","530156","0.0-222.0","681","elephant","","","","","","","","","","","","","","perceptual","","","2","6","","","","","329","elephant","6","0","1",""
"","","","","","","","","","","","canvas-button-response","223","530598","0.0-223.0","440","10","","","","","","","","","","","","","","confidence","","","2","6","","","","","","","","","","4"
"","","","","","","","","","","","preload","224","530599","0.0-224.0","","","","","true","","","","","","","","","","","preload","","","2","7","false","[]","[]","[]","","","","","",""
"","","","","","","","","","","","canvas-keyboard-response","225","530900","0.0-225.0","null","null","","","","","","","","","","","","","","fixation","","","2","7","","","","","","","","","",""
"","","","","","","","","","","","canvas-keyboard-response","226","531203","0.0-226.0","null","null","","","","","","","","","","","","","","stimulus","","","2","7","","","","","","","","","",""
"","","","","","","","","","","","canvas-button-response","227","533844","0.0-227.0","2639","flower","","","","","","","","","","","","","","perceptual","","","2","7","","","","","229","flower","10","0","1",""
"","","","","","","","","","","","canvas-button-response","228","534581","0.0-228.0","736","5","","","","","","","","","","","","","","confidence","","","2","7","","","","","","","","","","5"
"","","","","","","","","","","","preload","229","534582","0.0-229.0","","","","","true","","","","","","","","","","","preload","","","2","8","false","[]","[]","[]","","","","","",""
"","","","","","","","","","","","canvas-keyboard-response","230","534884","0.0-230.0","null","null","","","","","","","","","","","","","","fixation","","","2","8","","","","","","","","","",""
"","","","","","","","","","","","canvas-keyboard-response","231","535187","0.0-231.0","null","null","","","","","","","","","","","","","","stimulus","","","2","8","","","","","","","","","",""
"","","","","","","","","","","","canvas-button-response","232","536469","0.0-232.0","1280","bridge","","","","","","","","","","","","","","perceptual","","","2","8","","","","","114","phone","10","0","0",""
"","","","","","","","","","","","canvas-button-response","233","537140","0.0-233.0","670","7","","","","","","","","","","","","","","confidence","","","2","8","","","","","","","","","","5"
"","","","","","","","","","","","preload","234","537141","0.0-234.0","","","","","true","","","","","","","","","","","preload","","","2","9","false","[]","[]","[]","","","","","",""
"","","","","","","","","","","","canvas-keyboard-response","235","537443","0.0-235.0","null","null","","","","","","","","","","","","","","fixation","","","2","9","","","","","","","","","",""
"","","","","","","","","","","","canvas-keyboard-response","236","537745","0.0-236.0","null","null","","","","","","","","","","","","","","stimulus","","","2","9","","","","","","","","","",""
"","","","","","","","","","","","canvas-button-response","237","545131","0.0-237.0","7384","house","","","","","","","","","","","","","","perceptual","","","2","9","","","","","359","elephant","10","0","0",""
"","","","","","","","","","","","canvas-button-response","238","545665","0.0-238.0","532","6","","","","","","","","","","","","","","confidence","","","2","9","","","","","","","","","","5"
"","","","","","","","","","","","preload","239","545666","0.0-239.0","","","","","true","","","","","","","","","","","preload","","","2","10","false","[]","[]","[]","","","","","",""
"","","","","","","","","","","","canvas-keyboard-response","240","545967","0.0-240.0","null","null","","","","","","","","","","","","","","fixation","","","2","10","","","","","","","","","",""
"","","","","","","","","","","","canvas-keyboard-response","241","546270","0.0-241.0","null","null","","","","","","","","","","","","","","stimulus","","","2","10","","","","","","","","","",""
"","","","","","","","","","","","canvas-button-response","242","550007","0.0-242.0","3735","elephant","","","","","","","","","","","","","","perceptual","","","2","10","","","","","125","bed","6","0","0",""
"","","","","","","","","","","","canvas-button-response","243","550624","0.0-243.0","615","8","","","","","","","","","","","","","","confidence","","","2","10","","","","","","","","","","5"
"","","","","","","","","","","","preload","244","550625","0.0-244.0","","","","","true","","","","","","","","","","","preload","","","2","11","false","[]","[]","[]","","","","","",""
"","","","","","","","","","","","canvas-keyboard-response","245","550927","0.0-245.0","null","null","","","","","","","","","","","","","","fixation","","","2","11","","","","","","","","","",""
"","","","","","","","","","","","canvas-keyboard-response","246","551229","0.0-246.0","null","null","","","","","","","","","","","","","","stimulus","","","2","11","","","","","","","","","",""
"","","","","","","","","","","","canvas-button-response","247","553023","0.0-247.0","1792","cat","","","","","","","","","","","","","","perceptual","","","2","11","","","","","350","elephant","10","0","0",""
"","","","","","","","","","","","canvas-button-response","248","553773","0.0-248.0","749","6","","","","","","","","","","","","","","confidence","","","2","11","","","","","","","","","","5"
"","","","","","","","","","","","preload","249","553774","0.0-249.0","","","","","true","","","","","","","","","","","preload","","","2","12","false","[]","[]","[]","","","","","",""
"","","","","","","","","","","","canvas-keyboard-response","250","554076","0.0-250.0","null","null","","","","","","","","","","","","","","fixation","","","2","12","","","","","","","","","",""
"","","","","","","","","","","","canvas-keyboard-response","251","554379","0.0-251.0","null","null","","","","","","","","","","","","","","stimulus","","","2","12","","","","","","","","","",""
"","","","","","","","","","","","canvas-button-response","252","556515","0.0-252.0","2134","house","","","","","","","","","","","","","","perceptual","","","2","12","","","","","119","phone","10","0","0",""
"","","","","","","","","","","","canvas-button-response","253","557173","0.0-253.0","657","6","","","","","","","","","","","","","","confidence","","","2","12","","","","","","","","","","5"
"","","","","","","","","","","","preload","254","557174","0.0-254.0","","","","","true","","","","","","","","","","","preload","","","2","13","false","[]","[]","[]","","","","","",""
"","","","","","","","","","","","canvas-keyboard-response","255","557477","0.0-255.0","null","null","","","","","","","","","","","","","","fixation","","","2","13","","","","","","","","","",""
"","","","","","","","","","","","canvas-keyboard-response","256","557780","0.0-256.0","null","null","","","","","","","","","","","","","","stimulus","","","2","13","","","","","","","","","",""
"","","","","","","","","","","","canvas-button-response","257","563098","0.0-257.0","5316","elephant","","","","","","","","","","","","","","perceptual","","","2","13","","","","","31","house","10","0","0",""
"","","","","","","","","","","","canvas-button-response","258","564881","0.0-258.0","1782","6","","","","","","","","","","","","","","confidence","","","2","13","","","","","","","","","","5"
"","","","","","","","","","","","preload","259","564882","0.0-259.0","","","","","true","","","","","","","","","","","preload","","","2","14","false","[]","[]","[]","","","","","",""
"","","","","","","","","","","","canvas-keyboard-response","260","565184","0.0-260.0","null","null","","","","","","","","","","","","","","fixation","","","2","14","","","","","","","","","",""
"","","","","","","","","","","","canvas-keyboard-response","261","565486","0.0-261.0","null","null","","","","","","","","","","","","","","stimulus","","","2","14","","","","","","","","","",""
"","","","","","","","","","","","canvas-button-response","262","566540","0.0-262.0","1052","knife","","","","","","","","","","","","","","perceptual","","","2","14","","","","","374","knife","6","0","1",""
"","","","","","","","","","","","canvas-button-response","263","567969","0.0-263.0","1428","10","","","","","","","","","","","","","","confidence","","","2","14","","","","","","","","","","6"
"","","","","","","","","","","","preload","264","567970","0.0-264.0","","","","","true","","","","","","","","","","","preload","","","2","15","false","[]","[]","[]","","","","","",""
"","","","","","","","","","","","canvas-keyboard-response","265","568273","0.0-265.0","null","null","","","","","","","","","","","","","","fixation","","","2","15","","","","","","","","","",""
"","","","","","","","","","","","canvas-keyboard-response","266","568575","0.0-266.0","null","null","","","","","","","","","","","","","","stimulus","","","2","15","","","","","","","","","",""
"","","","","","","","","","","","canvas-button-response","267","570265","0.0-267.0","1689","knife","","","","","","","","","","","","","","perceptual","","","2","15","","","","","378","knife","6","0","1",""
"","","","","","","","","","","","canvas-button-response","268","570932","0.0-268.0","665","6","","","","","","","","","","","","","","confidence","","","2","15","","","","","","","","","","7"
"","","","","","","","","","","","preload","269","570932","0.0-269.0","","","","","true","","","","","","","","","","","preload","","","2","16","false","[]","[]","[]","","","","","",""
"","","","","","","","","","","","canvas-keyboard-response","270","571235","0.0-270.0","null","null","","","","","","","","","","","","","","fixation","","","2","16","","","","","","","","","",""
"","","","","","","","","","","","canvas-keyboard-response","271","571538","0.0-271.0","null","null","","","","","","","","","","","","","","stimulus","","","2","16","","","","","","","","","",""
"","","","","","","","","","","","canvas-button-response","272","583815","0.0-272.0","12275","flower","","","","","","","","","","","","","","perceptual","","","2","16","","","","","245","train","6","0","0",""
"","","","","","","","","","","","canvas-button-response","273","584374","0.0-273.0","557","6","","","","","","","","","","","","","","confidence","","","2","16","","","","","","","","","","7"
"","","","","","","","","","","","preload","274","584374","0.0-274.0","","","","","true","","","","","","","","","","","preload","","","2","17","false","[]","[]","[]","","","","","",""
"","","","","","","","","","","","canvas-keyboard-response","275","584677","0.0-275.0","null","null","","","","","","","","","","","","","","fixation","","","2","17","","","","","","","","","",""
"","","","","","","","","","","","canvas-keyboard-response","276","584978","0.0-276.0","null","null","","","","","","","","","","","","","","stimulus","","","2","17","","","","","","","","","",""
"","","","","","","","","","","","canvas-button-response","277","585743","0.0-277.0","764","car","","","","","","","","","","","","","","perceptual","","","2","17","","","","","72","car","10","0","1",""
"","","","","","","","","","","","canvas-button-response","278","586665","0.0-278.0","920","8","","","","","","","","","","","","","","confidence","","","2","17","","","","","","","","","","8"
"","","","","","","","","","","","preload","279","586666","0.0-279.0","","","","","true","","","","","","","","","","","preload","","","2","18","false","[]","[]","[]","","","","","",""
"","","","","","","","","","","","canvas-keyboard-response","280","586967","0.0-280.0","null","null","","","","","","","","","","","","","","fixation","","","2","18","","","","","","","","","",""
"","","","","","","","","","","","canvas-keyboard-response","281","587270","0.0-281.0","null","null","","","","","","","","","","","","","","stimulus","","","2","18","","","","","","","","","",""
"","","","","","","","","","","","canvas-button-response","282","588364","0.0-282.0","1093","bed","","","","","","","","","","","","","","perceptual","","","2","18","","","","","153","bed","10","0","1",""
"","","","","","","","","","","","canvas-button-response","283","589202","0.0-283.0","836","10","","","","","","","","","","","","","","confidence","","","2","18","","","","","","","","","","9"
"","","","","","","","","","","","preload","284","589203","0.0-284.0","","","","","true","","","","","","","","","","","preload","","","2","19","false","[]","[]","[]","","","","","",""
"","","","","","","","","","","","canvas-keyboard-response","285","589505","0.0-285.0","null","null","","","","","","","","","","","","","","fixation","","","2","19","","","","","","","","","",""
"","","","","","","","","","","","canvas-keyboard-response","286","589807","0.0-286.0","null","null","","","","","","","","","","","","","","stimulus","","","2","19","","","","","","","","","",""
"","","","","","","","","","","","canvas-button-response","287","590740","0.0-287.0","931","flower","","","","","","","","","","","","","","perceptual","","","2","19","","","","","213","flower","6","0","1",""
"","","","","","","","","","","","canvas-button-response","288","591499","0.0-288.0","757","10","","","","","","","","","","","","","","confidence","","","2","19","","","","","","","","","","10"
"","","","","","","","","","","","preload","289","591500","0.0-289.0","","","","","true","","","","","","","","","","","preload","","","2","20","false","[]","[]","[]","","","","","",""
"","","","","","","","","","","","canvas-keyboard-response","290","591802","0.0-290.0","null","null","","","","","","","","","","","","","","fixation","","","2","20","","","","","","","","","",""
"","","","","","","","","","","","canvas-keyboard-response","291","592104","0.0-291.0","null","null","","","","","","","","","","","","","","stimulus","","","2","20","","","","","","","","","",""
"","","","","","","","","","","","canvas-button-response","292","593511","0.0-292.0","1405","cat","","","","","","","","","","","","","","perceptual","","","2","20","","","","","313","cat","10","0","1",""
"","","","","","","","","","","","canvas-button-response","293","594519","0.0-293.0","1006","6","","","","","","","","","","","","","","confidence","","","2","20","","","","","","","","","","11"
"","","","","","","","","","","","preload","294","594520","0.0-294.0","","","","","true","","","","","","","","","","","preload","","","2","21","false","[]","[]","[]","","","","","",""
"","","","","","","","","","","","canvas-keyboard-response","295","594822","0.0-295.0","null","null","","","","","","","","","","","","","","fixation","","","2","21","","","","","","","","","",""
"","","","","","","","","","","","canvas-keyboard-response","296","595125","0.0-296.0","null","null","","","","","","","","","","","","","","stimulus","","","2","21","","","","","","","","","",""
"","","","","","","","","","","","canvas-button-response","297","596099","0.0-297.0","972","flower","","","","","","","","","","","","","","perceptual","","","2","21","","","","","205","flower","6","0","1",""
"","","","","","","","","","","","canvas-button-response","298","596849","0.0-298.0","748","10","","","","","","","","","","","","","","confidence","","","2","21","","","","","","","","","","12"
"","","","","","","","","","","","preload","299","596850","0.0-299.0","","","","","true","","","","","","","","","","","preload","","","2","22","false","[]","[]","[]","","","","","",""
"","","","","","","","","","","","canvas-keyboard-response","300","597152","0.0-300.0","null","null","","","","","","","","","","","","","","fixation","","","2","22","","","","","","","","","",""
"","","","","","","","","","","","canvas-keyboard-response","301","597454","0.0-301.0","null","null","","","","","","","","","","","","","","stimulus","","","2","22","","","","","","","","","",""
"","","","","","","","","","","","canvas-button-response","302","598998","0.0-302.0","1542","train","","","","","","","","","","","","","","perceptual","","","2","22","","","","","279","train","10","0","1",""
"","","","","","","","","","","","canvas-button-response","303","599590","0.0-303.0","590","6","","","","","","","","","","","","","","confidence","","","2","22","","","","","","","","","","13"
"","","","","","","","","","","","preload","304","599591","0.0-304.0","","","","","true","","","","","","","","","","","preload","","","2","23","false","[]","[]","[]","","","","","",""
"","","","","","","","","","","","canvas-keyboard-response","305","599893","0.0-305.0","null","null","","","","","","","","","","","","","","fixation","","","2","23","","","","","","","","","",""
"","","","","","","","","","","","canvas-keyboard-response","306","600195","0.0-306.0","null","null","","","","","","","","","","","","","","stimulus","","","2","23","","","","","","","","","",""
"","","","","","","","","","","","canvas-button-response","307","602585","0.0-307.0","2388","car","","","","","","","","","","","","","","perceptual","","","2","23","","","","","80","phone","6","0","0",""
"","","","","","","","","","","","canvas-button-response","308","603315","0.0-308.0","729","4","","","","","","","","","","","","","","confidence","","","2","23","","","","","","","","","","13"
"","","","","","","","","","","","preload","309","603316","0.0-309.0","","","","","true","","","","","","","","","","","preload","","","2","24","false","[]","[]","[]","","","","","",""
"","","","","","","","","","","","canvas-keyboard-response","310","603618","0.0-310.0","null","null","","","","","","","","","","","","","","fixation","","","2","24","","","","","","","","","",""
"","","","","","","","","","","","canvas-keyboard-response","311","603920","0.0-311.0","null","null","","","","","","","","","","","","","","stimulus","","","2","24","","","","","","","","","",""
"","","","","","","","","","","","canvas-button-response","312","604698","0.0-312.0","776","train","","","","","","","","","","","","","","perceptual","","","2","24","","","","","264","train","10","0","1",""
"","","","","","","","","","","","canvas-button-response","313","605249","0.0-313.0","549","10","","","","","","","","","","","","","","confidence","","","2","24","","","","","","","","","","14"
"","","","","","","","","","","","preload","314","605249","0.0-314.0","","","","","true","","","","","","","","","","","preload","","","2","25","false","[]","[]","[]","","","","","",""
"","","","","","","","","","","","canvas-keyboard-response","315","605551","0.0-315.0","null","null","","","","","","","","","","","","","","fixation","","","2","25","","","","","","","","","",""
"","","","","","","","","","","","canvas-keyboard-response","316","605853","0.0-316.0","null","null","","","","","","","","","","","","","","stimulus","","","2","25","","","","","","","","","",""
"","","","","","","","","","","","canvas-button-response","317","606890","0.0-317.0","1035","cat","","","","","","","","","","","","","","perceptual","","","2","25","","","","","148","bed","10","0","0",""
"","","","","","","","","","","","canvas-button-response","318","607365","0.0-318.0","474","6","","","","","","","","","","","","","","confidence","","","2","25","","","","","","","","","","14"
"","","","","","","","","","","","preload","319","607366","0.0-319.0","","","","","true","","","","","","","","","","","preload","","","2","26","false","[]","[]","[]","","","","","",""
"","","","","","","","","","","","canvas-keyboard-response","320","607668","0.0-320.0","null","null","","","","","","","","","","","","","","fixation","","","2","26","","","","","","","","","",""
"","","","","","","","","","","","canvas-keyboard-response","321","607970","0.0-321.0","null","null","","","","","","","","","","","","","","stimulus","","","2","26","","","","","","","","","",""
"","","","","","","","","","","","canvas-button-response","322","608899","0.0-322.0","927","phone","","","","","","","","","","","","","","perceptual","","","2","26","","","","","95","phone","6","0","1",""
"","","","","","","","","","","","canvas-button-response","323","609449","0.0-323.0","548","8","","","","","","","","","","","","","","confidence","","","2","26","","","","","","","","","","15"
"","","","","","","","","","","","preload","324","609449","0.0-324.0","","","","","true","","","","","","","","","","","preload","","","2","27","false","[]","[]","[]","","","","","",""
"","","","","","","","","","","","canvas-keyboard-response","325","609752","0.0-325.0","null","null","","","","","","","","","","","","","","fixation","","","2","27","","","","","","","","","",""
"","","","","","","","","","","","canvas-keyboard-response","326","610055","0.0-326.0","null","null","","","","","","","","","","","","","","stimulus","","","2","27","","","","","","","","","",""
"","","","","","","","","","","","canvas-button-response","327","611181","0.0-327.0","1125","knife","","","","","","","","","","","","","","perceptual","","","2","27","","","","","367","knife","6","0","1",""
"","","","","","","","","","","","canvas-button-response","328","611732","0.0-328.0","549","7","","","","","","","","","","","","","","confidence","","","2","27","","","","","","","","","","16"
"","","","","","","","","","","","preload","329","611732","0.0-329.0","","","","","true","","","","","","","","","","","preload","","","2","28","false","[]","[]","[]","","","","","",""
"","","","","","","","","","","","canvas-keyboard-response","330","612035","0.0-330.0","null","null","","","","","","","","","","","","","","fixation","","","2","28","","","","","","","","","",""
"","","","","","","","","","","","canvas-keyboard-response","331","612336","0.0-331.0","null","null","","","","","","","","","","","","","","stimulus","","","2","28","","","","","","","","","",""
"","","","","","","","","","","","canvas-button-response","332","614307","0.0-332.0","1969","cat","","","","","","","","","","","","","","perceptual","","","2","28","","","","","79","car","10","0","0",""
"","","","","","","","","","","","canvas-button-response","333","616148","0.0-333.0","1840","8","","","","","","","","","","","","","","confidence","","","2","28","","","","","","","","","","16"
"","","","","","","","","","","","preload","334","616149","0.0-334.0","","","","","true","","","","","","","","","","","preload","","","2","29","false","[]","[]","[]","","","","","",""
"","","","","","","","","","","","canvas-keyboard-response","335","616451","0.0-335.0","null","null","","","","","","","","","","","","","","fixation","","","2","29","","","","","","","","","",""
"","","","","","","","","","","","canvas-keyboard-response","336","616753","0.0-336.0","null","null","","","","","","","","","","","","","","stimulus","","","2","29","","","","","","","","","",""
"","","","","","","","","","","","canvas-button-response","337","618470","0.0-337.0","1715","flower","","","","","","","","","","","","","","perceptual","","","2","29","","","","","204","flower","6","0","1",""
"","","","","","","","","","","","canvas-button-response","338","619665","0.0-338.0","1194","10","","","","","","","","","","","","","","confidence","","","2","29","","","","","","","","","","17"
"","","","","","","","","","","","preload","339","619666","0.0-339.0","","","","","true","","","","","","","","","","","preload","","","2","30","false","[]","[]","[]","","","","","",""
"","","","","","","","","","","","canvas-keyboard-response","340","619967","0.0-340.0","null","null","","","","","","","","","","","","","","fixation","","","2","30","","","","","","","","","",""
"","","","","","","","","","","","canvas-keyboard-response","341","620270","0.0-341.0","null","null","","","","","","","","","","","","","","stimulus","","","2","30","","","","","","","","","",""
"","","","","","","","","","","","canvas-button-response","342","621498","0.0-342.0","1227","car","","","","","","","","","","","","","","perceptual","","","2","30","","","","","73","car","10","0","1",""
"","","","","","","","","","","","canvas-button-response","343","622389","0.0-343.0","890","7","","","","","","","","","","","","","","confidence","","","2","30","","","","","","","","","","18"
"","","","","","","","","","","","preload","344","622390","0.0-344.0","","","","","true","","","","","","","","","","","preload","","","2","31","false","[]","[]","[]","","","","","",""
"","","","","","","","","","","","canvas-keyboard-response","345","622691","0.0-345.0","null","null","","","","","","","","","","","","","","fixation","","","2","31","","","","","","","","","",""
"","","","","","","","","","","","canvas-keyboard-response","346","622994","0.0-346.0","null","null","","","","","","","","","","","","","","stimulus","","","2","31","","","","","","","","","",""
"","","","","","","","","","","","canvas-button-response","347","635578","0.0-347.0","12582","elephant","","","","","","","","","","","","","","perceptual","","","2","31","","","","","344","elephant","10","0","1",""
"","","","","","","","","","","","canvas-button-response","348","636353","0.0-348.0","773","9","","","","","","","","","","","","","","confidence","","","2","31","","","","","","","","","","19"
"","","","","","","","","","","","preload","349","636354","0.0-349.0","","","","","true","","","","","","","","","","","preload","","","2","32","false","[]","[]","[]","","","","","",""
"","","","","","","","","","","","canvas-keyboard-response","350","636655","0.0-350.0","null","null","","","","","","","","","","","","","","fixation","","","2","32","","","","","","","","","",""
"","","","","","","","","","","","canvas-keyboard-response","351","636956","0.0-351.0","null","null","","","","","","","","","","","","","","stimulus","","","2","32","","","","","","","","","",""
"","","","","","","","","","","","canvas-button-response","352","645357","0.0-352.0","8398","knife","","","","","","","","","","","","","","perceptual","","","2","32","","","","","9","house","6","0","0",""
"","","","","","","","","","","","canvas-button-response","353","646265","0.0-353.0","906","8","","","","","","","","","","","","","","confidence","","","2","32","","","","","","","","","","19"
"","","","","","","","","","","","preload","354","646265","0.0-354.0","","","","","true","","","","","","","","","","","preload","","","2","33","false","[]","[]","[]","","","","","",""
"","","","","","","","","","","","canvas-keyboard-response","355","646568","0.0-355.0","null","null","","","","","","","","","","","","","","fixation","","","2","33","","","","","","","","","",""
"","","","","","","","","","","","canvas-keyboard-response","356","646870","0.0-356.0","null","null","","","","","","","","","","","","","","stimulus","","","2","33","","","","","","","","","",""
"","","","","","","","","","","","canvas-button-response","357","650873","0.0-357.0","4001","elephant","","","","","","","","","","","","","","perceptual","","","2","33","","","","","392","knife","10","0","0",""
"","","","","","","","","","","","canvas-button-response","358","651603","0.0-358.0","728","5","","","","","","","","","","","","","","confidence","","","2","33","","","","","","","","","","19"
"","","","","","","","","","","","preload","359","651603","0.0-359.0","","","","","true","","","","","","","","","","","preload","","","2","34","false","[]","[]","[]","","","","","",""
"","","","","","","","","","","","canvas-keyboard-response","360","651905","0.0-360.0","null","null","","","","","","","","","","","","","","fixation","","","2","34","","","","","","","","","",""
"","","","","","","","","","","","canvas-keyboard-response","361","652208","0.0-361.0","null","null","","","","","","","","","","","","","","stimulus","","","2","34","","","","","","","","","",""
"","","","","","","","","","","","canvas-button-response","362","653648","0.0-362.0","1438","cat","","","","","","","","","","","","","","perceptual","","","2","34","","","","","309","cat","10","0","1",""
"","","","","","","","","","","","canvas-button-response","363","654349","0.0-363.0","699","5","","","","","","","","","","","","","","confidence","","","2","34","","","","","","","","","","20"
"","","","","","","","","","","","preload","364","654350","0.0-364.0","","","","","true","","","","","","","","","","","preload","","","2","35","false","[]","[]","[]","","","","","",""
"","","","","","","","","","","","canvas-keyboard-response","365","654652","0.0-365.0","null","null","","","","","","","","","","","","","","fixation","","","2","35","","","","","","","","","",""
"","","","","","","","","","","","canvas-keyboard-response","366","654954","0.0-366.0","null","null","","","","","","","","","","","","","","stimulus","","","2","35","","","","","","","","","",""
"","","","","","","","","","","","canvas-button-response","367","655665","0.0-367.0","709","train","","","","","","","","","","","","","","perceptual","","","2","35","","","","","255","train","6","0","1",""
"","","","","","","","","","","","canvas-button-response","368","656332","0.0-368.0","665","10","","","","","","","","","","","","","","confidence","","","2","35","","","","","","","","","","21"
"","","","","","","","","","","","preload","369","656333","0.0-369.0","","","","","true","","","","","","","","","","","preload","","","2","36","false","[]","[]","[]","","","","","",""
"","","","","","","","","","","","canvas-keyboard-response","370","656635","0.0-370.0","null","null","","","","","","","","","","","","","","fixation","","","2","36","","","","","","","","","",""
"","","","","","","","","","","","canvas-keyboard-response","371","656937","0.0-371.0","null","null","","","","","","","","","","","","","","stimulus","","","2","36","","","","","","","","","",""
"","","","","","","","","","","","canvas-button-response","372","657916","0.0-372.0","977","knife","","","","","","","","","","","","","","perceptual","","","2","36","","","","","391","knife","10","0","1",""
"","","","","","","","","","","","canvas-button-response","373","658949","0.0-373.0","1031","5","","","","","","","","","","","","","","confidence","","","2","36","","","","","","","","","","22"
"","","","","","","","","","","","preload","374","658950","0.0-374.0","","","","","true","","","","","","","","","","","preload","","","2","37","false","[]","[]","[]","","","","","",""
"","","","","","","","","","","","canvas-keyboard-response","375","659252","0.0-375.0","null","null","","","","","","","","","","","","","","fixation","","","2","37","","","","","","","","","",""
"","","","","","","","","","","","canvas-keyboard-response","376","659555","0.0-376.0","null","null","","","","","","","","","","","","","","stimulus","","","2","37","","","","","","","","","",""
"","","","","","","","","","","","canvas-button-response","377","661049","0.0-377.0","1492","train","","","","","","","","","","","","","","perceptual","","","2","37","","","","","275","train","10","0","1",""
"","","","","","","","","","","","canvas-button-response","378","661815","0.0-378.0","764","5","","","","","","","","","","","","","","confidence","","","2","37","","","","","","","","","","23"
"","","","","","","","","","","","preload","379","661816","0.0-379.0","","","","","true","","","","","","","","","","","preload","","","2","38","false","[]","[]","[]","","","","","",""
"","","","","","","","","","","","canvas-keyboard-response","380","662119","0.0-380.0","null","null","","","","","","","","","","","","","","fixation","","","2","38","","","","","","","","","",""
"","","","","","","","","","","","canvas-keyboard-response","381","662421","0.0-381.0","null","null","","","","","","","","","","","","","","stimulus","","","2","38","","","","","","","","","",""
"","","","","","","","","","","","canvas-button-response","382","663149","0.0-382.0","726","knife","","","","","","","","","","","","","","perceptual","","","2","38","","","","","366","knife","6","0","1",""
"","","","","","","","","","","","canvas-button-response","383","663832","0.0-383.0","682","10","","","","","","","","","","","","","","confidence","","","2","38","","","","","","","","","","24"
"","","","","","","","","","","","preload","384","663833","0.0-384.0","","","","","true","","","","","","","","","","","preload","","","2","39","false","[]","[]","[]","","","","","",""
"","","","","","","","","","","","canvas-keyboard-response","385","664135","0.0-385.0","null","null","","","","","","","","","","","","","","fixation","","","2","39","","","","","","","","","",""
"","","","","","","","","","","","canvas-keyboard-response","386","664436","0.0-386.0","null","null","","","","","","","","","","","","","","stimulus","","","2","39","","","","","","","","","",""
"","","","","","","","","","","","canvas-button-response","387","667835","0.0-387.0","3397","car","","","","","","","","","","","","","","perceptual","","","2","39","","","","","363","knife","6","0","0",""
"","","","","","","","","","","","canvas-button-response","388","668515","0.0-388.0","679","5","","","","","","","","","","","","","","confidence","","","2","39","","","","","","","","","","24"
"","","","","","","","","","","","preload","389","668516","0.0-389.0","","","","","true","","","","","","","","","","","preload","","","2","40","false","[]","[]","[]","","","","","",""
"","","","","","","","","","","","canvas-keyboard-response","390","668818","0.0-390.0","null","null","","","","","","","","","","","","","","fixation","","","2","40","","","","","","","","","",""
"","","","","","","","","","","","canvas-keyboard-response","391","669120","0.0-391.0","null","null","","","","","","","","","","","","","","stimulus","","","2","40","","","","","","","","","",""
"","","","","","","","","","","","canvas-button-response","392","674057","0.0-392.0","4935","car","","","","","","","","","","","","","","perceptual","","","2","40","","","","","8","house","6","0","0",""
"","","","","","","","","","","","canvas-button-response","393","674598","0.0-393.0","540","5","","","","","","","","","","","","","","confidence","","","2","40","","","","","","","","","","24"
"","","","","","","","","","","","preload","394","674599","0.0-394.0","","","","","true","","","","","","","","","","","preload","","","2","41","false","[]","[]","[]","","","","","",""
"","","","","","","","","","","","canvas-keyboard-response","395","674901","0.0-395.0","null","null","","","","","","","","","","","","","","fixation","","","2","41","","","","","","","","","",""
"","","","","","","","","","","","canvas-keyboard-response","396","675205","0.0-396.0","null","null","","","","","","","","","","","","","","stimulus","","","2","41","","","","","","","","","",""
"","","","","","","","","","","","canvas-button-response","397","676315","0.0-397.0","1109","flower","","","","","","","","","","","","","","perceptual","","","2","41","","","","","227","flower","10","0","1",""
"","","","","","","","","","","","canvas-button-response","398","677191","0.0-398.0","874","7","","","","","","","","","","","","","","confidence","","","2","41","","","","","","","","","","25"
"","","","","","","","","","","","preload","399","677191","0.0-399.0","","","","","true","","","","","","","","","","","preload","","","2","42","false","[]","[]","[]","","","","","",""
"","","","","","","","","","","","canvas-keyboard-response","400","677494","0.0-400.0","null","null","","","","","","","","","","","","","","fixation","","","2","42","","","","","","","","","",""
"","","","","","","","","","","","canvas-keyboard-response","401","677796","0.0-401.0","null","null","","","","","","","","","","","","","","stimulus","","","2","42","","","","","","","","","",""
"","","","","","","","","","","","canvas-button-response","402","678469","0.0-402.0","672","car","","","","","","","","","","","","","","perceptual","","","2","42","","","","","64","car","10","0","1",""
"","","","","","","","","","","","canvas-button-response","403","679183","0.0-403.0","711","10","","","","","","","","","","","","","","confidence","","","2","42","","","","","","","","","","26"
"","","","","","","","","","","","preload","404","679183","0.0-404.0","","","","","true","","","","","","","","","","","preload","","","2","43","false","[]","[]","[]","","","","","",""
"","","","","","","","","","","","canvas-keyboard-response","405","679486","0.0-405.0","null","null","","","","","","","","","","","","","","fixation","","","2","43","","","","","","","","","",""
"","","","","","","","","","","","canvas-keyboard-response","406","679788","0.0-406.0","null","null","","","","","","","","","","","","","","stimulus","","","2","43","","","","","","","","","",""
"","","","","","","","","","","","canvas-button-response","407","681403","0.0-407.0","1612","flower","","","","","","","","","","","","","","perceptual","","","2","43","","","","","158","bed","10","0","0",""
"","","","","","","","","","","","canvas-button-response","408","682066","0.0-408.0","661","5","","","","","","","","","","","","","","confidence","","","2","43","","","","","","","","","","26"
"","","","","","","","","","","","preload","409","682066","0.0-409.0","","","","","true","","","","","","","","","","","preload","","","2","44","false","[]","[]","[]","","","","","",""
"","","","","","","","","","","","canvas-keyboard-response","410","682369","0.0-410.0","null","null","","","","","","","","","","","","","","fixation","","","2","44","","","","","","","","","",""
"","","","","","","","","","","","canvas-keyboard-response","411","682672","0.0-411.0","null","null","","","","","","","","","","","","","","stimulus","","","2","44","","","","","","","","","",""
"","","","","","","","","","","","canvas-button-response","412","683432","0.0-412.0","759","phone","","","","","","","","","","","","","","perceptual","","","2","44","","","","","118","phone","10","0","1",""
"","","","","","","","","","","","canvas-button-response","413","684586","0.0-413.0","1152","5","","","","","","","","","","","","","","confidence","","","2","44","","","","","","","","","","27"
"","","","","","","","","","","","preload","414","684587","0.0-414.0","","","","","true","","","","","","","","","","","preload","","","2","45","false","[]","[]","[]","","","","","",""
"","","","","","","","","","","","canvas-keyboard-response","415","684889","0.0-415.0","null","null","","","","","","","","","","","","","","fixation","","","2","45","","","","","","","","","",""
"","","","","","","","","","","","canvas-keyboard-response","416","685191","0.0-416.0","null","null","","","","","","","","","","","","","","stimulus","","","2","45","","","","","","","","","",""
"","","","","","","","","","","","canvas-button-response","417","686815","0.0-417.0","1622","cat","","","","","","","","","","","","","","perceptual","","","2","45","","","","","355","elephant","10","0","0",""
"","","","","","","","","","","","canvas-button-response","418","687324","0.0-418.0","507","7","","","","","","","","","","","","","","confidence","","","2","45","","","","","","","","","","27"
"","","","","","","","","","","","preload","419","687325","0.0-419.0","","","","","true","","","","","","","","","","","preload","","","2","46","false","[]","[]","[]","","","","","",""
"","","","","","","","","","","","canvas-keyboard-response","420","687627","0.0-420.0","null","null","","","","","","","","","","","","","","fixation","","","2","46","","","","","","","","","",""
"","","","","","","","","","","","canvas-keyboard-response","421","687929","0.0-421.0","null","null","","","","","","","","","","","","","","stimulus","","","2","46","","","","","","","","","",""
"","","","","","","","","","","","canvas-button-response","422","689666","0.0-422.0","1735","phone","","","","","","","","","","","","","","perceptual","","","2","46","","","","","375","knife","6","0","0",""
"","","","","","","","","","","","canvas-button-response","423","690482","0.0-423.0","815","5","","","","","","","","","","","","","","confidence","","","2","46","","","","","","","","","","27"
"","","","","","","","","","","","preload","424","690483","0.0-424.0","","","","","true","","","","","","","","","","","preload","","","2","47","false","[]","[]","[]","","","","","",""
"","","","","","","","","","","","canvas-keyboard-response","425","690785","0.0-425.0","null","null","","","","","","","","","","","","","","fixation","","","2","47","","","","","","","","","",""
"","","","","","","","","","","","canvas-keyboard-response","426","691088","0.0-426.0","null","null","","","","","","","","","","","","","","stimulus","","","2","47","","","","","","","","","",""
"","","","","","","","","","","","canvas-button-response","427","692066","0.0-427.0","976","phone","","","","","","","","","","","","","","perceptual","","","2","47","","","","","96","phone","6","0","1",""
"","","","","","","","","","","","canvas-button-response","428","692666","0.0-428.0","598","7","","","","","","","","","","","","","","confidence","","","2","47","","","","","","","","","","28"
"","","","","","","","","","","","preload","429","692666","0.0-429.0","","","","","true","","","","","","","","","","","preload","","","2","48","false","[]","[]","[]","","","","","",""
"","","","","","","","","","","","canvas-keyboard-response","430","692968","0.0-430.0","null","null","","","","","","","","","","","","","","fixation","","","2","48","","","","","","","","","",""
"","","","","","","","","","","","canvas-keyboard-response","431","693271","0.0-431.0","null","null","","","","","","","","","","","","","","stimulus","","","2","48","","","","","","","","","",""
"","","","","","","","","","","","canvas-button-response","432","693919","0.0-432.0","647","car","","","","","","","","","","","","","","perceptual","","","2","48","","","","","46","car","6","0","1",""
"","","","","","","","","","","","canvas-button-response","433","694632","0.0-433.0","711","10","","","","","","","","","","","","","","confidence","","","2","48","","","","","","","","","","29"
"","","","","","","","","","","","preload","434","694632","0.0-434.0","","","","","true","","","","","","","","","","","preload","","","2","49","false","[]","[]","[]","","","","","",""
"","","","","","","","","","","","canvas-keyboard-response","435","694934","0.0-435.0","null","null","","","","","","","","","","","","","","fixation","","","2","49","","","","","","","","","",""
"","","","","","","","","","","","canvas-keyboard-response","436","695237","0.0-436.0","null","null","","","","","","","","","","","","","","stimulus","","","2","49","","","","","","","","","",""
"","","","","","","","","","","","canvas-button-response","437","696753","0.0-437.0","1514","bridge","","","","","","","","","","","","","","perceptual","","","2","49","","","","","13","house","6","0","0",""
"","","","","","","","","","","","canvas-button-response","438","697352","0.0-438.0","598","5","","","","","","","","","","","","","","confidence","","","2","49","","","","","","","","","","29"
"","","","","","","","","","","","html-button-response","439","713391","0.0-439.0","16036","0","","","","","","","","","","","","","","<p style=""font-size:20px;color:#000000"">You got 29 out of 50 trials correct in this block.<br><br>You have completed 6% of the experiment.<br><br>Take a short break.<br><br>When you are ready, click Continue to proceed.","","","2","49","","","","","","","","","",""
"","","","","","","","","","","","html-keyboard-response","440","714394","0.0-440.0","null","null","","","","","","","","","","","","","","<p style=""font-size:32px;color:#000000""><br><br> RUN: &nbsp 1/4 <br><br> BLOCK: 2/4 ","","","2","49","","","","","","","","","",""
"","","","","","","","","","","","preload","441","714395","0.0-441.0","","","","","true","","","","","","","","","","","preload","","","2","50","false","[]","[]","[]","","","","","",""
"","","","","","","","","","","","canvas-keyboard-response","442","714698","0.0-442.0","null","null","","","","","","","","","","","","","","fixation","","","2","50","","","","","","","","","",""
"","","","","","","","","","","","canvas-keyboard-response","443","715000","0.0-443.0","null","null","","","","","","","","","","","","","","stimulus","","","2","50","","","","","","","","","",""
"","","","","","","","","","","","canvas-button-response","444","715977","0.0-444.0","975","elephant","","","","","","","","","","","","","","perceptual","","","2","50","","","","","336","elephant","6","0","1",""
"","","","","","","","","","","","canvas-button-response","445","717020","0.0-445.0","1042","10","","","","","","","","","","","","","","confidence","","","2","50","","","","","","","","","","1"
"","","","","","","","","","","","preload","446","717020","0.0-446.0","","","","","true","","","","","","","","","","","preload","","","2","51","false","[]","[]","[]","","","","","",""
"","","","","","","","","","","","canvas-keyboard-response","447","717322","0.0-447.0","null","null","","","","","","","","","","","","","","fixation","","","2","51","","","","","","","","","",""
"","","","","","","","","","","","canvas-keyboard-response","448","717623","0.0-448.0","null","null","","","","","","","","","","","","","","stimulus","","","2","51","","","","","","","","","",""
"","","","","","","","","","","","canvas-button-response","449","718503","0.0-449.0","879","flower","","","","","","","","","","","","","","perceptual","","","2","51","","","","","230","flower","10","0","1",""
"","","","","","","","","","","","canvas-button-response","450","719218","0.0-450.0","714","10","","","","","","","","","","","","","","confidence","","","2","51","","","","","","","","","","2"
"","","","","","","","","","","","preload","451","719219","0.0-451.0","","","","","true","","","","","","","","","","","preload","","","2","52","false","[]","[]","[]","","","","","",""
"","","","","","","","","","","","canvas-keyboard-response","452","719520","0.0-452.0","null","null","","","","","","","","","","","","","","fixation","","","2","52","","","","","","","","","",""
"","","","","","","","","","","","canvas-keyboard-response","453","719822","0.0-453.0","null","null","","","","","","","","","","","","","","stimulus","","","2","52","","","","","","","","","",""
"","","","","","","","","","","","canvas-button-response","454","722111","0.0-454.0","2287","phone","","","","","","","","","","","","","","perceptual","","","2","52","","","","","84","phone","6","0","1",""
"","","","","","","","","","","","canvas-button-response","455","722803","0.0-455.0","690","5","","","","","","","","","","","","","","confidence","","","2","52","","","","","","","","","","3"
"","","","","","","","","","","","preload","456","722804","0.0-456.0","","","","","true","","","","","","","","","","","preload","","","2","53","false","[]","[]","[]","","","","","",""
"","","","","","","","","","","","canvas-keyboard-response","457","723106","0.0-457.0","null","null","","","","","","","","","","","","","","fixation","","","2","53","","","","","","","","","",""
"","","","","","","","","","","","canvas-keyboard-response","458","723408","0.0-458.0","null","null","","","","","","","","","","","","","","stimulus","","","2","53","","","","","","","","","",""
"","","","","","","","","","","","canvas-button-response","459","724136","0.0-459.0","726","phone","","","","","","","","","","","","","","perceptual","","","2","53","","","","","86","phone","6","0","1",""
"","","","","","","","","","","","canvas-button-response","460","724916","0.0-460.0","778","10","","","","","","","","","","","","","","confidence","","","2","53","","","","","","","","","","4"
"","","","","","","","","","","","preload","461","724917","0.0-461.0","","","","","true","","","","","","","","","","","preload","","","2","54","false","[]","[]","[]","","","","","",""
"","","","","","","","","","","","canvas-keyboard-response","462","725219","0.0-462.0","null","null","","","","","","","","","","","","","","fixation","","","2","54","","","","","","","","","",""
"","","","","","","","","","","","canvas-keyboard-response","463","725521","0.0-463.0","null","null","","","","","","","","","","","","","","stimulus","","","2","54","","","","","","","","","",""
"","","","","","","","","","","","canvas-button-response","464","732307","0.0-464.0","6784","cat","","","","","","","","","","","","","","perceptual","","","2","54","","","","","200","flower","6","0","0",""
"","","","","","","","","","","","canvas-button-response","465","733774","0.0-465.0","1465","9","","","","","","","","","","","","","","confidence","","","2","54","","","","","","","","","","4"
"","","","","","","","","","","","preload","466","733775","0.0-466.0","","","","","true","","","","","","","","","","","preload","","","2","55","false","[]","[]","[]","","","","","",""
"","","","","","","","","","","","canvas-keyboard-response","467","734076","0.0-467.0","null","null","","","","","","","","","","","","","","fixation","","","2","55","","","","","","","","","",""
"","","","","","","","","","","","canvas-keyboard-response","468","734378","0.0-468.0","null","null","","","","","","","","","","","","","","stimulus","","","2","55","","","","","","","","","",""
"","","","","","","","","","","","canvas-button-response","469","751161","0.0-469.0","16781","car","","","","","","","","","","","","","","perceptual","","","2","55","","","","","258","train","6","0","0",""
"","","","","","","","","","","","canvas-button-response","470","751974","0.0-470.0","811","6","","","","","","","","","","","","","","confidence","","","2","55","","","","","","","","","","4"
"","","","","","","","","","","","preload","471","751975","0.0-471.0","","","","","true","","","","","","","","","","","preload","","","2","56","false","[]","[]","[]","","","","","",""
"","","","","","","","","","","","canvas-keyboard-response","472","752276","0.0-472.0","null","null","","","","","","","","","","","","","","fixation","","","2","56","","","","","","","","","",""
"","","","","","","","","","","","canvas-keyboard-response","473","752579","0.0-473.0","null","null","","","","","","","","","","","","","","stimulus","","","2","56","","","","","","","","","",""
"","","","","","","","","","","","canvas-button-response","474","753933","0.0-474.0","1351","house","","","","","","","","","","","","","","perceptual","","","2","56","","","","","28","house","10","0","1",""
"","","","","","","","","","","","canvas-button-response","475","754816","0.0-475.0","881","8","","","","","","","","","","","","","","confidence","","","2","56","","","","","","","","","","5"
"","","","","","","","","","","","preload","476","754817","0.0-476.0","","","","","true","","","","","","","","","","","preload","","","2","57","false","[]","[]","[]","","","","","",""
"","","","","","","","","","","","canvas-keyboard-response","477","755118","0.0-477.0","null","null","","","","","","","","","","","","","","fixation","","","2","57","","","","","","","","","",""
"","","","","","","","","","","","canvas-keyboard-response","478","755421","0.0-478.0","null","null","","","","","","","","","","","","","","stimulus","","","2","57","","","","","","","","","",""
"","","","","","","","","","","","canvas-button-response","479","757037","0.0-479.0","1614","train","","","","","","","","","","","","","","perceptual","","","2","57","","","","","134","bed","6","0","0",""
"","","","","","","","","","","","canvas-button-response","480","757799","0.0-480.0","760","5","","","","","","","","","","","","","","confidence","","","2","57","","","","","","","","","","5"
"","","","","","","","","","","","preload","481","757799","0.0-481.0","","","","","true","","","","","","","","","","","preload","","","2","58","false","[]","[]","[]","","","","","",""
"","","","","","","","","","","","canvas-keyboard-response","482","758101","0.0-482.0","null","null","","","","","","","","","","","","","","fixation","","","2","58","","","","","","","","","",""
"","","","","","","","","","","","canvas-keyboard-response","483","758404","0.0-483.0","null","null","","","","","","","","","","","","","","stimulus","","","2","58","","","","","","","","","",""
"","","","","","","","","","","","canvas-button-response","484","759250","0.0-484.0","843","flower","","","","","","","","","","","","","","perceptual","","","2","58","","","","","225","flower","10","0","1",""
"","","","","","","","","","","","canvas-button-response","485","760182","0.0-485.0","931","9","","","","","","","","","","","","","","confidence","","","2","58","","","","","","","","","","6"
"","","","","","","","","","","","preload","486","760183","0.0-486.0","","","","","true","","","","","","","","","","","preload","","","2","59","false","[]","[]","[]","","","","","",""
"","","","","","","","","","","","canvas-keyboard-response","487","760484","0.0-487.0","null","null","","","","","","","","","","","","","","fixation","","","2","59","","","","","","","","","",""
"","","","","","","","","","","","canvas-keyboard-response","488","760786","0.0-488.0","null","null","","","","","","","","","","","","","","stimulus","","","2","59","","","","","","","","","",""
"","","","","","","","","","","","canvas-button-response","489","761604","0.0-489.0","816","phone","","","","","","","","","","","","","","perceptual","","","2","59","","","","","116","phone","10","0","1",""
"","","","","","","","","","","","canvas-button-response","490","762158","0.0-490.0","552","6","","","","","","","","","","","","","","confidence","","","2","59","","","","","","","","","","7"
"","","","","","","","","","","","preload","491","762158","0.0-491.0","","","","","true","","","","","","","","","","","preload","","","2","60","false","[]","[]","[]","","","","","",""
