"width","height","webaudio","browser","browser_version","mobile","os","fullscreen","vsync_rate","webcam","microphone","trial_type","trial_index","time_elapsed","internal_node_id","rt","response","accuracy","view_history","success","item_width_mm","item_height_mm","item_width_px","px2mm","view_dist_mm","item_width_deg","px2deg","scale_factor","win_width_deg","win_height_deg","stimulus","datetime","subjectID","curr_triallist","trial_no","timeout","failed_images","failed_audio","failed_video","image_index","category","blur","reps","correct","running_score"
"1470","694","true","chrome","141.0.0","false","Mac OS","true","60.46","true","true","browser-check","0","996","0.0-0.0","","","","","","","","","","","","","","","","","","","","","","","","","","","","","",""
"","","","","","","","","","","","survey","1","26156","0.0-1.0","25119","{""P0_Q0"":""904092608"",""P0_Q1"":""18"",""P1_Q0"":""Female"",""P1_Q1"":""Not Hispanic or Latino"",""P1_Q2"":""Asian"",""P1_Q3"":""Normal"",""P1_Q4"":""Right-Handed""}","[]","","","","","","","","","","","","","","","","","","","","","","","","","","",""
"","","","","","","","","","","","instructions","2","76558","0.0-2.0","50401","","","[{""page_index"":0,""viewing_time"":7967},{""page_index"":1,""viewing_time"":9066},{""page_index"":2,""viewing_time"":7851},{""page_index"":3,""viewing_time"":25516}]","","","","","","","","","","","","","","","","","","","","","","","","","",""
"","","","","","","","","","","","fullscreen","3","79675","0.0-3.0","2115","","","","true","","","","","","","","","","","","","","","","","","","","","","","","",""
"","","","","","","","","","","","virtual-chinrest","4","228283","0.0-4.0","148606","","","","","85.6","53.98","312.84867812840173","3.654774277200955","469.01","10.428289270946724","30","1.368073544566287","49","30.666666666666668","","","","","","","","","","","","","","",""
"","","","","","","","","","","","instructions","5","302589","0.0-5.0","74305","","","[{""page_index"":0,""viewing_time"":8638},{""page_index"":1,""viewing_time"":7351},{""page_index"":2,""viewing_time"":8433},{""page_index"":3,""viewing_time"":1634},{""page_index"":4,""viewing_time"":4017},{""page_index"":5,""viewing_time"":40665},{""page_index"":6,""viewing_time"":3568}]","","","","","","","","","","","","","","","","","","","","","","","","","",""
"","","","","","","","","","","","html-button-response","6","304373","0.0-6.0","1781","0","","","","","","","","","","","","","","start_practice","Tue Oct 21 2025 14:58:36 GMT-0400 (Eastern Daylight Time)","27012","","","","","","","","","","","",""
"","","","","","","","","","","","preload","7","304375","0.0-7.0","","","","","true","","","","","","","","","","","preload","","","0","0","false","[]","[]","[]","","","","","",""
"","","","","","","","","","","","canvas-keyboard-response","8","304680","0.0-8.0","null","null","","","","","","","","","","","","","","fixation","","","0","0","","","","","","","","","",""
"","","","","","","","","","","","canvas-keyboard-response","9","304984","0.0-9.0","null","null","","","","","","","","","","","","","","stimulus","","","0","0","","","","","","","","","",""
"","","","","","","","","","","","canvas-button-response","10","313456","0.0-10.0","8468","knife","","","","","","","","","","","","","","perceptual","","","0","0","","","","","92","knife","1","","1",""
"","","","","","","","","","","","canvas-button-response","11","316822","0.0-11.0","3363","6","","","","","","","","","","","","","","confidence","","","0","0","","","","","","","","","","1"
"","","","","","","","","","","","html-keyboard-response","12","317827","0.0-12.0","null","null","","","","","","","","","","","","","","feedback","Tue Oct 21 2025 14:58:50 GMT-0400 (Eastern Daylight Time)","27012","0","0","","","","","","","","","",""
"","","","","","","","","","","","preload","13","317828","0.0-13.0","","","","","true","","","","","","","","","","","preload","","","0","1","false","[]","[]","[]","","","","","",""
"","","","","","","","","","","","canvas-keyboard-response","14","318131","0.0-14.0","null","null","","","","","","","","","","","","","","fixation","","","0","1","","","","","","","","","",""
"","","","","","","","","","","","canvas-keyboard-response","15","318434","0.0-15.0","null","null","","","","","","","","","","","","","","stimulus","","","0","1","","","","","","","","","",""
"","","","","","","","","","","","canvas-button-response","16","319790","0.0-16.0","1352","car","","","","","","","","","","","","","","perceptual","","","0","1","","","","","12","car","1","","1",""
"","","","","","","","","","","","canvas-button-response","17","320973","0.0-17.0","1180","10","","","","","","","","","","","","","","confidence","","","0","1","","","","","","","","","","2"
"","","","","","","","","","","","html-keyboard-response","18","321975","0.0-18.0","null","null","","","","","","","","","","","","","","feedback","Tue Oct 21 2025 14:58:54 GMT-0400 (Eastern Daylight Time)","27012","0","1","","","","","","","","","",""
"","","","","","","","","","","","preload","19","321977","0.0-19.0","","","","","true","","","","","","","","","","","preload","","","0","2","false","[]","[]","[]","","","","","",""
"","","","","","","","","","","","canvas-keyboard-response","20","322280","0.0-20.0","null","null","","","","","","","","","","","","","","fixation","","","0","2","","","","","","","","","",""
"","","","","","","","","","","","canvas-keyboard-response","21","322584","0.0-21.0","null","null","","","","","","","","","","","","","","stimulus","","","0","2","","","","","","","","","",""
"","","","","","","","","","","","canvas-button-response","22","324156","0.0-22.0","1570","bed","","","","","","","","","","","","","","perceptual","","","0","2","","","","","32","bed","1","","1",""
"","","","","","","","","","","","canvas-button-response","23","325389","0.0-23.0","1231","10","","","","","","","","","","","","","","confidence","","","0","2","","","","","","","","","","3"
"","","","","","","","","","","","html-keyboard-response","24","326393","0.0-24.0","null","null","","","","","","","","","","","","","","feedback","Tue Oct 21 2025 14:58:59 GMT-0400 (Eastern Daylight Time)","27012","0","2","","","","","","","","","",""
"","","","","","","","","","","","preload","25","326395","0.0-25.0","","","","","true","","","","","","","","","","","preload","","","0","3","false","[]","[]","[]","","","","","",""
"","","","","","","","","","","","canvas-keyboard-response","26","326697","0.0-26.0","null","null","","","","","","","","","","","","","","fixation","","","0","3","","","","","","","","","",""
"","","","","","","","","","","","canvas-keyboard-response","27","327001","0.0-27.0","null","null","","","","","","","","","","","","","","stimulus","","","0","3","","","","","","","","","",""
"","","","","","","","","","","","canvas-button-response","28","329156","0.0-28.0","2152","phone","","","","","","","","","","","","","","perceptual","","","0","3","","","","","22","phone","1","","1",""
"","","","","","","","","","","","canvas-button-response","29","330506","0.0-29.0","1347","10","","","","","","","","","","","","","","confidence","","","0","3","","","","","","","","","","4"
"","","","","","","","","","","","html-keyboard-response","30","331509","0.0-30.0","null","null","","","","","","","","","","","","","","feedback","Tue Oct 21 2025 14:59:04 GMT-0400 (Eastern Daylight Time)","27012","0","3","","","","","","","","","",""
"","","","","","","","","","","","preload","31","331511","0.0-31.0","","","","","true","","","","","","","","","","","preload","","","0","4","false","[]","[]","[]","","","","","",""
"","","","","","","","","","","","canvas-keyboard-response","32","331814","0.0-32.0","null","null","","","","","","","","","","","","","","fixation","","","0","4","","","","","","","","","",""
"","","","","","","","","","","","canvas-keyboard-response","33","332117","0.0-33.0","null","null","","","","","","","","","","","","","","stimulus","","","0","4","","","","","","","","","",""
"","","","","","","","","","","","canvas-button-response","34","335089","0.0-34.0","2969","flower","","","","","","","","","","","","","","perceptual","","","0","4","","","","","52","flower","1","","1",""
"","","","","","","","","","","","canvas-button-response","35","336223","0.0-35.0","1130","9","","","","","","","","","","","","","","confidence","","","0","4","","","","","","","","","","5"
"","","","","","","","","","","","html-keyboard-response","36","337225","0.0-36.0","null","null","","","","","","","","","","","","","","feedback","Tue Oct 21 2025 14:59:09 GMT-0400 (Eastern Daylight Time)","27012","0","4","","","","","","","","","",""
"","","","","","","","","","","","preload","37","337226","0.0-37.0","","","","","true","","","","","","","","","","","preload","","","0","5","false","[]","[]","[]","","","","","",""
"","","","","","","","","","","","canvas-keyboard-response","38","337529","0.0-38.0","null","null","","","","","","","","","","","","","","fixation","","","0","5","","","","","","","","","",""
"","","","","","","","","","","","canvas-keyboard-response","39","337832","0.0-39.0","null","null","","","","","","","","","","","","","","stimulus","","","0","5","","","","","","","","","",""
"","","","","","","","","","","","canvas-button-response","40","338989","0.0-40.0","1154","cat","","","","","","","","","","","","","","perceptual","","","0","5","","","","","72","cat","1","","1",""
"","","","","","","","","","","","canvas-button-response","41","339722","0.0-41.0","730","10","","","","","","","","","","","","","","confidence","","","0","5","","","","","","","","","","6"
"","","","","","","","","","","","html-keyboard-response","42","340725","0.0-42.0","null","null","","","","","","","","","","","","","","feedback","Tue Oct 21 2025 14:59:13 GMT-0400 (Eastern Daylight Time)","27012","0","5","","","","","","","","","",""
"","","","","","","","","","","","preload","43","340727","0.0-43.0","","","","","true","","","","","","","","","","","preload","","","0","6","false","[]","[]","[]","","","","","",""
"","","","","","","","","","","","canvas-keyboard-response","44","341030","0.0-44.0","null","null","","","","","","","","","","","","","","fixation","","","0","6","","","","","","","","","",""
"","","","","","","","","","","","canvas-keyboard-response","45","341334","0.0-45.0","null","null","","","","","","","","","","","","","","stimulus","","","0","6","","","","","","","","","",""
"","","","","","","","","","","","canvas-button-response","46","343422","0.0-46.0","2085","train","","","","","","","","","","","","","","perceptual","","","0","6","","","","","62","train","1","","1",""
"","","","","","","","","","","","canvas-button-response","47","344256","0.0-47.0","831","10","","","","","","","","","","","","","","confidence","","","0","6","","","","","","","","","","7"
"","","","","","","","","","","","html-keyboard-response","48","345259","0.0-48.0","null","null","","","","","","","","","","","","","","feedback","Tue Oct 21 2025 14:59:17 GMT-0400 (Eastern Daylight Time)","27012","0","6","","","","","","","","","",""
"","","","","","","","","","","","preload","49","345261","0.0-49.0","","","","","true","","","","","","","","","","","preload","","","0","7","false","[]","[]","[]","","","","","",""
"","","","","","","","","","","","canvas-keyboard-response","50","345564","0.0-50.0","null","null","","","","","","","","","","","","","","fixation","","","0","7","","","","","","","","","",""
"","","","","","","","","","","","canvas-keyboard-response","51","345867","0.0-51.0","null","null","","","","","","","","","","","","","","stimulus","","","0","7","","","","","","","","","",""
"","","","","","","","","","","","canvas-button-response","52","350956","0.0-52.0","5086","cat","","","","","","","","","","","","","","perceptual","","","0","7","","","","","82","elephant","1","","0",""
"","","","","","","","","","","","canvas-button-response","53","353005","0.0-53.0","2047","3","","","","","","","","","","","","","","confidence","","","0","7","","","","","","","","","","7"
"","","","","","","","","","","","html-keyboard-response","54","354009","0.0-54.0","null","null","","","","","","","","","","","","","","feedback","Tue Oct 21 2025 14:59:26 GMT-0400 (Eastern Daylight Time)","27012","0","7","","","","","","","","","",""
"","","","","","","","","","","","preload","55","354010","0.0-55.0","","","","","true","","","","","","","","","","","preload","","","0","8","false","[]","[]","[]","","","","","",""
"","","","","","","","","","","","canvas-keyboard-response","56","354313","0.0-56.0","null","null","","","","","","","","","","","","","","fixation","","","0","8","","","","","","","","","",""
"","","","","","","","","","","","canvas-keyboard-response","57","354617","0.0-57.0","null","null","","","","","","","","","","","","","","stimulus","","","0","8","","","","","","","","","",""
"","","","","","","","","","","","canvas-button-response","58","362205","0.0-58.0","7586","bridge","","","","","","","","","","","","","","perceptual","","","0","8","","","","","42","bridge","1","","1",""
"","","","","","","","","","","","canvas-button-response","59","363505","0.0-59.0","1297","7","","","","","","","","","","","","","","confidence","","","0","8","","","","","","","","","","8"
"","","","","","","","","","","","html-keyboard-response","60","364508","0.0-60.0","null","null","","","","","","","","","","","","","","feedback","Tue Oct 21 2025 14:59:37 GMT-0400 (Eastern Daylight Time)","27012","0","8","","","","","","","","","",""
"","","","","","","","","","","","preload","61","364510","0.0-61.0","","","","","true","","","","","","","","","","","preload","","","0","9","false","[]","[]","[]","","","","","",""
"","","","","","","","","","","","canvas-keyboard-response","62","364813","0.0-62.0","null","null","","","","","","","","","","","","","","fixation","","","0","9","","","","","","","","","",""
"","","","","","","","","","","","canvas-keyboard-response","63","365116","0.0-63.0","null","null","","","","","","","","","","","","","","stimulus","","","0","9","","","","","","","","","",""
"","","","","","","","","","","","canvas-button-response","64","366789","0.0-64.0","1670","house","","","","","","","","","","","","","","perceptual","","","0","9","","","","","2","house","1","","1",""
"","","","","","","","","","","","canvas-button-response","65","368022","0.0-65.0","1231","10","","","","","","","","","","","","","","confidence","","","0","9","","","","","","","","","","9"
"","","","","","","","","","","","html-keyboard-response","66","369026","0.0-66.0","null","null","","","","","","","","","","","","","","feedback","Tue Oct 21 2025 14:59:41 GMT-0400 (Eastern Daylight Time)","27012","0","9","","","","","","","","","",""
"","","","","","","","","","","","html-button-response","67","384355","0.0-67.0","15326","0","","","","","","","","","","","","","","start_practice","Tue Oct 21 2025 14:59:42 GMT-0400 (Eastern Daylight Time)","27012","0","9","","","","","","","","","",""
"","","","","","","","","","","","preload","68","384356","0.0-68.0","","","","","true","","","","","","","","","","","preload","","","1","0","false","[]","[]","[]","","","","","",""
"","","","","","","","","","","","canvas-keyboard-response","69","384659","0.0-69.0","null","null","","","","","","","","","","","","","","fixation","","","1","0","","","","","","","","","",""
"","","","","","","","","","","","canvas-keyboard-response","70","384962","0.0-70.0","null","null","","","","","","","","","","","","","","stimulus","","","1","0","","","","","","","","","",""
"","","","","","","","","","","","canvas-button-response","71","390871","0.0-71.0","5906","flower","","","","","","","","","","","","","","perceptual","","","1","0","","","","","87","elephant","10","","0",""
"","","","","","","","","","","","canvas-button-response","72","392972","0.0-72.0","2098","1","","","","","","","","","","","","","","confidence","","","1","0","","","","","","","","","","0"
"","","","","","","","","","","","html-keyboard-response","73","393975","0.0-73.0","null","null","","","","","","","","","","","","","","feedback","Tue Oct 21 2025 15:00:06 GMT-0400 (Eastern Daylight Time)","27012","1","0","","","","","","","","","",""
"","","","","","","","","","","","preload","74","393976","0.0-74.0","","","","","true","","","","","","","","","","","preload","","","1","1","false","[]","[]","[]","","","","","",""
"","","","","","","","","","","","canvas-keyboard-response","75","394279","0.0-75.0","null","null","","","","","","","","","","","","","","fixation","","","1","1","","","","","","","","","",""
"","","","","","","","","","","","canvas-keyboard-response","76","394582","0.0-76.0","null","null","","","","","","","","","","","","","","stimulus","","","1","1","","","","","","","","","",""
"","","","","","","","","","","","canvas-button-response","77","395789","0.0-77.0","1204","flower","","","","","","","","","","","","","","perceptual","","","1","1","","","","","54","flower","6","","1",""
"","","","","","","","","","","","canvas-button-response","78","396672","0.0-78.0","881","10","","","","","","","","","","","","","","confidence","","","1","1","","","","","","","","","","1"
"","","","","","","","","","","","html-keyboard-response","79","397675","0.0-79.0","null","null","","","","","","","","","","","","","","feedback","Tue Oct 21 2025 15:00:10 GMT-0400 (Eastern Daylight Time)","27012","1","1","","","","","","","","","",""
"","","","","","","","","","","","preload","80","397677","0.0-80.0","","","","","true","","","","","","","","","","","preload","","","1","2","false","[]","[]","[]","","","","","",""
"","","","","","","","","","","","canvas-keyboard-response","81","397980","0.0-81.0","null","null","","","","","","","","","","","","","","fixation","","","1","2","","","","","","","","","",""
"","","","","","","","","","","","canvas-keyboard-response","82","398283","0.0-82.0","null","null","","","","","","","","","","","","","","stimulus","","","1","2","","","","","","","","","",""
"","","","","","","","","","","","canvas-button-response","83","403771","0.0-83.0","5485","cat","","","","","","","","","","","","","","perceptual","","","1","2","","","","","27","phone","10","","0",""
"","","","","","","","","","","","canvas-button-response","84","405405","0.0-84.0","1631","1","","","","","","","","","","","","","","confidence","","","1","2","","","","","","","","","","1"
"","","","","","","","","","","","html-keyboard-response","85","406408","0.0-85.0","null","null","","","","","","","","","","","","","","feedback","Tue Oct 21 2025 15:00:19 GMT-0400 (Eastern Daylight Time)","27012","1","2","","","","","","","","","",""
"","","","","","","","","","","","preload","86","406409","0.0-86.0","","","","","true","","","","","","","","","","","preload","","","1","3","false","[]","[]","[]","","","","","",""
"","","","","","","","","","","","canvas-keyboard-response","87","406712","0.0-87.0","null","null","","","","","","","","","","","","","","fixation","","","1","3","","","","","","","","","",""
"","","","","","","","","","","","canvas-keyboard-response","88","407015","0.0-88.0","null","null","","","","","","","","","","","","","","stimulus","","","1","3","","","","","","","","","",""
"","","","","","","","","","","","canvas-button-response","89","408472","0.0-89.0","1455","train","","","","","","","","","","","","","","perceptual","","","1","3","","","","","64","train","6","","1",""
"","","","","","","","","","","","canvas-button-response","90","409488","0.0-90.0","1014","10","","","","","","","","","","","","","","confidence","","","1","3","","","","","","","","","","2"
"","","","","","","","","","","","html-keyboard-response","91","410491","0.0-91.0","null","null","","","","","","","","","","","","","","feedback","Tue Oct 21 2025 15:00:23 GMT-0400 (Eastern Daylight Time)","27012","1","3","","","","","","","","","",""
"","","","","","","","","","","","preload","92","410493","0.0-92.0","","","","","true","","","","","","","","","","","preload","","","1","4","false","[]","[]","[]","","","","","",""
"","","","","","","","","","","","canvas-keyboard-response","93","410795","0.0-93.0","null","null","","","","","","","","","","","","","","fixation","","","1","4","","","","","","","","","",""
"","","","","","","","","","","","canvas-keyboard-response","94","411098","0.0-94.0","null","null","","","","","","","","","","","","","","stimulus","","","1","4","","","","","","","","","",""
"","","","","","","","","","","","canvas-button-response","95","412170","0.0-95.0","1070","elephant","","","","","","","","","","","","","","perceptual","","","1","4","","","","","84","elephant","6","","1",""
"","","","","","","","","","","","canvas-button-response","96","412989","0.0-96.0","816","10","","","","","","","","","","","","","","confidence","","","1","4","","","","","","","","","","3"
"","","","","","","","","","","","html-keyboard-response","97","413992","0.0-97.0","null","null","","","","","","","","","","","","","","feedback","Tue Oct 21 2025 15:00:26 GMT-0400 (Eastern Daylight Time)","27012","1","4","","","","","","","","","",""
"","","","","","","","","","","","preload","98","413993","0.0-98.0","","","","","true","","","","","","","","","","","preload","","","1","5","false","[]","[]","[]","","","","","",""
"","","","","","","","","","","","canvas-keyboard-response","99","414295","0.0-99.0","null","null","","","","","","","","","","","","","","fixation","","","1","5","","","","","","","","","",""
"","","","","","","","","","","","canvas-keyboard-response","100","414598","0.0-100.0","null","null","","","","","","","","","","","","","","stimulus","","","1","5","","","","","","","","","",""
"","","","","","","","","","","","canvas-button-response","101","417139","0.0-101.0","2538","train","","","","","","","","","","","","","","perceptual","","","1","5","","","","","67","train","10","","1",""
"","","","","","","","","","","","canvas-button-response","102","418472","0.0-102.0","1330","5","","","","","","","","","","","","","","confidence","","","1","5","","","","","","","","","","4"
"","","","","","","","","","","","html-keyboard-response","103","419475","0.0-103.0","null","null","","","","","","","","","","","","","","feedback","Tue Oct 21 2025 15:00:32 GMT-0400 (Eastern Daylight Time)","27012","1","5","","","","","","","","","",""
"","","","","","","","","","","","preload","104","419476","0.0-104.0","","","","","true","","","","","","","","","","","preload","","","1","6","false","[]","[]","[]","","","","","",""
"","","","","","","","","","","","canvas-keyboard-response","105","419779","0.0-105.0","null","null","","","","","","","","","","","","","","fixation","","","1","6","","","","","","","","","",""
"","","","","","","","","","","","canvas-keyboard-response","106","420082","0.0-106.0","null","null","","","","","","","","","","","","","","stimulus","","","1","6","","","","","","","","","",""
"","","","","","","","","","","","canvas-button-response","107","421521","0.0-107.0","1437","phone","","","","","","","","","","","","","","perceptual","","","1","6","","","","","24","phone","6","","1",""
"","","","","","","","","","","","canvas-button-response","108","422688","0.0-108.0","1164","8","","","","","","","","","","","","","","confidence","","","1","6","","","","","","","","","","5"
"","","","","","","","","","","","html-keyboard-response","109","423691","0.0-109.0","null","null","","","","","","","","","","","","","","feedback","Tue Oct 21 2025 15:00:36 GMT-0400 (Eastern Daylight Time)","27012","1","6","","","","","","","","","",""
"","","","","","","","","","","","preload","110","423692","0.0-110.0","","","","","true","","","","","","","","","","","preload","","","1","7","false","[]","[]","[]","","","","","",""
"","","","","","","","","","","","canvas-keyboard-response","111","423995","0.0-111.0","null","null","","","","","","","","","","","","","","fixation","","","1","7","","","","","","","","","",""
"","","","","","","","","","","","canvas-keyboard-response","112","424298","0.0-112.0","null","null","","","","","","","","","","","","","","stimulus","","","1","7","","","","","","","","","",""
"","","","","","","","","","","","canvas-button-response","113","425322","0.0-113.0","1021","house","","","","","","","","","","","","","","perceptual","","","1","7","","","","","4","house","6","","1",""
"","","","","","","","","","","","canvas-button-response","114","426205","0.0-114.0","880","10","","","","","","","","","","","","","","confidence","","","1","7","","","","","","","","","","6"
"","","","","","","","","","","","html-keyboard-response","115","427209","0.0-115.0","null","null","","","","","","","","","","","","","","feedback","Tue Oct 21 2025 15:00:39 GMT-0400 (Eastern Daylight Time)","27012","1","7","","","","","","","","","",""
"","","","","","","","","","","","preload","116","427210","0.0-116.0","","","","","true","","","","","","","","","","","preload","","","1","8","false","[]","[]","[]","","","","","",""
"","","","","","","","","","","","canvas-keyboard-response","117","427512","0.0-117.0","null","null","","","","","","","","","","","","","","fixation","","","1","8","","","","","","","","","",""
"","","","","","","","","","","","canvas-keyboard-response","118","427815","0.0-118.0","null","null","","","","","","","","","","","","","","stimulus","","","1","8","","","","","","","","","",""
"","","","","","","","","","","","canvas-button-response","119","430738","0.0-119.0","2920","bridge","","","","","","","","","","","","","","perceptual","","","1","8","","","","","44","bridge","6","","1",""
"","","","","","","","","","","","canvas-button-response","120","432022","0.0-120.0","1281","3","","","","","","","","","","","","","","confidence","","","1","8","","","","","","","","","","7"
"","","","","","","","","","","","html-keyboard-response","121","433025","0.0-121.0","null","null","","","","","","","","","","","","","","feedback","Tue Oct 21 2025 15:00:45 GMT-0400 (Eastern Daylight Time)","27012","1","8","","","","","","","","","",""
"","","","","","","","","","","","preload","122","433026","0.0-122.0","","","","","true","","","","","","","","","","","preload","","","1","9","false","[]","[]","[]","","","","","",""
"","","","","","","","","","","","canvas-keyboard-response","123","433329","0.0-123.0","null","null","","","","","","","","","","","","","","fixation","","","1","9","","","","","","","","","",""
"","","","","","","","","","","","canvas-keyboard-response","124","433632","0.0-124.0","null","null","","","","","","","","","","","","","","stimulus","","","1","9","","","","","","","","","",""
"","","","","","","","","","","","canvas-button-response","125","435522","0.0-125.0","1887","train","","","","","","","","","","","","","","perceptual","","","1","9","","","","","37","bed","10","","0",""
"","","","","","","","","","","","canvas-button-response","126","437022","0.0-126.0","1497","4","","","","","","","","","","","","","","confidence","","","1","9","","","","","","","","","","7"
"","","","","","","","","","","","html-keyboard-response","127","438025","0.0-127.0","null","null","","","","","","","","","","","","","","feedback","Tue Oct 21 2025 15:00:50 GMT-0400 (Eastern Daylight Time)","27012","1","9","","","","","","","","","",""
"","","","","","","","","","","","preload","128","438026","0.0-128.0","","","","","true","","","","","","","","","","","preload","","","1","10","false","[]","[]","[]","","","","","",""
"","","","","","","","","","","","canvas-keyboard-response","129","438330","0.0-129.0","null","null","","","","","","","","","","","","","","fixation","","","1","10","","","","","","","","","",""
"","","","","","","","","","","","canvas-keyboard-response","130","438633","0.0-130.0","null","null","","","","","","","","","","","","","","stimulus","","","1","10","","","","","","","","","",""
"","","","","","","","","","","","canvas-button-response","131","444153","0.0-131.0","5518","knife","","","","","","","","","","","","","","perceptual","","","1","10","","","","","47","bridge","10","","0",""
"","","","","","","","","","","","canvas-button-response","132","445605","0.0-132.0","1450","0","","","","","","","","","","","","","","confidence","","","1","10","","","","","","","","","","7"
"","","","","","","","","","","","html-keyboard-response","133","446607","0.0-133.0","null","null","","","","","","","","","","","","","","feedback","Tue Oct 21 2025 15:00:59 GMT-0400 (Eastern Daylight Time)","27012","1","10","","","","","","","","","",""
"","","","","","","","","","","","preload","134","446609","0.0-134.0","","","","","true","","","","","","","","","","","preload","","","1","11","false","[]","[]","[]","","","","","",""
"","","","","","","","","","","","canvas-keyboard-response","135","446912","0.0-135.0","null","null","","","","","","","","","","","","","","fixation","","","1","11","","","","","","","","","",""
"","","","","","","","","","","","canvas-keyboard-response","136","447214","0.0-136.0","null","null","","","","","","","","","","","","","","stimulus","","","1","11","","","","","","","","","",""
"","","","","","","","","","","","canvas-button-response","137","452338","0.0-137.0","5122","bridge","","","","","","","","","","","","","","perceptual","","","1","11","","","","","7","house","10","","0",""
"","","","","","","","","","","","canvas-button-response","138","453888","0.0-138.0","1547","1","","","","","","","","","","","","","","confidence","","","1","11","","","","","","","","","","7"
"","","","","","","","","","","","html-keyboard-response","139","454891","0.0-139.0","null","null","","","","","","","","","","","","","","feedback","Tue Oct 21 2025 15:01:07 GMT-0400 (Eastern Daylight Time)","27012","1","11","","","","","","","","","",""
"","","","","","","","","","","","preload","140","454892","0.0-140.0","","","","","true","","","","","","","","","","","preload","","","1","12","false","[]","[]","[]","","","","","",""
"","","","","","","","","","","","canvas-keyboard-response","141","455195","0.0-141.0","null","null","","","","","","","","","","","","","","fixation","","","1","12","","","","","","","","","",""
"","","","","","","","","","","","canvas-keyboard-response","142","455498","0.0-142.0","null","null","","","","","","","","","","","","","","stimulus","","","1","12","","","","","","","","","",""
"","","","","","","","","","","","canvas-button-response","143","460355","0.0-143.0","4854","bridge","","","","","","","","","","","","","","perceptual","","","1","12","","","","","17","car","10","","0",""
"","","","","","","","","","","","canvas-button-response","144","462538","0.0-144.0","2181","1","","","","","","","","","","","","","","confidence","","","1","12","","","","","","","","","","7"
"","","","","","","","","","","","html-keyboard-response","145","463541","0.0-145.0","null","null","","","","","","","","","","","","","","feedback","Tue Oct 21 2025 15:01:16 GMT-0400 (Eastern Daylight Time)","27012","1","12","","","","","","","","","",""
"","","","","","","","","","","","preload","146","463543","0.0-146.0","","","","","true","","","","","","","","","","","preload","","","1","13","false","[]","[]","[]","","","","","",""
"","","","","","","","","","","","canvas-keyboard-response","147","463845","0.0-147.0","null","null","","","","","","","","","","","","","","fixation","","","1","13","","","","","","","","","",""
"","","","","","","","","","","","canvas-keyboard-response","148","464148","0.0-148.0","null","null","","","","","","","","","","","","","","stimulus","","","1","13","","","","","","","","","",""
"","","","","","","","","","","","canvas-button-response","149","465222","0.0-149.0","1071","bed","","","","","","","","","","","","","","perceptual","","","1","13","","","","","34","bed","6","","1",""
"","","","","","","","","","","","canvas-button-response","150","466072","0.0-150.0","847","10","","","","","","","","","","","","","","confidence","","","1","13","","","","","","","","","","8"
"","","","","","","","","","","","html-keyboard-response","151","467076","0.0-151.0","null","null","","","","","","","","","","","","","","feedback","Tue Oct 21 2025 15:01:19 GMT-0400 (Eastern Daylight Time)","27012","1","13","","","","","","","","","",""
"","","","","","","","","","","","preload","152","467077","0.0-152.0","","","","","true","","","","","","","","","","","preload","","","1","14","false","[]","[]","[]","","","","","",""
"","","","","","","","","","","","canvas-keyboard-response","153","467379","0.0-153.0","null","null","","","","","","","","","","","","","","fixation","","","1","14","","","","","","","","","",""
"","","","","","","","","","","","canvas-keyboard-response","154","467682","0.0-154.0","null","null","","","","","","","","","","","","","","stimulus","","","1","14","","","","","","","","","",""
"","","","","","","","","","","","canvas-button-response","155","469139","0.0-155.0","1454","knife","","","","","","","","","","","","","","perceptual","","","1","14","","","","","97","knife","10","","1",""
"","","","","","","","","","","","canvas-button-response","156","469854","0.0-156.0","713","10","","","","","","","","","","","","","","confidence","","","1","14","","","","","","","","","","9"
"","","","","","","","","","","","html-keyboard-response","157","470857","0.0-157.0","null","null","","","","","","","","","","","","","","feedback","Tue Oct 21 2025 15:01:23 GMT-0400 (Eastern Daylight Time)","27012","1","14","","","","","","","","","",""
"","","","","","","","","","","","preload","158","470858","0.0-158.0","","","","","true","","","","","","","","","","","preload","","","1","15","false","[]","[]","[]","","","","","",""
"","","","","","","","","","","","canvas-keyboard-response","159","471162","0.0-159.0","null","null","","","","","","","","","","","","","","fixation","","","1","15","","","","","","","","","",""
"","","","","","","","","","","","canvas-keyboard-response","160","471464","0.0-160.0","null","null","","","","","","","","","","","","","","stimulus","","","1","15","","","","","","","","","",""
"","","","","","","","","","","","canvas-button-response","161","474653","0.0-161.0","3186","elephant","","","","","","","","","","","","","","perceptual","","","1","15","","","","","77","cat","10","","0",""
"","","","","","","","","","","","canvas-button-response","162","476155","0.0-162.0","1500","1","","","","","","","","","","","","","","confidence","","","1","15","","","","","","","","","","9"
"","","","","","","","","","","","html-keyboard-response","163","477158","0.0-163.0","null","null","","","","","","","","","","","","","","feedback","Tue Oct 21 2025 15:01:29 GMT-0400 (Eastern Daylight Time)","27012","1","15","","","","","","","","","",""
"","","","","","","","","","","","preload","164","477159","0.0-164.0","","","","","true","","","","","","","","","","","preload","","","1","16","false","[]","[]","[]","","","","","",""
"","","","","","","","","","","","canvas-keyboard-response","165","477463","0.0-165.0","null","null","","","","","","","","","","","","","","fixation","","","1","16","","","","","","","","","",""
"","","","","","","","","","","","canvas-keyboard-response","166","477766","0.0-166.0","null","null","","","","","","","","","","","","","","stimulus","","","1","16","","","","","","","","","",""
"","","","","","","","","","","","canvas-button-response","167","484239","0.0-167.0","6470","phone","","","","","","","","","","","","","","perceptual","","","1","16","","","","","94","knife","6","","0",""
"","","","","","","","","","","","canvas-button-response","168","485388","0.0-168.0","1147","1","","","","","","","","","","","","","","confidence","","","1","16","","","","","","","","","","9"
"","","","","","","","","","","","html-keyboard-response","169","486391","0.0-169.0","null","null","","","","","","","","","","","","","","feedback","Tue Oct 21 2025 15:01:39 GMT-0400 (Eastern Daylight Time)","27012","1","16","","","","","","","","","",""
"","","","","","","","","","","","preload","170","486392","0.0-170.0","","","","","true","","","","","","","","","","","preload","","","1","17","false","[]","[]","[]","","","","","",""
"","","","","","","","","","","","canvas-keyboard-response","171","486694","0.0-171.0","null","null","","","","","","","","","","","","","","fixation","","","1","17","","","","","","","","","",""
"","","","","","","","","","","","canvas-keyboard-response","172","486996","0.0-172.0","null","null","","","","","","","","","","","","","","stimulus","","","1","17","","","","","","","","","",""
"","","","","","","","","","","","canvas-button-response","173","487988","0.0-173.0","989","cat","","","","","","","","","","","","","","perceptual","","","1","17","","","","","74","cat","6","","1",""
"","","","","","","","","","","","canvas-button-response","174","489421","0.0-174.0","1431","4","","","","","","","","","","","","","","confidence","","","1","17","","","","","","","","","","10"
"","","","","","","","","","","","html-keyboard-response","175","490425","0.0-175.0","null","null","","","","","","","","","","","","","","feedback","Tue Oct 21 2025 15:01:43 GMT-0400 (Eastern Daylight Time)","27012","1","17","","","","","","","","","",""
"","","","","","","","","","","","preload","176","490426","0.0-176.0","","","","","true","","","","","","","","","","","preload","","","1","18","false","[]","[]","[]","","","","","",""
"","","","","","","","","","","","canvas-keyboard-response","177","490729","0.0-177.0","null","null","","","","","","","","","","","","","","fixation","","","1","18","","","","","","","","","",""
"","","","","","","","","","","","canvas-keyboard-response","178","491032","0.0-178.0","null","null","","","","","","","","","","","","","","stimulus","","","1","18","","","","","","","","","",""
"","","","","","","","","","","","canvas-button-response","179","492454","0.0-179.0","1419","flower","","","","","","","","","","","","","","perceptual","","","1","18","","","","","57","flower","10","","1",""
"","","","","","","","","","","","canvas-button-response","180","493875","0.0-180.0","1418","2","","","","","","","","","","","","","","confidence","","","1","18","","","","","","","","","","11"
"","","","","","","","","","","","html-keyboard-response","181","494878","0.0-181.0","null","null","","","","","","","","","","","","","","feedback","Tue Oct 21 2025 15:01:47 GMT-0400 (Eastern Daylight Time)","27012","1","18","","","","","","","","","",""
"","","","","","","","","","","","preload","182","494879","0.0-182.0","","","","","true","","","","","","","","","","","preload","","","1","19","false","[]","[]","[]","","","","","",""
"","","","","","","","","","","","canvas-keyboard-response","183","495182","0.0-183.0","null","null","","","","","","","","","","","","","","fixation","","","1","19","","","","","","","","","",""
"","","","","","","","","","","","canvas-keyboard-response","184","495484","0.0-184.0","null","null","","","","","","","","","","","","","","stimulus","","","1","19","","","","","","","","","",""
"","","","","","","","","","","","canvas-button-response","185","498071","0.0-185.0","2584","elephant","","","","","","","","","","","","","","perceptual","","","1","19","","","","","14","car","6","","0",""
"","","","","","","","","","","","canvas-button-response","186","499455","0.0-186.0","1381","5","","","","","","","","","","","","","","confidence","","","1","19","","","","","","","","","","11"
"","","","","","","","","","","","html-keyboard-response","187","500457","0.0-187.0","null","null","","","","","","","","","","","","","","feedback","Tue Oct 21 2025 15:01:53 GMT-0400 (Eastern Daylight Time)","27012","1","19","","","","","","","","","",""
"","","","","","","","","","","","html-button-response","188","511305","0.0-188.0","10845","0","","","","","","","","","","","","","","start experiment","Tue Oct 21 2025 15:01:54 GMT-0400 (Eastern Daylight Time)","27012","1","19","","","","","","","","","",""
"","","","","","","","","","","","preload","189","511306","0.0-189.0","","","","","true","","","","","","","","","","","preload","","","2","0","false","[]","[]","[]","","","","","",""
"","","","","","","","","","","","canvas-keyboard-response","190","511609","0.0-190.0","null","null","","","","","","","","","","","","","","fixation","","","2","0","","","","","","","","","",""
"","","","","","","","","","","","canvas-keyboard-response","191","511912","0.0-191.0","null","null","","","","","","","","","","","","","","stimulus","","","2","0","","","","","","","","","",""
"","","","","","","","","","","","canvas-button-response","192","513937","0.0-192.0","2022","cat","","","","","","","","","","","","","","perceptual","","","2","0","","","","","290","cat","6","0","1",""
"","","","","","","","","","","","canvas-button-response","193","515271","0.0-193.0","1331","1","","","","","","","","","","","","","","confidence","","","2","0","","","","","","","","","","1"
"","","","","","","","","","","","preload","194","515272","0.0-194.0","","","","","true","","","","","","","","","","","preload","","","2","1","false","[]","[]","[]","","","","","",""
"","","","","","","","","","","","canvas-keyboard-response","195","515574","0.0-195.0","null","null","","","","","","","","","","","","","","fixation","","","2","1","","","","","","","","","",""
"","","","","","","","","","","","canvas-keyboard-response","196","515877","0.0-196.0","null","null","","","","","","","","","","","","","","stimulus","","","2","1","","","","","","","","","",""
"","","","","","","","","","","","canvas-button-response","197","519188","0.0-197.0","3308","elephant","","","","","","","","","","","","","","perceptual","","","2","1","","","","","205","flower","6","0","0",""
"","","","","","","","","","","","canvas-button-response","198","520705","0.0-198.0","1514","1","","","","","","","","","","","","","","confidence","","","2","1","","","","","","","","","","1"
"","","","","","","","","","","","preload","199","520706","0.0-199.0","","","","","true","","","","","","","","","","","preload","","","2","2","false","[]","[]","[]","","","","","",""
"","","","","","","","","","","","canvas-keyboard-response","200","521008","0.0-200.0","null","null","","","","","","","","","","","","","","fixation","","","2","2","","","","","","","","","",""
"","","","","","","","","","","","canvas-keyboard-response","201","521311","0.0-201.0","null","null","","","","","","","","","","","","","","stimulus","","","2","2","","","","","","","","","",""
"","","","","","","","","","","","canvas-button-response","202","525321","0.0-202.0","4008","bridge","","","","","","","","","","","","","","perceptual","","","2","2","","","","","375","knife","6","0","0",""
"","","","","","","","","","","","canvas-button-response","203","528205","0.0-203.0","2881","1","","","","","","","","","","","","","","confidence","","","2","2","","","","","","","","","","1"
"","","","","","","","","","","","preload","204","528206","0.0-204.0","","","","","true","","","","","","","","","","","preload","","","2","3","false","[]","[]","[]","","","","","",""
"","","","","","","","","","","","canvas-keyboard-response","205","528508","0.0-205.0","null","null","","","","","","","","","","","","","","fixation","","","2","3","","","","","","","","","",""
"","","","","","","","","","","","canvas-keyboard-response","206","528811","0.0-206.0","null","null","","","","","","","","","","","","","","stimulus","","","2","3","","","","","","","","","",""
"","","","","","","","","","","","canvas-button-response","207","530338","0.0-207.0","1523","train","","","","","","","","","","","","","","perceptual","","","2","3","","","","","69","car","10","0","0",""
"","","","","","","","","","","","canvas-button-response","208","531054","0.0-208.0","714","9","","","","","","","","","","","","","","confidence","","","2","3","","","","","","","","","","1"
"","","","","","","","","","","","preload","209","531056","0.0-209.0","","","","","true","","","","","","","","","","","preload","","","2","4","false","[]","[]","[]","","","","","",""
"","","","","","","","","","","","canvas-keyboard-response","210","531358","0.0-210.0","null","null","","","","","","","","","","","","","","fixation","","","2","4","","","","","","","","","",""
"","","","","","","","","","","","canvas-keyboard-response","211","531662","0.0-211.0","null","null","","","","","","","","","","","","","","stimulus","","","2","4","","","","","","","","","",""
"","","","","","","","","","","","canvas-button-response","212","541938","0.0-212.0","10273","cat","","","","","","","","","","","","","","perceptual","","","2","4","","","","","291","cat","6","0","1",""
"","","","","","","","","","","","canvas-button-response","213","544104","0.0-213.0","2164","1","","","","","","","","","","","","","","confidence","","","2","4","","","","","","","","","","2"
"","","","","","","","","","","","preload","214","544105","0.0-214.0","","","","","true","","","","","","","","","","","preload","","","2","5","false","[]","[]","[]","","","","","",""
"","","","","","","","","","","","canvas-keyboard-response","215","544408","0.0-215.0","null","null","","","","","","","","","","","","","","fixation","","","2","5","","","","","","","","","",""
"","","","","","","","","","","","canvas-keyboard-response","216","544711","0.0-216.0","null","null","","","","","","","","","","","","","","stimulus","","","2","5","","","","","","","","","",""
"","","","","","","","","","","","canvas-button-response","217","545838","0.0-217.0","1125","bed","","","","","","","","","","","","","","perceptual","","","2","5","","","","","156","bed","10","0","1",""
"","","","","","","","","","","","canvas-button-response","218","546738","0.0-218.0","897","10","","","","","","","","","","","","","","confidence","","","2","5","","","","","","","","","","3"
"","","","","","","","","","","","preload","219","546739","0.0-219.0","","","","","true","","","","","","","","","","","preload","","","2","6","false","[]","[]","[]","","","","","",""
"","","","","","","","","","","","canvas-keyboard-response","220","547041","0.0-220.0","null","null","","","","","","","","","","","","","","fixation","","","2","6","","","","","","","","","",""
"","","","","","","","","","","","canvas-keyboard-response","221","547345","0.0-221.0","null","null","","","","","","","","","","","","","","stimulus","","","2","6","","","","","","","","","",""
"","","","","","","","","","","","canvas-button-response","222","549921","0.0-222.0","2574","train","","","","","","","","","","","","","","perceptual","","","2","6","","","","","328","elephant","6","0","0",""
"","","","","","","","","","","","canvas-button-response","223","551871","0.0-223.0","1947","5","","","","","","","","","","","","","","confidence","","","2","6","","","","","","","","","","3"
"","","","","","","","","","","","preload","224","551872","0.0-224.0","","","","","true","","","","","","","","","","","preload","","","2","7","false","[]","[]","[]","","","","","",""
"","","","","","","","","","","","canvas-keyboard-response","225","552175","0.0-225.0","null","null","","","","","","","","","","","","","","fixation","","","2","7","","","","","","","","","",""
"","","","","","","","","","","","canvas-keyboard-response","226","552478","0.0-226.0","null","null","","","","","","","","","","","","","","stimulus","","","2","7","","","","","","","","","",""
"","","","","","","","","","","","canvas-button-response","227","553903","0.0-227.0","1422","car","","","","","","","","","","","","","","perceptual","","","2","7","","","","","67","car","10","0","1",""
"","","","","","","","","","","","canvas-button-response","228","554521","0.0-228.0","614","10","","","","","","","","","","","","","","confidence","","","2","7","","","","","","","","","","4"
"","","","","","","","","","","","preload","229","554522","0.0-229.0","","","","","true","","","","","","","","","","","preload","","","2","8","false","[]","[]","[]","","","","","",""
"","","","","","","","","","","","canvas-keyboard-response","230","554825","0.0-230.0","null","null","","","","","","","","","","","","","","fixation","","","2","8","","","","","","","","","",""
"","","","","","","","","","","","canvas-keyboard-response","231","555128","0.0-231.0","null","null","","","","","","","","","","","","","","stimulus","","","2","8","","","","","","","","","",""
"","","","","","","","","","","","canvas-button-response","232","558337","0.0-232.0","3207","house","","","","","","","","","","","","","","perceptual","","","2","8","","","","","58","car","6","0","0",""
"","","","","","","","","","","","canvas-button-response","233","559537","0.0-233.0","1198","1","","","","","","","","","","","","","","confidence","","","2","8","","","","","","","","","","4"
"","","","","","","","","","","","preload","234","559538","0.0-234.0","","","","","true","","","","","","","","","","","preload","","","2","9","false","[]","[]","[]","","","","","",""
"","","","","","","","","","","","canvas-keyboard-response","235","559841","0.0-235.0","null","null","","","","","","","","","","","","","","fixation","","","2","9","","","","","","","","","",""
"","","","","","","","","","","","canvas-keyboard-response","236","560144","0.0-236.0","null","null","","","","","","","","","","","","","","stimulus","","","2","9","","","","","","","","","",""
"","","","","","","","","","","","canvas-button-response","237","562437","0.0-237.0","2291","train","","","","","","","","","","","","","","perceptual","","","2","9","","","","","257","train","6","0","1",""
"","","","","","","","","","","","canvas-button-response","238","565753","0.0-238.0","3313","9","","","","","","","","","","","","","","confidence","","","2","9","","","","","","","","","","5"
"","","","","","","","","","","","preload","239","565755","0.0-239.0","","","","","true","","","","","","","","","","","preload","","","2","10","false","[]","[]","[]","","","","","",""
"","","","","","","","","","","","canvas-keyboard-response","240","566058","0.0-240.0","null","null","","","","","","","","","","","","","","fixation","","","2","10","","","","","","","","","",""
"","","","","","","","","","","","canvas-keyboard-response","241","566360","0.0-241.0","null","null","","","","","","","","","","","","","","stimulus","","","2","10","","","","","","","","","",""
"","","","","","","","","","","","canvas-button-response","242","568871","0.0-242.0","2509","elephant","","","","","","","","","","","","","","perceptual","","","2","10","","","","","354","elephant","10","0","1",""
"","","","","","","","","","","","canvas-button-response","243","570771","0.0-243.0","1897","1","","","","","","","","","","","","","","confidence","","","2","10","","","","","","","","","","6"
"","","","","","","","","","","","preload","244","570772","0.0-244.0","","","","","true","","","","","","","","","","","preload","","","2","11","false","[]","[]","[]","","","","","",""
"","","","","","","","","","","","canvas-keyboard-response","245","571075","0.0-245.0","null","null","","","","","","","","","","","","","","fixation","","","2","11","","","","","","","","","",""
"","","","","","","","","","","","canvas-keyboard-response","246","571378","0.0-246.0","null","null","","","","","","","","","","","","","","stimulus","","","2","11","","","","","","","","","",""
"","","","","","","","","","","","canvas-button-response","247","572637","0.0-247.0","1256","car","","","","","","","","","","","","","","perceptual","","","2","11","","","","","94","phone","6","0","0",""
"","","","","","","","","","","","canvas-button-response","248","573604","0.0-248.0","964","10","","","","","","","","","","","","","","confidence","","","2","11","","","","","","","","","","6"
"","","","","","","","","","","","preload","249","573606","0.0-249.0","","","","","true","","","","","","","","","","","preload","","","2","12","false","[]","[]","[]","","","","","",""
"","","","","","","","","","","","canvas-keyboard-response","250","573909","0.0-250.0","null","null","","","","","","","","","","","","","","fixation","","","2","12","","","","","","","","","",""
"","","","","","","","","","","","canvas-keyboard-response","251","574212","0.0-251.0","null","null","","","","","","","","","","","","","","stimulus","","","2","12","","","","","","","","","",""
"","","","","","","","","","","","canvas-button-response","252","580304","0.0-252.0","6089","house","","","","","","","","","","","","","","perceptual","","","2","12","","","","","33","house","10","0","1",""
"","","","","","","","","","","","canvas-button-response","253","581338","0.0-253.0","1031","1","","","","","","","","","","","","","","confidence","","","2","12","","","","","","","","","","7"
"","","","","","","","","","","","preload","254","581339","0.0-254.0","","","","","true","","","","","","","","","","","preload","","","2","13","false","[]","[]","[]","","","","","",""
"","","","","","","","","","","","canvas-keyboard-response","255","581642","0.0-255.0","null","null","","","","","","","","","","","","","","fixation","","","2","13","","","","","","","","","",""
"","","","","","","","","","","","canvas-keyboard-response","256","581945","0.0-256.0","null","null","","","","","","","","","","","","","","stimulus","","","2","13","","","","","","","","","",""
"","","","","","","","","","","","canvas-button-response","257","586104","0.0-257.0","4156","bed","","","","","","","","","","","","","","perceptual","","","2","13","","","","","364","knife","6","0","0",""
"","","","","","","","","","","","canvas-button-response","258","587554","0.0-258.0","1447","1","","","","","","","","","","","","","","confidence","","","2","13","","","","","","","","","","7"
"","","","","","","","","","","","preload","259","587555","0.0-259.0","","","","","true","","","","","","","","","","","preload","","","2","14","false","[]","[]","[]","","","","","",""
"","","","","","","","","","","","canvas-keyboard-response","260","587858","0.0-260.0","null","null","","","","","","","","","","","","","","fixation","","","2","14","","","","","","","","","",""
"","","","","","","","","","","","canvas-keyboard-response","261","588161","0.0-261.0","null","null","","","","","","","","","","","","","","stimulus","","","2","14","","","","","","","","","",""
"","","","","","","","","","","","canvas-button-response","262","591204","0.0-262.0","3041","car","","","","","","","","","","","","","","perceptual","","","2","14","","","","","73","car","10","0","1",""
"","","","","","","","","","","","canvas-button-response","263","592552","0.0-263.0","1346","5","","","","","","","","","","","","","","confidence","","","2","14","","","","","","","","","","8"
"","","","","","","","","","","","preload","264","592553","0.0-264.0","","","","","true","","","","","","","","","","","preload","","","2","15","false","[]","[]","[]","","","","","",""
"","","","","","","","","","","","canvas-keyboard-response","265","592855","0.0-265.0","null","null","","","","","","","","","","","","","","fixation","","","2","15","","","","","","","","","",""
"","","","","","","","","","","","canvas-keyboard-response","266","593158","0.0-266.0","null","null","","","","","","","","","","","","","","stimulus","","","2","15","","","","","","","","","",""
"","","","","","","","","","","","canvas-button-response","267","602770","0.0-267.0","9611","bridge","","","","","","","","","","","","","","perceptual","","","2","15","","","","","83","phone","6","0","0",""
"","","","","","","","","","","","canvas-button-response","268","603687","0.0-268.0","914","1","","","","","","","","","","","","","","confidence","","","2","15","","","","","","","","","","8"
"","","","","","","","","","","","preload","269","603688","0.0-269.0","","","","","true","","","","","","","","","","","preload","","","2","16","false","[]","[]","[]","","","","","",""
"","","","","","","","","","","","canvas-keyboard-response","270","603991","0.0-270.0","null","null","","","","","","","","","","","","","","fixation","","","2","16","","","","","","","","","",""
"","","","","","","","","","","","canvas-keyboard-response","271","604294","0.0-271.0","null","null","","","","","","","","","","","","","","stimulus","","","2","16","","","","","","","","","",""
"","","","","","","","","","","","canvas-button-response","272","607454","0.0-272.0","3157","cat","","","","","","","","","","","","","","perceptual","","","2","16","","","","","192","bridge","10","0","0",""
"","","","","","","","","","","","canvas-button-response","273","608620","0.0-273.0","1164","1","","","","","","","","","","","","","","confidence","","","2","16","","","","","","","","","","8"
"","","","","","","","","","","","preload","274","608621","0.0-274.0","","","","","true","","","","","","","","","","","preload","","","2","17","false","[]","[]","[]","","","","","",""
"","","","","","","","","","","","canvas-keyboard-response","275","608923","0.0-275.0","null","null","","","","","","","","","","","","","","fixation","","","2","17","","","","","","","","","",""
"","","","","","","","","","","","canvas-keyboard-response","276","609225","0.0-276.0","null","null","","","","","","","","","","","","","","stimulus","","","2","17","","","","","","","","","",""
"","","","","","","","","","","","canvas-button-response","277","610237","0.0-277.0","1009","bed","","","","","","","","","","","","","","perceptual","","","2","17","","","","","144","bed","10","0","1",""
"","","","","","","","","","","","canvas-button-response","278","611138","0.0-278.0","897","10","","","","","","","","","","","","","","confidence","","","2","17","","","","","","","","","","9"
"","","","","","","","","","","","preload","279","611139","0.0-279.0","","","","","true","","","","","","","","","","","preload","","","2","18","false","[]","[]","[]","","","","","",""
"","","","","","","","","","","","canvas-keyboard-response","280","611441","0.0-280.0","null","null","","","","","","","","","","","","","","fixation","","","2","18","","","","","","","","","",""
"","","","","","","","","","","","canvas-keyboard-response","281","611743","0.0-281.0","null","null","","","","","","","","","","","","","","stimulus","","","2","18","","","","","","","","","",""
"","","","","","","","","","","","canvas-button-response","282","617254","0.0-282.0","5508","cat","","","","","","","","","","","","","","perceptual","","","2","18","","","","","106","phone","10","0","0",""
"","","","","","","","","","","","canvas-button-response","283","618336","0.0-283.0","1080","2","","","","","","","","","","","","","","confidence","","","2","18","","","","","","","","","","9"
"","","","","","","","","","","","preload","284","618338","0.0-284.0","","","","","true","","","","","","","","","","","preload","","","2","19","false","[]","[]","[]","","","","","",""
"","","","","","","","","","","","canvas-keyboard-response","285","618641","0.0-285.0","null","null","","","","","","","","","","","","","","fixation","","","2","19","","","","","","","","","",""
"","","","","","","","","","","","canvas-keyboard-response","286","618944","0.0-286.0","null","null","","","","","","","","","","","","","","stimulus","","","2","19","","","","","","","","","",""
"","","","","","","","","","","","canvas-button-response","287","623387","0.0-287.0","4440","phone","","","","","","","","","","","","","","perceptual","","","2","19","","","","","119","phone","10","0","1",""
"","","","","","","","","","","","canvas-button-response","288","625120","0.0-288.0","1731","3","","","","","","","","","","","","","","confidence","","","2","19","","","","","","","","","","10"
"","","","","","","","","","","","preload","289","625121","0.0-289.0","","","","","true","","","","","","","","","","","preload","","","2","20","false","[]","[]","[]","","","","","",""
"","","","","","","","","","","","canvas-keyboard-response","290","625424","0.0-290.0","null","null","","","","","","","","","","","","","","fixation","","","2","20","","","","","","","","","",""
"","","","","","","","","","","","canvas-keyboard-response","291","625727","0.0-291.0","null","null","","","","","","","","","","","","","","stimulus","","","2","20","","","","","","","","","",""
"","","","","","","","","","","","canvas-button-response","292","629786","0.0-292.0","4057","train","","","","","","","","","","","","","","perceptual","","","2","20","","","","","387","knife","10","0","0",""
"","","","","","","","","","","","canvas-button-response","293","630953","0.0-293.0","1164","1","","","","","","","","","","","","","","confidence","","","2","20","","","","","","","","","","10"
"","","","","","","","","","","","preload","294","630954","0.0-294.0","","","","","true","","","","","","","","","","","preload","","","2","21","false","[]","[]","[]","","","","","",""
"","","","","","","","","","","","canvas-keyboard-response","295","631256","0.0-295.0","null","null","","","","","","","","","","","","","","fixation","","","2","21","","","","","","","","","",""
"","","","","","","","","","","","canvas-keyboard-response","296","631559","0.0-296.0","null","null","","","","","","","","","","","","","","stimulus","","","2","21","","","","","","","","","",""
"","","","","","","","","","","","canvas-button-response","297","632804","0.0-297.0","1243","flower","","","","","","","","","","","","","","perceptual","","","2","21","","","","","265","train","10","0","0",""
"","","","","","","","","","","","canvas-button-response","298","633387","0.0-298.0","581","1","","","","","","","","","","","","","","confidence","","","2","21","","","","","","","","","","10"
"","","","","","","","","","","","preload","299","633388","0.0-299.0","","","","","true","","","","","","","","","","","preload","","","2","22","false","[]","[]","[]","","","","","",""
"","","","","","","","","","","","canvas-keyboard-response","300","633691","0.0-300.0","null","null","","","","","","","","","","","","","","fixation","","","2","22","","","","","","","","","",""
"","","","","","","","","","","","canvas-keyboard-response","301","633992","0.0-301.0","null","null","","","","","","","","","","","","","","stimulus","","","2","22","","","","","","","","","",""
"","","","","","","","","","","","canvas-button-response","302","635337","0.0-302.0","1342","house","","","","","","","","","","","","","","perceptual","","","2","22","","","","","11","house","6","0","1",""
"","","","","","","","","","","","canvas-button-response","303","636620","0.0-303.0","1280","9","","","","","","","","","","","","","","confidence","","","2","22","","","","","","","","","","11"
"","","","","","","","","","","","preload","304","636621","0.0-304.0","","","","","true","","","","","","","","","","","preload","","","2","23","false","[]","[]","[]","","","","","",""
"","","","","","","","","","","","canvas-keyboard-response","305","636924","0.0-305.0","null","null","","","","","","","","","","","","","","fixation","","","2","23","","","","","","","","","",""
"","","","","","","","","","","","canvas-keyboard-response","306","637228","0.0-306.0","null","null","","","","","","","","","","","","","","stimulus","","","2","23","","","","","","","","","",""
"","","","","","","","","","","","canvas-button-response","307","638954","0.0-307.0","1723","phone","","","","","","","","","","","","","","perceptual","","","2","23","","","","","99","phone","6","0","1",""
"","","","","","","","","","","","canvas-button-response","308","641321","0.0-308.0","2364","3","","","","","","","","","","","","","","confidence","","","2","23","","","","","","","","","","12"
"","","","","","","","","","","","preload","309","641322","0.0-309.0","","","","","true","","","","","","","","","","","preload","","","2","24","false","[]","[]","[]","","","","","",""
"","","","","","","","","","","","canvas-keyboard-response","310","641625","0.0-310.0","null","null","","","","","","","","","","","","","","fixation","","","2","24","","","","","","","","","",""
"","","","","","","","","","","","canvas-keyboard-response","311","641928","0.0-311.0","null","null","","","","","","","","","","","","","","stimulus","","","2","24","","","","","","","","","",""
"","","","","","","","","","","","canvas-button-response","312","644020","0.0-312.0","2090","bed","","","","","","","","","","","","","","perceptual","","","2","24","","","","","135","bed","6","0","1",""
"","","","","","","","","","","","canvas-button-response","313","648387","0.0-313.0","4364","4","","","","","","","","","","","","","","confidence","","","2","24","","","","","","","","","","13"
"","","","","","","","","","","","preload","314","648388","0.0-314.0","","","","","true","","","","","","","","","","","preload","","","2","25","false","[]","[]","[]","","","","","",""
"","","","","","","","","","","","canvas-keyboard-response","315","648691","0.0-315.0","null","null","","","","","","","","","","","","","","fixation","","","2","25","","","","","","","","","",""
"","","","","","","","","","","","canvas-keyboard-response","316","648994","0.0-316.0","null","null","","","","","","","","","","","","","","stimulus","","","2","25","","","","","","","","","",""
"","","","","","","","","","","","canvas-button-response","317","649887","0.0-317.0","891","flower","","","","","","","","","","","","","","perceptual","","","2","25","","","","","209","flower","6","0","1",""
"","","","","","","","","","","","canvas-button-response","318","652420","0.0-318.0","2531","10","","","","","","","","","","","","","","confidence","","","2","25","","","","","","","","","","14"
"","","","","","","","","","","","preload","319","652422","0.0-319.0","","","","","true","","","","","","","","","","","preload","","","2","26","false","[]","[]","[]","","","","","",""
"","","","","","","","","","","","canvas-keyboard-response","320","652724","0.0-320.0","null","null","","","","","","","","","","","","","","fixation","","","2","26","","","","","","","","","",""
"","","","","","","","","","","","canvas-keyboard-response","321","653027","0.0-321.0","null","null","","","","","","","","","","","","","","stimulus","","","2","26","","","","","","","","","",""
"","","","","","","","","","","","canvas-button-response","322","655320","0.0-322.0","2290","bed","","","","","","","","","","","","","","perceptual","","","2","26","","","","","235","flower","10","0","0",""
"","","","","","","","","","","","canvas-button-response","323","656704","0.0-323.0","1381","3","","","","","","","","","","","","","","confidence","","","2","26","","","","","","","","","","14"
"","","","","","","","","","","","preload","324","656705","0.0-324.0","","","","","true","","","","","","","","","","","preload","","","2","27","false","[]","[]","[]","","","","","",""
"","","","","","","","","","","","canvas-keyboard-response","325","657008","0.0-325.0","null","null","","","","","","","","","","","","","","fixation","","","2","27","","","","","","","","","",""
"","","","","","","","","","","","canvas-keyboard-response","326","657310","0.0-326.0","null","null","","","","","","","","","","","","","","stimulus","","","2","27","","","","","","","","","",""
"","","","","","","","","","","","canvas-button-response","327","658103","0.0-327.0","790","flower","","","","","","","","","","","","","","perceptual","","","2","27","","","","","223","flower","10","0","1",""
"","","","","","","","","","","","canvas-button-response","328","693086","0.0-328.0","34980","1","","","","","","","","","","","","","","confidence","","","2","27","","","","","","","","","","15"
"","","","","","","","","","","","preload","329","693087","0.0-329.0","","","","","true","","","","","","","","","","","preload","","","2","28","false","[]","[]","[]","","","","","",""
"","","","","","","","","","","","canvas-keyboard-response","330","693390","0.0-330.0","null","null","","","","","","","","","","","","","","fixation","","","2","28","","","","","","","","","",""
"","","","","","","","","","","","canvas-keyboard-response","331","693693","0.0-331.0","null","null","","","","","","","","","","","","","","stimulus","","","2","28","","","","","","","","","",""
"","","","","","","","","","","","canvas-button-response","332","700387","0.0-332.0","6691","bridge","","","","","","","","","","","","","","perceptual","","","2","28","","","","","185","bridge","10","0","1",""
"","","","","","","","","","","","canvas-button-response","333","721453","0.0-333.0","21064","1","","","","","","","","","","","","","","confidence","","","2","28","","","","","","","","","","16"
"","","","","","","","","","","","preload","334","721454","0.0-334.0","","","","","true","","","","","","","","","","","preload","","","2","29","false","[]","[]","[]","","","","","",""
"","","","","","","","","","","","canvas-keyboard-response","335","721757","0.0-335.0","null","null","","","","","","","","","","","","","","fixation","","","2","29","","","","","","","","","",""
"","","","","","","","","","","","canvas-keyboard-response","336","722060","0.0-336.0","null","null","","","","","","","","","","","","","","stimulus","","","2","29","","","","","","","","","",""
"","","","","","","","","","","","canvas-button-response","337","723053","0.0-337.0","990","cat","","","","","","","","","","","","","","perceptual","","","2","29","","","","","281","cat","6","0","1",""
"","","","","","","","","","","","canvas-button-response","338","724570","0.0-338.0","1514","5","","","","","","","","","","","","","","confidence","","","2","29","","","","","","","","","","17"
"","","","","","","","","","","","preload","339","724571","0.0-339.0","","","","","true","","","","","","","","","","","preload","","","2","30","false","[]","[]","[]","","","","","",""
"","","","","","","","","","","","canvas-keyboard-response","340","724874","0.0-340.0","null","null","","","","","","","","","","","","","","fixation","","","2","30","","","","","","","","","",""
"","","","","","","","","","","","canvas-keyboard-response","341","725177","0.0-341.0","null","null","","","","","","","","","","","","","","stimulus","","","2","30","","","","","","","","","",""
"","","","","","","","","","","","canvas-button-response","342","728386","0.0-342.0","3206","house","","","","","","","","","","","","","","perceptual","","","2","30","","","","","320","elephant","6","0","0",""
"","","","","","","","","","","","canvas-button-response","343","729970","0.0-343.0","1581","1","","","","","","","","","","","","","","confidence","","","2","30","","","","","","","","","","17"
"","","","","","","","","","","","preload","344","729971","0.0-344.0","","","","","true","","","","","","","","","","","preload","","","2","31","false","[]","[]","[]","","","","","",""
"","","","","","","","","","","","canvas-keyboard-response","345","730274","0.0-345.0","null","null","","","","","","","","","","","","","","fixation","","","2","31","","","","","","","","","",""
"","","","","","","","","","","","canvas-keyboard-response","346","730576","0.0-346.0","null","null","","","","","","","","","","","","","","stimulus","","","2","31","","","","","","","","","",""
"","","","","","","","","","","","canvas-button-response","347","731920","0.0-347.0","1341","flower","","","","","","","","","","","","","","perceptual","","","2","31","","","","","147","bed","10","0","0",""
"","","","","","","","","","","","canvas-button-response","348","732902","0.0-348.0","980","4","","","","","","","","","","","","","","confidence","","","2","31","","","","","","","","","","17"
"","","","","","","","","","","","preload","349","732904","0.0-349.0","","","","","true","","","","","","","","","","","preload","","","2","32","false","[]","[]","[]","","","","","",""
"","","","","","","","","","","","canvas-keyboard-response","350","733206","0.0-350.0","null","null","","","","","","","","","","","","","","fixation","","","2","32","","","","","","","","","",""
"","","","","","","","","","","","canvas-keyboard-response","351","733508","0.0-351.0","null","null","","","","","","","","","","","","","","stimulus","","","2","32","","","","","","","","","",""
"","","","","","","","","","","","canvas-button-response","352","738069","0.0-352.0","4559","house","","","","","","","","","","","","","","perceptual","","","2","32","","","","","28","house","10","0","1",""
"","","","","","","","","","","","canvas-button-response","353","739703","0.0-353.0","1631","1","","","","","","","","","","","","","","confidence","","","2","32","","","","","","","","","","18"
"","","","","","","","","","","","preload","354","739705","0.0-354.0","","","","","true","","","","","","","","","","","preload","","","2","33","false","[]","[]","[]","","","","","",""
"","","","","","","","","","","","canvas-keyboard-response","355","740007","0.0-355.0","null","null","","","","","","","","","","","","","","fixation","","","2","33","","","","","","","","","",""
"","","","","","","","","","","","canvas-keyboard-response","356","740310","0.0-356.0","null","null","","","","","","","","","","","","","","stimulus","","","2","33","","","","","","","","","",""
"","","","","","","","","","","","canvas-button-response","357","741619","0.0-357.0","1306","house","","","","","","","","","","","","","","perceptual","","","2","33","","","","","39","house","10","0","1",""
"","","","","","","","","","","","canvas-button-response","358","742786","0.0-358.0","1164","5","","","","","","","","","","","","","","confidence","","","2","33","","","","","","","","","","19"
"","","","","","","","","","","","preload","359","742787","0.0-359.0","","","","","true","","","","","","","","","","","preload","","","2","34","false","[]","[]","[]","","","","","",""
"","","","","","","","","","","","canvas-keyboard-response","360","743090","0.0-360.0","null","null","","","","","","","","","","","","","","fixation","","","2","34","","","","","","","","","",""
"","","","","","","","","","","","canvas-keyboard-response","361","743393","0.0-361.0","null","null","","","","","","","","","","","","","","stimulus","","","2","34","","","","","","","","","",""
"","","","","","","","","","","","canvas-button-response","362","747786","0.0-362.0","4390","train","","","","","","","","","","","","","","perceptual","","","2","34","","","","","145","bed","10","0","0",""
"","","","","","","","","","","","canvas-button-response","363","748669","0.0-363.0","880","1","","","","","","","","","","","","","","confidence","","","2","34","","","","","","","","","","19"
"","","","","","","","","","","","preload","364","748670","0.0-364.0","","","","","true","","","","","","","","","","","preload","","","2","35","false","[]","[]","[]","","","","","",""
"","","","","","","","","","","","canvas-keyboard-response","365","748973","0.0-365.0","null","null","","","","","","","","","","","","","","fixation","","","2","35","","","","","","","","","",""
"","","","","","","","","","","","canvas-keyboard-response","366","749276","0.0-366.0","null","null","","","","","","","","","","","","","","stimulus","","","2","35","","","","","","","","","",""
"","","","","","","","","","","","canvas-button-response","367","751819","0.0-367.0","2541","house","","","","","","","","","","","","","","perceptual","","","2","35","","","","","5","house","6","0","1",""
"","","","","","","","","","","","canvas-button-response","368","753703","0.0-368.0","1881","3","","","","","","","","","","","","","","confidence","","","2","35","","","","","","","","","","20"
"","","","","","","","","","","","preload","369","753704","0.0-369.0","","","","","true","","","","","","","","","","","preload","","","2","36","false","[]","[]","[]","","","","","",""
"","","","","","","","","","","","canvas-keyboard-response","370","754007","0.0-370.0","null","null","","","","","","","","","","","","","","fixation","","","2","36","","","","","","","","","",""
"","","","","","","","","","","","canvas-keyboard-response","371","754310","0.0-371.0","null","null","","","","","","","","","","","","","","stimulus","","","2","36","","","","","","","","","",""
"","","","","","","","","","","","canvas-button-response","372","757103","0.0-372.0","2790","elephant","","","","","","","","","","","","","","perceptual","","","2","36","","","","","352","elephant","10","0","1",""
"","","","","","","","","","","","canvas-button-response","373","758219","0.0-373.0","1114","1","","","","","","","","","","","","","","confidence","","","2","36","","","","","","","","","","21"
"","","","","","","","","","","","preload","374","758220","0.0-374.0","","","","","true","","","","","","","","","","","preload","","","2","37","false","[]","[]","[]","","","","","",""
"","","","","","","","","","","","canvas-keyboard-response","375","758523","0.0-375.0","null","null","","","","","","","","","","","","","","fixation","","","2","37","","","","","","","","","",""
"","","","","","","","","","","","canvas-keyboard-response","376","758826","0.0-376.0","null","null","","","","","","","","","","","","","","stimulus","","","2","37","","","","","","","","","",""
"","","","","","","","","","","","canvas-button-response","377","764719","0.0-377.0","5891","bridge","","","","","","","","","","","","","","perceptual","","","2","37","","","","","266","train","10","0","0",""
"","","","","","","","","","","","canvas-button-response","378","765868","0.0-378.0","1147","2","","","","","","","","","","","","","","confidence","","","2","37","","","","","","","","","","21"
"","","","","","","","","","","","preload","379","765870","0.0-379.0","","","","","true","","","","","","","","","","","preload","","","2","38","false","[]","[]","[]","","","","","",""
"","","","","","","","","","","","canvas-keyboard-response","380","766173","0.0-380.0","null","null","","","","","","","","","","","","","","fixation","","","2","38","","","","","","","","","",""
"","","","","","","","","","","","canvas-keyboard-response","381","766476","0.0-381.0","null","null","","","","","","","","","","","","","","stimulus","","","2","38","","","","","","","","","",""
"","","","","","","","","","","","canvas-button-response","382","767919","0.0-382.0","1441","bridge","","","","","","","","","","","","","","perceptual","","","2","38","","","","","384","knife","10","0","0",""
"","","","","","","","","","","","canvas-button-response","383","769153","0.0-383.0","1231","1","","","","","","","","","","","","","","confidence","","","2","38","","","","","","","","","","21"
"","","","","","","","","","","","preload","384","769154","0.0-384.0","","","","","true","","","","","","","","","","","preload","","","2","39","false","[]","[]","[]","","","","","",""
"","","","","","","","","","","","canvas-keyboard-response","385","769456","0.0-385.0","null","null","","","","","","","","","","","","","","fixation","","","2","39","","","","","","","","","",""
"","","","","","","","","","","","canvas-keyboard-response","386","769760","0.0-386.0","null","null","","","","","","","","","","","","","","stimulus","","","2","39","","","","","","","","","",""
"","","","","","","","","","","","canvas-button-response","387","772053","0.0-387.0","2291","house","","","","","","","","","","","","","","perceptual","","","2","39","","","","","31","house","10","0","1",""
"","","","","","","","","","","","canvas-button-response","388","773252","0.0-388.0","1196","1","","","","","","","","","","","","","","confidence","","","2","39","","","","","","","","","","22"
"","","","","","","","","","","","preload","389","773253","0.0-389.0","","","","","true","","","","","","","","","","","preload","","","2","40","false","[]","[]","[]","","","","","",""
"","","","","","","","","","","","canvas-keyboard-response","390","773555","0.0-390.0","null","null","","","","","","","","","","","","","","fixation","","","2","40","","","","","","","","","",""
"","","","","","","","","","","","canvas-keyboard-response","391","773857","0.0-391.0","null","null","","","","","","","","","","","","","","stimulus","","","2","40","","","","","","","","","",""
"","","","","","","","","","","","canvas-button-response","392","784253","0.0-392.0","10393","car","","","","","","","","","","","","","","perceptual","","","2","40","","","","","164","bridge","6","0","0",""
"","","","","","","","","","","","canvas-button-response","393","794752","0.0-393.0","10497","1","","","","","","","","","","","","","","confidence","","","2","40","","","","","","","","","","22"
"","","","","","","","","","","","preload","394","794753","0.0-394.0","","","","","true","","","","","","","","","","","preload","","","2","41","false","[]","[]","[]","","","","","",""
"","","","","","","","","","","","canvas-keyboard-response","395","795056","0.0-395.0","null","null","","","","","","","","","","","","","","fixation","","","2","41","","","","","","","","","",""
"","","","","","","","","","","","canvas-keyboard-response","396","795359","0.0-396.0","null","null","","","","","","","","","","","","","","stimulus","","","2","41","","","","","","","","","",""
"","","","","","","","","","","","canvas-button-response","397","797052","0.0-397.0","1691","cat","","","","","","","","","","","","","","perceptual","","","2","41","","","","","84","phone","6","0","0",""
"","","","","","","","","","","","canvas-button-response","398","801018","0.0-398.0","3963","5","","","","","","","","","","","","","","confidence","","","2","41","","","","","","","","","","22"
"","","","","","","","","","","","preload","399","801019","0.0-399.0","","","","","true","","","","","","","","","","","preload","","","2","42","false","[]","[]","[]","","","","","",""
"","","","","","","","","","","","canvas-keyboard-response","400","801322","0.0-400.0","null","null","","","","","","","","","","","","","","fixation","","","2","42","","","","","","","","","",""
"","","","","","","","","","","","canvas-keyboard-response","401","801625","0.0-401.0","null","null","","","","","","","","","","","","","","stimulus","","","2","42","","","","","","","","","",""
"","","","","","","","","","","","canvas-button-response","402","802668","0.0-402.0","1041","cat","","","","","","","","","","","","","","perceptual","","","2","42","","","","","285","cat","6","0","1",""
"","","","","","","","","","","","canvas-button-response","403","803402","0.0-403.0","731","10","","","","","","","","","","","","","","confidence","","","2","42","","","","","","","","","","23"
"","","","","","","","","","","","preload","404","803403","0.0-404.0","","","","","true","","","","","","","","","","","preload","","","2","43","false","[]","[]","[]","","","","","",""
"","","","","","","","","","","","canvas-keyboard-response","405","803706","0.0-405.0","null","null","","","","","","","","","","","","","","fixation","","","2","43","","","","","","","","","",""
"","","","","","","","","","","","canvas-keyboard-response","406","804008","0.0-406.0","null","null","","","","","","","","","","","","","","stimulus","","","2","43","","","","","","","","","",""
"","","","","","","","","","","","canvas-button-response","407","806269","0.0-407.0","2259","flower","","","","","","","","","","","","","","perceptual","","","2","43","","","","","101","phone","10","0","0",""
"","","","","","","","","","","","canvas-button-response","408","806985","0.0-408.0","713","2","","","","","","","","","","","","","","confidence","","","2","43","","","","","","","","","","23"
"","","","","","","","","","","","preload","409","806986","0.0-409.0","","","","","true","","","","","","","","","","","preload","","","2","44","false","[]","[]","[]","","","","","",""
"","","","","","","","","","","","canvas-keyboard-response","410","807288","0.0-410.0","null","null","","","","","","","","","","","","","","fixation","","","2","44","","","","","","","","","",""
"","","","","","","","","","","","canvas-keyboard-response","411","807591","0.0-411.0","null","null","","","","","","","","","","","","","","stimulus","","","2","44","","","","","","","","","",""
"","","","","","","","","","","","canvas-button-response","412","808535","0.0-412.0","942","elephant","","","","","","","","","","","","","","perceptual","","","2","44","","","","","339","elephant","6","0","1",""
"","","","","","","","","","","","canvas-button-response","413","809319","0.0-413.0","781","10","","","","","","","","","","","","","","confidence","","","2","44","","","","","","","","","","24"
"","","","","","","","","","","","preload","414","809320","0.0-414.0","","","","","true","","","","","","","","","","","preload","","","2","45","false","[]","[]","[]","","","","","",""
"","","","","","","","","","","","canvas-keyboard-response","415","809623","0.0-415.0","null","null","","","","","","","","","","","","","","fixation","","","2","45","","","","","","","","","",""
"","","","","","","","","","","","canvas-keyboard-response","416","809925","0.0-416.0","null","null","","","","","","","","","","","","","","stimulus","","","2","45","","","","","","","","","",""
"","","","","","","","","","","","canvas-button-response","417","815436","0.0-417.0","5508","bridge","","","","","","","","","","","","","","perceptual","","","2","45","","","","","183","bridge","10","0","1",""
"","","","","","","","","","","","canvas-button-response","418","816635","0.0-418.0","1197","1","","","","","","","","","","","","","","confidence","","","2","45","","","","","","","","","","25"
"","","","","","","","","","","","preload","419","816636","0.0-419.0","","","","","true","","","","","","","","","","","preload","","","2","46","false","[]","[]","[]","","","","","",""
"","","","","","","","","","","","canvas-keyboard-response","420","816937","0.0-420.0","null","null","","","","","","","","","","","","","","fixation","","","2","46","","","","","","","","","",""
"","","","","","","","","","","","canvas-keyboard-response","421","817240","0.0-421.0","null","null","","","","","","","","","","","","","","stimulus","","","2","46","","","","","","","","","",""
"","","","","","","","","","","","canvas-button-response","422","825686","0.0-422.0","8444","train","","","","","","","","","","","","","","perceptual","","","2","46","","","","","272","train","10","0","1",""
"","","","","","","","","","","","canvas-button-response","423","826785","0.0-423.0","1097","3","","","","","","","","","","","","","","confidence","","","2","46","","","","","","","","","","26"
"","","","","","","","","","","","preload","424","826786","0.0-424.0","","","","","true","","","","","","","","","","","preload","","","2","47","false","[]","[]","[]","","","","","",""
"","","","","","","","","","","","canvas-keyboard-response","425","827089","0.0-425.0","null","null","","","","","","","","","","","","","","fixation","","","2","47","","","","","","","","","",""
"","","","","","","","","","","","canvas-keyboard-response","426","827391","0.0-426.0","null","null","","","","","","","","","","","","","","stimulus","","","2","47","","","","","","","","","",""
"","","","","","","","","","","","canvas-button-response","427","828502","0.0-427.0","1108","elephant","","","","","","","","","","","","","","perceptual","","","2","47","","","","","344","elephant","10","0","1",""
"","","","","","","","","","","","canvas-button-response","428","831200","0.0-428.0","2696","10","","","","","","","","","","","","","","confidence","","","2","47","","","","","","","","","","27"
"","","","","","","","","","","","preload","429","831201","0.0-429.0","","","","","true","","","","","","","","","","","preload","","","2","48","false","[]","[]","[]","","","","","",""
"","","","","","","","","","","","canvas-keyboard-response","430","831503","0.0-430.0","null","null","","","","","","","","","","","","","","fixation","","","2","48","","","","","","","","","",""
"","","","","","","","","","","","canvas-keyboard-response","431","831805","0.0-431.0","null","null","","","","","","","","","","","","","","stimulus","","","2","48","","","","","","","","","",""
"","","","","","","","","","","","canvas-button-response","432","832785","0.0-432.0","979","phone","","","","","","","","","","","","","","perceptual","","","2","48","","","","","91","phone","6","0","1",""
"","","","","","","","","","","","canvas-button-response","433","837202","0.0-433.0","4414","10","","","","","","","","","","","","","","confidence","","","2","48","","","","","","","","","","28"
"","","","","","","","","","","","preload","434","837203","0.0-434.0","","","","","true","","","","","","","","","","","preload","","","2","49","false","[]","[]","[]","","","","","",""
"","","","","","","","","","","","canvas-keyboard-response","435","837505","0.0-435.0","null","null","","","","","","","","","","","","","","fixation","","","2","49","","","","","","","","","",""
"","","","","","","","","","","","canvas-keyboard-response","436","837808","0.0-436.0","null","null","","","","","","","","","","","","","","stimulus","","","2","49","","","","","","","","","",""
"","","","","","","","","","","","canvas-button-response","437","841019","0.0-437.0","3208","phone","","","","","","","","","","","","","","perceptual","","","2","49","","","","","82","phone","6","0","1",""
"","","","","","","","","","","","canvas-button-response","438","842235","0.0-438.0","1214","6","","","","","","","","","","","","","","confidence","","","2","49","","","","","","","","","","29"
"","","","","","","","","","","","html-button-response","439","884051","0.0-439.0","41813","0","","","","","","","","","","","","","","<p style=""font-size:20px;color:#000000"">You got 29 out of 50 trials correct in this block.<br><br>You have completed 6% of the experiment.<br><br>Take a short break.<br><br>When you are ready, click Continue to proceed.","","","2","49","","","","","","","","","",""
"","","","","","","","","","","","html-keyboard-response","440","885054","0.0-440.0","null","null","","","","","","","","","","","","","","<p style=""font-size:32px;color:#000000""><br><br> RUN: &nbsp 1/4 <br><br> BLOCK: 2/4 ","","","2","49","","","","","","","","","",""
"","","","","","","","","","","","preload","441","885055","0.0-441.0","","","","","true","","","","","","","","","","","preload","","","2","50","false","[]","[]","[]","","","","","",""
"","","","","","","","","","","","canvas-keyboard-response","442","885358","0.0-442.0","null","null","","","","","","","","","","","","","","fixation","","","2","50","","","","","","","","","",""
"","","","","","","","","","","","canvas-keyboard-response","443","885662","0.0-443.0","null","null","","","","","","","","","","","","","","stimulus","","","2","50","","","","","","","","","",""
"","","","","","","","","","","","canvas-button-response","444","886702","0.0-444.0","1037","car","","","","","","","","","","","","","","perceptual","","","2","50","","","","","48","car","6","0","1",""
"","","","","","","","","","","","canvas-button-response","445","887785","0.0-445.0","1081","6","","","","","","","","","","","","","","confidence","","","2","50","","","","","","","","","","1"
"","","","","","","","","","","","preload","446","887786","0.0-446.0","","","","","true","","","","","","","","","","","preload","","","2","51","false","[]","[]","[]","","","","","",""
"","","","","","","","","","","","canvas-keyboard-response","447","888089","0.0-447.0","null","null","","","","","","","","","","","","","","fixation","","","2","51","","","","","","","","","",""
"","","","","","","","","","","","canvas-keyboard-response","448","888393","0.0-448.0","null","null","","","","","","","","","","","","","","stimulus","","","2","51","","","","","","","","","",""
"","","","","","","","","","","","canvas-button-response","449","889719","0.0-449.0","1323","elephant","","","","","","","","","","","","","","perceptual","","","2","51","","","","","323","elephant","6","0","1",""
"","","","","","","","","","","","canvas-button-response","450","891885","0.0-450.0","2163","4","","","","","","","","","","","","","","confidence","","","2","51","","","","","","","","","","2"
"","","","","","","","","","","","preload","451","891886","0.0-451.0","","","","","true","","","","","","","","","","","preload","","","2","52","false","[]","[]","[]","","","","","",""
"","","","","","","","","","","","canvas-keyboard-response","452","892189","0.0-452.0","null","null","","","","","","","","","","","","","","fixation","","","2","52","","","","","","","","","",""
"","","","","","","","","","","","canvas-keyboard-response","453","892492","0.0-453.0","null","null","","","","","","","","","","","","","","stimulus","","","2","52","","","","","","","","","",""
"","","","","","","","","","","","canvas-button-response","454","893434","0.0-454.0","940","flower","","","","","","","","","","","","","","perceptual","","","2","52","","","","","225","flower","10","0","1",""
"","","","","","","","","","","","canvas-button-response","455","894168","0.0-455.0","731","10","","","","","","","","","","","","","","confidence","","","2","52","","","","","","","","","","3"
"","","","","","","","","","","","preload","456","894169","0.0-456.0","","","","","true","","","","","","","","","","","preload","","","2","53","false","[]","[]","[]","","","","","",""
"","","","","","","","","","","","canvas-keyboard-response","457","894472","0.0-457.0","null","null","","","","","","","","","","","","","","fixation","","","2","53","","","","","","","","","",""
"","","","","","","","","","","","canvas-keyboard-response","458","894775","0.0-458.0","null","null","","","","","","","","","","","","","","stimulus","","","2","53","","","","","","","","","",""
"","","","","","","","","","","","canvas-button-response","459","897901","0.0-459.0","3124","phone","","","","","","","","","","","","","","perceptual","","","2","53","","","","","108","phone","10","0","1",""
"","","","","","","","","","","","canvas-button-response","460","900652","0.0-460.0","2748","3","","","","","","","","","","","","","","confidence","","","2","53","","","","","","","","","","4"
"","","","","","","","","","","","preload","461","900653","0.0-461.0","","","","","true","","","","","","","","","","","preload","","","2","54","false","[]","[]","[]","","","","","",""
"","","","","","","","","","","","canvas-keyboard-response","462","900956","0.0-462.0","null","null","","","","","","","","","","","","","","fixation","","","2","54","","","","","","","","","",""
"","","","","","","","","","","","canvas-keyboard-response","463","901260","0.0-463.0","null","null","","","","","","","","","","","","","","stimulus","","","2","54","","","","","","","","","",""
"","","","","","","","","","","","canvas-button-response","464","902617","0.0-464.0","1355","car","","","","","","","","","","","","","","perceptual","","","2","54","","","","","41","car","6","0","1",""
"","","","","","","","","","","","canvas-button-response","465","903351","0.0-465.0","732","9","","","","","","","","","","","","","","confidence","","","2","54","","","","","","","","","","5"
"","","","","","","","","","","","preload","466","903353","0.0-466.0","","","","","true","","","","","","","","","","","preload","","","2","55","false","[]","[]","[]","","","","","",""
"","","","","","","","","","","","canvas-keyboard-response","467","903655","0.0-467.0","null","null","","","","","","","","","","","","","","fixation","","","2","55","","","","","","","","","",""
"","","","","","","","","","","","canvas-keyboard-response","468","903958","0.0-468.0","null","null","","","","","","","","","","","","","","stimulus","","","2","55","","","","","","","","","",""
"","","","","","","","","","","","canvas-button-response","469","904935","0.0-469.0","974","elephant","","","","","","","","","","","","","","perceptual","","","2","55","","","","","330","elephant","6","0","1",""
"","","","","","","","","","","","canvas-button-response","470","907001","0.0-470.0","2064","10","","","","","","","","","","","","","","confidence","","","2","55","","","","","","","","","","6"
"","","","","","","","","","","","preload","471","907003","0.0-471.0","","","","","true","","","","","","","","","","","preload","","","2","56","false","[]","[]","[]","","","","","",""
"","","","","","","","","","","","canvas-keyboard-response","472","907305","0.0-472.0","null","null","","","","","","","","","","","","","","fixation","","","2","56","","","","","","","","","",""
"","","","","","","","","","","","canvas-keyboard-response","473","907608","0.0-473.0","null","null","","","","","","","","","","","","","","stimulus","","","2","56","","","","","","","","","",""
"","","","","","","","","","","","canvas-button-response","474","913885","0.0-474.0","6274","bridge","","","","","","","","","","","","","","perceptual","","","2","56","","","","","391","knife","10","0","0",""
"","","","","","","","","","","","canvas-button-response","475","915335","0.0-475.0","1447","3","","","","","","","","","","","","","","confidence","","","2","56","","","","","","","","","","6"
"","","","","","","","","","","","preload","476","915336","0.0-476.0","","","","","true","","","","","","","","","","","preload","","","2","57","false","[]","[]","[]","","","","","",""
"","","","","","","","","","","","canvas-keyboard-response","477","915639","0.0-477.0","null","null","","","","","","","","","","","","","","fixation","","","2","57","","","","","","","","","",""
"","","","","","","","","","","","canvas-keyboard-response","478","915942","0.0-478.0","null","null","","","","","","","","","","","","","","stimulus","","","2","57","","","","","","","","","",""
"","","","","","","","","","","","canvas-button-response","479","916701","0.0-479.0","755","flower","","","","","","","","","","","","","","perceptual","","","2","57","","","","","202","flower","6","0","1",""
"","","","","","","","","","","","canvas-button-response","480","920218","0.0-480.0","3515","10","","","","","","","","","","","","","","confidence","","","2","57","","","","","","","","","","7"
"","","","","","","","","","","","preload","481","920220","0.0-481.0","","","","","true","","","","","","","","","","","preload","","","2","58","false","[]","[]","[]","","","","","",""
"","","","","","","","","","","","canvas-keyboard-response","482","920523","0.0-482.0","null","null","","","","","","","","","","","","","","fixation","","","2","58","","","","","","","","","",""
"","","","","","","","","","","","canvas-keyboard-response","483","920825","0.0-483.0","null","null","","","","","","","","","","","","","","stimulus","","","2","58","","","","","","","","","",""
"","","","","","","","","","","","canvas-button-response","484","921801","0.0-484.0","973","elephant","","","","","","","","","","","","","","perceptual","","","2","58","","","","","346","elephant","10","0","1",""
"","","","","","","","","","","","canvas-button-response","485","922818","0.0-485.0","1015","5","","","","","","","","","","","","","","confidence","","","2","58","","","","","","","","","","8"
"","","","","","","","","","","","preload","486","922819","0.0-486.0","","","","","true","","","","","","","","","","","preload","","","2","59","false","[]","[]","[]","","","","","",""
"","","","","","","","","","","","canvas-keyboard-response","487","923121","0.0-487.0","null","null","","","","","","","","","","","","","","fixation","","","2","59","","","","","","","","","",""
"","","","","","","","","","","","canvas-keyboard-response","488","923425","0.0-488.0","null","null","","","","","","","","","","","","","","stimulus","","","2","59","","","","","","","","","",""
"","","","","","","","","","","","canvas-button-response","489","924685","0.0-489.0","1258","bed","","","","","","","","","","","","","","perceptual","","","2","59","","","","","151","bed","10","0","1",""
"","","","","","","","","","","","canvas-button-response","490","925685","0.0-490.0","997","4","","","","","","","","","","","","","","confidence","","","2","59","","","","","","","","","","9"
"","","","","","","","","","","","preload","491","925686","0.0-491.0","","","","","true","","","","","","","","","","","preload","","","2","60","false","[]","[]","[]","","","","","",""
