"width","height","webaudio","browser","browser_version","mobile","os","fullscreen","vsync_rate","webcam","microphone","trial_type","trial_index","time_elapsed","internal_node_id","rt","response","accuracy","view_history","success","item_width_mm","item_height_mm","item_width_px","px2mm","view_dist_mm","item_width_deg","px2deg","scale_factor","win_width_deg","win_height_deg","stimulus","datetime","subjectID","curr_triallist","trial_no","timeout","failed_images","failed_audio","failed_video","image_index","category","blur","reps","correct","running_score"
"1512","809","true","chrome","135.0.0","false","Mac OS","true","119.9","true","true","browser-check","0","510","0.0-0.0","","","","","","","","","","","","","","","","","","","","","","","","","","","","","",""
"","","","","","","","","","","","survey","1","95026","0.0-1.0","94477","{""P0_Q0"":""903753100"",""P0_Q1"":""21"",""P1_Q0"":""Male"",""P1_Q1"":""Hispanic or Latino"",""P1_Q2"":""White"",""P1_Q3"":""Normal"",""P1_Q4"":""Right-Handed""}","[]","","","","","","","","","","","","","","","","","","","","","","","","","","",""
"","","","","","","","","","","","instructions","2","153692","0.0-2.0","58665","","","[{""page_index"":0,""viewing_time"":4972},{""page_index"":1,""viewing_time"":10625},{""page_index"":2,""viewing_time"":27096},{""page_index"":3,""viewing_time"":15972}]","","","","","","","","","","","","","","","","","","","","","","","","","",""
"","","","","","","","","","","","fullscreen","3","157438","0.0-3.0","2743","","","","true","","","","","","","","","","","","","","","","","","","","","","","","",""
"","","","","","","","","","","","virtual-chinrest","4","264089","0.0-4.0","106649","","","","","85.6","53.98","280.88622188531116","3.2835079178722717","522.66","9.362874062843707","30","1.5379892865531517","50.4","31.5","","","","","","","","","","","","","","",""
"","","","","","","","","","","","instructions","5","341908","0.0-5.0","77818","","","[{""page_index"":0,""viewing_time"":19659},{""page_index"":1,""viewing_time"":4830},{""page_index"":2,""viewing_time"":14235},{""page_index"":3,""viewing_time"":6377},{""page_index"":4,""viewing_time"":13165},{""page_index"":5,""viewing_time"":16068},{""page_index"":6,""viewing_time"":3484}]","","","","","","","","","","","","","","","","","","","","","","","","","",""
"","","","","","","","","","","","html-button-response","6","349004","0.0-6.0","7094","0","","","","","","","","","","","","","","start_practice","Mon Oct 13 2025 13:05:56 GMT-0400 (Eastern Daylight Time)","27623","","","","","","","","","","","",""
"","","","","","","","","","","","preload","7","349005","0.0-7.0","","","","","true","","","","","","","","","","","preload","","","0","0","false","[]","[]","[]","","","","","",""
"","","","","","","","","","","","canvas-keyboard-response","8","349308","0.0-8.0","null","null","","","","","","","","","","","","","","fixation","","","0","0","","","","","","","","","",""
"","","","","","","","","","","","canvas-keyboard-response","9","349611","0.0-9.0","null","null","","","","","","","","","","","","","","stimulus","","","0","0","","","","","","","","","",""
"","","","","","","","","","","","canvas-button-response","10","356692","0.0-10.0","7078","house","","","","","","","","","","","","","","perceptual","","","0","0","","","","","82","elephant","1","","0",""
"","","","","","","","","","","","canvas-button-response","11","358317","0.0-11.0","1623","3","","","","","","","","","","","","","","confidence","","","0","0","","","","","","","","","","0"
"","","","","","","","","","","","html-keyboard-response","12","359320","0.0-12.0","null","null","","","","","","","","","","","","","","feedback","Mon Oct 13 2025 13:06:12 GMT-0400 (Eastern Daylight Time)","27623","0","0","","","","","","","","","",""
"","","","","","","","","","","","preload","13","359322","0.0-13.0","","","","","true","","","","","","","","","","","preload","","","0","1","false","[]","[]","[]","","","","","",""
"","","","","","","","","","","","canvas-keyboard-response","14","359625","0.0-14.0","null","null","","","","","","","","","","","","","","fixation","","","0","1","","","","","","","","","",""
"","","","","","","","","","","","canvas-keyboard-response","15","359930","0.0-15.0","null","null","","","","","","","","","","","","","","stimulus","","","0","1","","","","","","","","","",""
"","","","","","","","","","","","canvas-button-response","16","361909","0.0-16.0","1976","train","","","","","","","","","","","","","","perceptual","","","0","1","","","","","62","train","1","","1",""
"","","","","","","","","","","","canvas-button-response","17","362967","0.0-17.0","1057","10","","","","","","","","","","","","","","confidence","","","0","1","","","","","","","","","","1"
"","","","","","","","","","","","html-keyboard-response","18","363969","0.0-18.0","null","null","","","","","","","","","","","","","","feedback","Mon Oct 13 2025 13:06:17 GMT-0400 (Eastern Daylight Time)","27623","0","1","","","","","","","","","",""
"","","","","","","","","","","","preload","19","363971","0.0-19.0","","","","","true","","","","","","","","","","","preload","","","0","2","false","[]","[]","[]","","","","","",""
"","","","","","","","","","","","canvas-keyboard-response","20","364275","0.0-20.0","null","null","","","","","","","","","","","","","","fixation","","","0","2","","","","","","","","","",""
"","","","","","","","","","","","canvas-keyboard-response","21","364579","0.0-21.0","null","null","","","","","","","","","","","","","","stimulus","","","0","2","","","","","","","","","",""
"","","","","","","","","","","","canvas-button-response","22","365432","0.0-22.0","851","car","","","","","","","","","","","","","","perceptual","","","0","2","","","","","12","car","1","","1",""
"","","","","","","","","","","","canvas-button-response","23","366825","0.0-23.0","1392","9","","","","","","","","","","","","","","confidence","","","0","2","","","","","","","","","","2"
"","","","","","","","","","","","html-keyboard-response","24","367828","0.0-24.0","null","null","","","","","","","","","","","","","","feedback","Mon Oct 13 2025 13:06:21 GMT-0400 (Eastern Daylight Time)","27623","0","2","","","","","","","","","",""
"","","","","","","","","","","","preload","25","367830","0.0-25.0","","","","","true","","","","","","","","","","","preload","","","0","3","false","[]","[]","[]","","","","","",""
"","","","","","","","","","","","canvas-keyboard-response","26","368134","0.0-26.0","null","null","","","","","","","","","","","","","","fixation","","","0","3","","","","","","","","","",""
"","","","","","","","","","","","canvas-keyboard-response","27","368438","0.0-27.0","null","null","","","","","","","","","","","","","","stimulus","","","0","3","","","","","","","","","",""
"","","","","","","","","","","","canvas-button-response","28","370620","0.0-28.0","2180","knife","","","","","","","","","","","","","","perceptual","","","0","3","","","","","92","knife","1","","1",""
"","","","","","","","","","","","canvas-button-response","29","371567","0.0-29.0","945","7","","","","","","","","","","","","","","confidence","","","0","3","","","","","","","","","","3"
"","","","","","","","","","","","html-keyboard-response","30","372570","0.0-30.0","null","null","","","","","","","","","","","","","","feedback","Mon Oct 13 2025 13:06:25 GMT-0400 (Eastern Daylight Time)","27623","0","3","","","","","","","","","",""
"","","","","","","","","","","","preload","31","372570","0.0-31.0","","","","","true","","","","","","","","","","","preload","","","0","4","false","[]","[]","[]","","","","","",""
"","","","","","","","","","","","canvas-keyboard-response","32","372872","0.0-32.0","null","null","","","","","","","","","","","","","","fixation","","","0","4","","","","","","","","","",""
"","","","","","","","","","","","canvas-keyboard-response","33","373174","0.0-33.0","null","null","","","","","","","","","","","","","","stimulus","","","0","4","","","","","","","","","",""
"","","","","","","","","","","","canvas-button-response","34","376202","0.0-34.0","3025","phone","","","","","","","","","","","","","","perceptual","","","0","4","","","","","22","phone","1","","1",""
"","","","","","","","","","","","canvas-button-response","35","377104","0.0-35.0","901","10","","","","","","","","","","","","","","confidence","","","0","4","","","","","","","","","","4"
"","","","","","","","","","","","html-keyboard-response","36","378107","0.0-36.0","null","null","","","","","","","","","","","","","","feedback","Mon Oct 13 2025 13:06:31 GMT-0400 (Eastern Daylight Time)","27623","0","4","","","","","","","","","",""
"","","","","","","","","","","","preload","37","378109","0.0-37.0","","","","","true","","","","","","","","","","","preload","","","0","5","false","[]","[]","[]","","","","","",""
"","","","","","","","","","","","canvas-keyboard-response","38","378413","0.0-38.0","null","null","","","","","","","","","","","","","","fixation","","","0","5","","","","","","","","","",""
"","","","","","","","","","","","canvas-keyboard-response","39","378717","0.0-39.0","null","null","","","","","","","","","","","","","","stimulus","","","0","5","","","","","","","","","",""
"","","","","","","","","","","","canvas-button-response","40","381588","0.0-40.0","2868","flower","","","","","","","","","","","","","","perceptual","","","0","5","","","","","52","flower","1","","1",""
"","","","","","","","","","","","canvas-button-response","41","382705","0.0-41.0","1116","6","","","","","","","","","","","","","","confidence","","","0","5","","","","","","","","","","5"
"","","","","","","","","","","","html-keyboard-response","42","383707","0.0-42.0","null","null","","","","","","","","","","","","","","feedback","Mon Oct 13 2025 13:06:36 GMT-0400 (Eastern Daylight Time)","27623","0","5","","","","","","","","","",""
"","","","","","","","","","","","preload","43","383708","0.0-43.0","","","","","true","","","","","","","","","","","preload","","","0","6","false","[]","[]","[]","","","","","",""
"","","","","","","","","","","","canvas-keyboard-response","44","384011","0.0-44.0","null","null","","","","","","","","","","","","","","fixation","","","0","6","","","","","","","","","",""
"","","","","","","","","","","","canvas-keyboard-response","45","384313","0.0-45.0","null","null","","","","","","","","","","","","","","stimulus","","","0","6","","","","","","","","","",""
"","","","","","","","","","","","canvas-button-response","46","385679","0.0-46.0","1365","bed","","","","","","","","","","","","","","perceptual","","","0","6","","","","","32","bed","1","","1",""
"","","","","","","","","","","","canvas-button-response","47","386449","0.0-47.0","769","7","","","","","","","","","","","","","","confidence","","","0","6","","","","","","","","","","6"
"","","","","","","","","","","","html-keyboard-response","48","387452","0.0-48.0","null","null","","","","","","","","","","","","","","feedback","Mon Oct 13 2025 13:06:40 GMT-0400 (Eastern Daylight Time)","27623","0","6","","","","","","","","","",""
"","","","","","","","","","","","preload","49","387453","0.0-49.0","","","","","true","","","","","","","","","","","preload","","","0","7","false","[]","[]","[]","","","","","",""
"","","","","","","","","","","","canvas-keyboard-response","50","387757","0.0-50.0","null","null","","","","","","","","","","","","","","fixation","","","0","7","","","","","","","","","",""
"","","","","","","","","","","","canvas-keyboard-response","51","388061","0.0-51.0","null","null","","","","","","","","","","","","","","stimulus","","","0","7","","","","","","","","","",""
"","","","","","","","","","","","canvas-button-response","52","389154","0.0-52.0","1090","house","","","","","","","","","","","","","","perceptual","","","0","7","","","","","2","house","1","","1",""
"","","","","","","","","","","","canvas-button-response","53","390050","0.0-53.0","896","10","","","","","","","","","","","","","","confidence","","","0","7","","","","","","","","","","7"
"","","","","","","","","","","","html-keyboard-response","54","391054","0.0-54.0","null","null","","","","","","","","","","","","","","feedback","Mon Oct 13 2025 13:06:44 GMT-0400 (Eastern Daylight Time)","27623","0","7","","","","","","","","","",""
"","","","","","","","","","","","preload","55","391056","0.0-55.0","","","","","true","","","","","","","","","","","preload","","","0","8","false","[]","[]","[]","","","","","",""
"","","","","","","","","","","","canvas-keyboard-response","56","391360","0.0-56.0","null","null","","","","","","","","","","","","","","fixation","","","0","8","","","","","","","","","",""
"","","","","","","","","","","","canvas-keyboard-response","57","391664","0.0-57.0","null","null","","","","","","","","","","","","","","stimulus","","","0","8","","","","","","","","","",""
"","","","","","","","","","","","canvas-button-response","58","393895","0.0-58.0","2229","bridge","","","","","","","","","","","","","","perceptual","","","0","8","","","","","42","bridge","1","","1",""
"","","","","","","","","","","","canvas-button-response","59","394728","0.0-59.0","832","10","","","","","","","","","","","","","","confidence","","","0","8","","","","","","","","","","8"
"","","","","","","","","","","","html-keyboard-response","60","395731","0.0-60.0","null","null","","","","","","","","","","","","","","feedback","Mon Oct 13 2025 13:06:48 GMT-0400 (Eastern Daylight Time)","27623","0","8","","","","","","","","","",""
"","","","","","","","","","","","preload","61","395733","0.0-61.0","","","","","true","","","","","","","","","","","preload","","","0","9","false","[]","[]","[]","","","","","",""
"","","","","","","","","","","","canvas-keyboard-response","62","396037","0.0-62.0","null","null","","","","","","","","","","","","","","fixation","","","0","9","","","","","","","","","",""
"","","","","","","","","","","","canvas-keyboard-response","63","396342","0.0-63.0","null","null","","","","","","","","","","","","","","stimulus","","","0","9","","","","","","","","","",""
"","","","","","","","","","","","canvas-button-response","64","397016","0.0-64.0","672","cat","","","","","","","","","","","","","","perceptual","","","0","9","","","","","72","cat","1","","1",""
"","","","","","","","","","","","canvas-button-response","65","397701","0.0-65.0","684","10","","","","","","","","","","","","","","confidence","","","0","9","","","","","","","","","","9"
"","","","","","","","","","","","html-keyboard-response","66","398704","0.0-66.0","null","null","","","","","","","","","","","","","","feedback","Mon Oct 13 2025 13:06:51 GMT-0400 (Eastern Daylight Time)","27623","0","9","","","","","","","","","",""
"","","","","","","","","","","","html-button-response","67","420067","0.0-67.0","21360","0","","","","","","","","","","","","","","start_practice","Mon Oct 13 2025 13:06:52 GMT-0400 (Eastern Daylight Time)","27623","0","9","","","","","","","","","",""
"","","","","","","","","","","","preload","68","420067","0.0-68.0","","","","","true","","","","","","","","","","","preload","","","1","0","false","[]","[]","[]","","","","","",""
"","","","","","","","","","","","canvas-keyboard-response","69","420370","0.0-69.0","null","null","","","","","","","","","","","","","","fixation","","","1","0","","","","","","","","","",""
"","","","","","","","","","","","canvas-keyboard-response","70","420673","0.0-70.0","null","null","","","","","","","","","","","","","","stimulus","","","1","0","","","","","","","","","",""
"","","","","","","","","","","","canvas-button-response","71","426609","0.0-71.0","5933","elephant","","","","","","","","","","","","","","perceptual","","","1","0","","","","","27","phone","10","","0",""
"","","","","","","","","","","","canvas-button-response","72","427943","0.0-72.0","1333","2","","","","","","","","","","","","","","confidence","","","1","0","","","","","","","","","","0"
"","","","","","","","","","","","html-keyboard-response","73","428946","0.0-73.0","null","null","","","","","","","","","","","","","","feedback","Mon Oct 13 2025 13:07:22 GMT-0400 (Eastern Daylight Time)","27623","1","0","","","","","","","","","",""
"","","","","","","","","","","","preload","74","428948","0.0-74.0","","","","","true","","","","","","","","","","","preload","","","1","1","false","[]","[]","[]","","","","","",""
"","","","","","","","","","","","canvas-keyboard-response","75","429251","0.0-75.0","null","null","","","","","","","","","","","","","","fixation","","","1","1","","","","","","","","","",""
"","","","","","","","","","","","canvas-keyboard-response","76","429555","0.0-76.0","null","null","","","","","","","","","","","","","","stimulus","","","1","1","","","","","","","","","",""
"","","","","","","","","","","","canvas-button-response","77","432066","0.0-77.0","2508","flower","","","","","","","","","","","","","","perceptual","","","1","1","","","","","17","car","10","","0",""
"","","","","","","","","","","","canvas-button-response","78","434643","0.0-78.0","2576","5","","","","","","","","","","","","","","confidence","","","1","1","","","","","","","","","","0"
"","","","","","","","","","","","html-keyboard-response","79","435645","0.0-79.0","null","null","","","","","","","","","","","","","","feedback","Mon Oct 13 2025 13:07:28 GMT-0400 (Eastern Daylight Time)","27623","1","1","","","","","","","","","",""
"","","","","","","","","","","","preload","80","435647","0.0-80.0","","","","","true","","","","","","","","","","","preload","","","1","2","false","[]","[]","[]","","","","","",""
"","","","","","","","","","","","canvas-keyboard-response","81","435951","0.0-81.0","null","null","","","","","","","","","","","","","","fixation","","","1","2","","","","","","","","","",""
"","","","","","","","","","","","canvas-keyboard-response","82","436255","0.0-82.0","null","null","","","","","","","","","","","","","","stimulus","","","1","2","","","","","","","","","",""
"","","","","","","","","","","","canvas-button-response","83","443510","0.0-83.0","7252","knife","","","","","","","","","","","","","","perceptual","","","1","2","","","","","94","knife","6","","1",""
"","","","","","","","","","","","canvas-button-response","84","444665","0.0-84.0","1155","4","","","","","","","","","","","","","","confidence","","","1","2","","","","","","","","","","1"
"","","","","","","","","","","","html-keyboard-response","85","445667","0.0-85.0","null","null","","","","","","","","","","","","","","feedback","Mon Oct 13 2025 13:07:38 GMT-0400 (Eastern Daylight Time)","27623","1","2","","","","","","","","","",""
"","","","","","","","","","","","preload","86","445668","0.0-86.0","","","","","true","","","","","","","","","","","preload","","","1","3","false","[]","[]","[]","","","","","",""
"","","","","","","","","","","","canvas-keyboard-response","87","445971","0.0-87.0","null","null","","","","","","","","","","","","","","fixation","","","1","3","","","","","","","","","",""
"","","","","","","","","","","","canvas-keyboard-response","88","446275","0.0-88.0","null","null","","","","","","","","","","","","","","stimulus","","","1","3","","","","","","","","","",""
"","","","","","","","","","","","canvas-button-response","89","447724","0.0-89.0","1447","phone","","","","","","","","","","","","","","perceptual","","","1","3","","","","","24","phone","6","","1",""
"","","","","","","","","","","","canvas-button-response","90","449142","0.0-90.0","1417","7","","","","","","","","","","","","","","confidence","","","1","3","","","","","","","","","","2"
"","","","","","","","","","","","html-keyboard-response","91","450146","0.0-91.0","null","null","","","","","","","","","","","","","","feedback","Mon Oct 13 2025 13:07:43 GMT-0400 (Eastern Daylight Time)","27623","1","3","","","","","","","","","",""
"","","","","","","","","","","","preload","92","450149","0.0-92.0","","","","","true","","","","","","","","","","","preload","","","1","4","false","[]","[]","[]","","","","","",""
"","","","","","","","","","","","canvas-keyboard-response","93","450453","0.0-93.0","null","null","","","","","","","","","","","","","","fixation","","","1","4","","","","","","","","","",""
"","","","","","","","","","","","canvas-keyboard-response","94","450757","0.0-94.0","null","null","","","","","","","","","","","","","","stimulus","","","1","4","","","","","","","","","",""
"","","","","","","","","","","","canvas-button-response","95","451616","0.0-95.0","856","house","","","","","","","","","","","","","","perceptual","","","1","4","","","","","4","house","6","","1",""
"","","","","","","","","","","","canvas-button-response","96","453319","0.0-96.0","1702","10","","","","","","","","","","","","","","confidence","","","1","4","","","","","","","","","","3"
"","","","","","","","","","","","html-keyboard-response","97","454322","0.0-97.0","null","null","","","","","","","","","","","","","","feedback","Mon Oct 13 2025 13:07:47 GMT-0400 (Eastern Daylight Time)","27623","1","4","","","","","","","","","",""
"","","","","","","","","","","","preload","98","454323","0.0-98.0","","","","","true","","","","","","","","","","","preload","","","1","5","false","[]","[]","[]","","","","","",""
"","","","","","","","","","","","canvas-keyboard-response","99","454627","0.0-99.0","null","null","","","","","","","","","","","","","","fixation","","","1","5","","","","","","","","","",""
"","","","","","","","","","","","canvas-keyboard-response","100","454931","0.0-100.0","null","null","","","","","","","","","","","","","","stimulus","","","1","5","","","","","","","","","",""
"","","","","","","","","","","","canvas-button-response","101","459104","0.0-101.0","4171","bridge","","","","","","","","","","","","","","perceptual","","","1","5","","","","","47","bridge","10","","1",""
"","","","","","","","","","","","canvas-button-response","102","459862","0.0-102.0","756","4","","","","","","","","","","","","","","confidence","","","1","5","","","","","","","","","","4"
"","","","","","","","","","","","html-keyboard-response","103","460864","0.0-103.0","null","null","","","","","","","","","","","","","","feedback","Mon Oct 13 2025 13:07:54 GMT-0400 (Eastern Daylight Time)","27623","1","5","","","","","","","","","",""
"","","","","","","","","","","","preload","104","460866","0.0-104.0","","","","","true","","","","","","","","","","","preload","","","1","6","false","[]","[]","[]","","","","","",""
"","","","","","","","","","","","canvas-keyboard-response","105","461169","0.0-105.0","null","null","","","","","","","","","","","","","","fixation","","","1","6","","","","","","","","","",""
"","","","","","","","","","","","canvas-keyboard-response","106","461472","0.0-106.0","null","null","","","","","","","","","","","","","","stimulus","","","1","6","","","","","","","","","",""
"","","","","","","","","","","","canvas-button-response","107","466093","0.0-107.0","4618","train","","","","","","","","","","","","","","perceptual","","","1","6","","","","","44","bridge","6","","0",""
"","","","","","","","","","","","canvas-button-response","108","467092","0.0-108.0","999","2","","","","","","","","","","","","","","confidence","","","1","6","","","","","","","","","","4"
"","","","","","","","","","","","html-keyboard-response","109","468095","0.0-109.0","null","null","","","","","","","","","","","","","","feedback","Mon Oct 13 2025 13:08:01 GMT-0400 (Eastern Daylight Time)","27623","1","6","","","","","","","","","",""
"","","","","","","","","","","","preload","110","468096","0.0-110.0","","","","","true","","","","","","","","","","","preload","","","1","7","false","[]","[]","[]","","","","","",""
"","","","","","","","","","","","canvas-keyboard-response","111","468400","0.0-111.0","null","null","","","","","","","","","","","","","","fixation","","","1","7","","","","","","","","","",""
"","","","","","","","","","","","canvas-keyboard-response","112","468705","0.0-112.0","null","null","","","","","","","","","","","","","","stimulus","","","1","7","","","","","","","","","",""
"","","","","","","","","","","","canvas-button-response","113","469601","0.0-113.0","894","train","","","","","","","","","","","","","","perceptual","","","1","7","","","","","67","train","10","","1",""
"","","","","","","","","","","","canvas-button-response","114","470133","0.0-114.0","531","6","","","","","","","","","","","","","","confidence","","","1","7","","","","","","","","","","5"
"","","","","","","","","","","","html-keyboard-response","115","471135","0.0-115.0","null","null","","","","","","","","","","","","","","feedback","Mon Oct 13 2025 13:08:04 GMT-0400 (Eastern Daylight Time)","27623","1","7","","","","","","","","","",""
"","","","","","","","","","","","preload","116","471137","0.0-116.0","","","","","true","","","","","","","","","","","preload","","","1","8","false","[]","[]","[]","","","","","",""
"","","","","","","","","","","","canvas-keyboard-response","117","471440","0.0-117.0","null","null","","","","","","","","","","","","","","fixation","","","1","8","","","","","","","","","",""
"","","","","","","","","","","","canvas-keyboard-response","118","471744","0.0-118.0","null","null","","","","","","","","","","","","","","stimulus","","","1","8","","","","","","","","","",""
"","","","","","","","","","","","canvas-button-response","119","472929","0.0-119.0","1182","flower","","","","","","","","","","","","","","perceptual","","","1","8","","","","","54","flower","6","","1",""
"","","","","","","","","","","","canvas-button-response","120","473504","0.0-120.0","574","9","","","","","","","","","","","","","","confidence","","","1","8","","","","","","","","","","6"
"","","","","","","","","","","","html-keyboard-response","121","474507","0.0-121.0","null","null","","","","","","","","","","","","","","feedback","Mon Oct 13 2025 13:08:07 GMT-0400 (Eastern Daylight Time)","27623","1","8","","","","","","","","","",""
"","","","","","","","","","","","preload","122","474508","0.0-122.0","","","","","true","","","","","","","","","","","preload","","","1","9","false","[]","[]","[]","","","","","",""
"","","","","","","","","","","","canvas-keyboard-response","123","474809","0.0-123.0","null","null","","","","","","","","","","","","","","fixation","","","1","9","","","","","","","","","",""
"","","","","","","","","","","","canvas-keyboard-response","124","475111","0.0-124.0","null","null","","","","","","","","","","","","","","stimulus","","","1","9","","","","","","","","","",""
"","","","","","","","","","","","canvas-button-response","125","482000","0.0-125.0","6887","bed","","","","","","","","","","","","","","perceptual","","","1","9","","","","","14","car","6","","0",""
"","","","","","","","","","","","canvas-button-response","126","482591","0.0-126.0","591","5","","","","","","","","","","","","","","confidence","","","1","9","","","","","","","","","","6"
"","","","","","","","","","","","html-keyboard-response","127","483594","0.0-127.0","null","null","","","","","","","","","","","","","","feedback","Mon Oct 13 2025 13:08:16 GMT-0400 (Eastern Daylight Time)","27623","1","9","","","","","","","","","",""
"","","","","","","","","","","","preload","128","483596","0.0-128.0","","","","","true","","","","","","","","","","","preload","","","1","10","false","[]","[]","[]","","","","","",""
"","","","","","","","","","","","canvas-keyboard-response","129","483899","0.0-129.0","null","null","","","","","","","","","","","","","","fixation","","","1","10","","","","","","","","","",""
"","","","","","","","","","","","canvas-keyboard-response","130","484204","0.0-130.0","null","null","","","","","","","","","","","","","","stimulus","","","1","10","","","","","","","","","",""
"","","","","","","","","","","","canvas-button-response","131","486718","0.0-131.0","2512","elephant","","","","","","","","","","","","","","perceptual","","","1","10","","","","","87","elephant","10","","1",""
"","","","","","","","","","","","canvas-button-response","132","487875","0.0-132.0","1156","4","","","","","","","","","","","","","","confidence","","","1","10","","","","","","","","","","7"
"","","","","","","","","","","","html-keyboard-response","133","488877","0.0-133.0","null","null","","","","","","","","","","","","","","feedback","Mon Oct 13 2025 13:08:22 GMT-0400 (Eastern Daylight Time)","27623","1","10","","","","","","","","","",""
"","","","","","","","","","","","preload","134","488877","0.0-134.0","","","","","true","","","","","","","","","","","preload","","","1","11","false","[]","[]","[]","","","","","",""
"","","","","","","","","","","","canvas-keyboard-response","135","489180","0.0-135.0","null","null","","","","","","","","","","","","","","fixation","","","1","11","","","","","","","","","",""
"","","","","","","","","","","","canvas-keyboard-response","136","489485","0.0-136.0","null","null","","","","","","","","","","","","","","stimulus","","","1","11","","","","","","","","","",""
"","","","","","","","","","","","canvas-button-response","137","490317","0.0-137.0","829","cat","","","","","","","","","","","","","","perceptual","","","1","11","","","","","37","bed","10","","0",""
"","","","","","","","","","","","canvas-button-response","138","490797","0.0-138.0","479","7","","","","","","","","","","","","","","confidence","","","1","11","","","","","","","","","","7"
"","","","","","","","","","","","html-keyboard-response","139","491800","0.0-139.0","null","null","","","","","","","","","","","","","","feedback","Mon Oct 13 2025 13:08:24 GMT-0400 (Eastern Daylight Time)","27623","1","11","","","","","","","","","",""
"","","","","","","","","","","","preload","140","491801","0.0-140.0","","","","","true","","","","","","","","","","","preload","","","1","12","false","[]","[]","[]","","","","","",""
"","","","","","","","","","","","canvas-keyboard-response","141","492105","0.0-141.0","null","null","","","","","","","","","","","","","","fixation","","","1","12","","","","","","","","","",""
"","","","","","","","","","","","canvas-keyboard-response","142","492409","0.0-142.0","null","null","","","","","","","","","","","","","","stimulus","","","1","12","","","","","","","","","",""
"","","","","","","","","","","","canvas-button-response","143","493295","0.0-143.0","883","cat","","","","","","","","","","","","","","perceptual","","","1","12","","","","","77","cat","10","","1",""
"","","","","","","","","","","","canvas-button-response","144","494042","0.0-144.0","746","5","","","","","","","","","","","","","","confidence","","","1","12","","","","","","","","","","8"
"","","","","","","","","","","","html-keyboard-response","145","495043","0.0-145.0","null","null","","","","","","","","","","","","","","feedback","Mon Oct 13 2025 13:08:28 GMT-0400 (Eastern Daylight Time)","27623","1","12","","","","","","","","","",""
"","","","","","","","","","","","preload","146","495045","0.0-146.0","","","","","true","","","","","","","","","","","preload","","","1","13","false","[]","[]","[]","","","","","",""
"","","","","","","","","","","","canvas-keyboard-response","147","495348","0.0-147.0","null","null","","","","","","","","","","","","","","fixation","","","1","13","","","","","","","","","",""
"","","","","","","","","","","","canvas-keyboard-response","148","495650","0.0-148.0","null","null","","","","","","","","","","","","","","stimulus","","","1","13","","","","","","","","","",""
"","","","","","","","","","","","canvas-button-response","149","496892","0.0-149.0","1241","elephant","","","","","","","","","","","","","","perceptual","","","1","13","","","","","84","elephant","6","","1",""
"","","","","","","","","","","","canvas-button-response","150","497320","0.0-150.0","428","10","","","","","","","","","","","","","","confidence","","","1","13","","","","","","","","","","9"
"","","","","","","","","","","","html-keyboard-response","151","498323","0.0-151.0","null","null","","","","","","","","","","","","","","feedback","Mon Oct 13 2025 13:08:31 GMT-0400 (Eastern Daylight Time)","27623","1","13","","","","","","","","","",""
"","","","","","","","","","","","preload","152","498324","0.0-152.0","","","","","true","","","","","","","","","","","preload","","","1","14","false","[]","[]","[]","","","","","",""
"","","","","","","","","","","","canvas-keyboard-response","153","498626","0.0-153.0","null","null","","","","","","","","","","","","","","fixation","","","1","14","","","","","","","","","",""
"","","","","","","","","","","","canvas-keyboard-response","154","498929","0.0-154.0","null","null","","","","","","","","","","","","","","stimulus","","","1","14","","","","","","","","","",""
"","","","","","","","","","","","canvas-button-response","155","499612","0.0-155.0","680","flower","","","","","","","","","","","","","","perceptual","","","1","14","","","","","57","flower","10","","1",""
"","","","","","","","","","","","canvas-button-response","156","500292","0.0-156.0","679","8","","","","","","","","","","","","","","confidence","","","1","14","","","","","","","","","","10"
"","","","","","","","","","","","html-keyboard-response","157","501295","0.0-157.0","null","null","","","","","","","","","","","","","","feedback","Mon Oct 13 2025 13:08:34 GMT-0400 (Eastern Daylight Time)","27623","1","14","","","","","","","","","",""
"","","","","","","","","","","","preload","158","501297","0.0-158.0","","","","","true","","","","","","","","","","","preload","","","1","15","false","[]","[]","[]","","","","","",""
"","","","","","","","","","","","canvas-keyboard-response","159","501599","0.0-159.0","null","null","","","","","","","","","","","","","","fixation","","","1","15","","","","","","","","","",""
"","","","","","","","","","","","canvas-keyboard-response","160","501902","0.0-160.0","null","null","","","","","","","","","","","","","","stimulus","","","1","15","","","","","","","","","",""
"","","","","","","","","","","","canvas-button-response","161","502917","0.0-161.0","1013","knife","","","","","","","","","","","","","","perceptual","","","1","15","","","","","97","knife","10","","1",""
"","","","","","","","","","","","canvas-button-response","162","503262","0.0-162.0","344","6","","","","","","","","","","","","","","confidence","","","1","15","","","","","","","","","","11"
"","","","","","","","","","","","html-keyboard-response","163","504264","0.0-163.0","null","null","","","","","","","","","","","","","","feedback","Mon Oct 13 2025 13:08:37 GMT-0400 (Eastern Daylight Time)","27623","1","15","","","","","","","","","",""
"","","","","","","","","","","","preload","164","504265","0.0-164.0","","","","","true","","","","","","","","","","","preload","","","1","16","false","[]","[]","[]","","","","","",""
"","","","","","","","","","","","canvas-keyboard-response","165","504567","0.0-165.0","null","null","","","","","","","","","","","","","","fixation","","","1","16","","","","","","","","","",""
"","","","","","","","","","","","canvas-keyboard-response","166","504871","0.0-166.0","null","null","","","","","","","","","","","","","","stimulus","","","1","16","","","","","","","","","",""
"","","","","","","","","","","","canvas-button-response","167","505712","0.0-167.0","839","train","","","","","","","","","","","","","","perceptual","","","1","16","","","","","64","train","6","","1",""
"","","","","","","","","","","","canvas-button-response","168","506112","0.0-168.0","399","7","","","","","","","","","","","","","","confidence","","","1","16","","","","","","","","","","12"
"","","","","","","","","","","","html-keyboard-response","169","507115","0.0-169.0","null","null","","","","","","","","","","","","","","feedback","Mon Oct 13 2025 13:08:40 GMT-0400 (Eastern Daylight Time)","27623","1","16","","","","","","","","","",""
"","","","","","","","","","","","preload","170","507117","0.0-170.0","","","","","true","","","","","","","","","","","preload","","","1","17","false","[]","[]","[]","","","","","",""
"","","","","","","","","","","","canvas-keyboard-response","171","507420","0.0-171.0","null","null","","","","","","","","","","","","","","fixation","","","1","17","","","","","","","","","",""
"","","","","","","","","","","","canvas-keyboard-response","172","507724","0.0-172.0","null","null","","","","","","","","","","","","","","stimulus","","","1","17","","","","","","","","","",""
"","","","","","","","","","","","canvas-button-response","173","508666","0.0-173.0","938","bed","","","","","","","","","","","","","","perceptual","","","1","17","","","","","34","bed","6","","1",""
"","","","","","","","","","","","canvas-button-response","174","509085","0.0-174.0","418","8","","","","","","","","","","","","","","confidence","","","1","17","","","","","","","","","","13"
"","","","","","","","","","","","html-keyboard-response","175","510087","0.0-175.0","null","null","","","","","","","","","","","","","","feedback","Mon Oct 13 2025 13:08:43 GMT-0400 (Eastern Daylight Time)","27623","1","17","","","","","","","","","",""
"","","","","","","","","","","","preload","176","510089","0.0-176.0","","","","","true","","","","","","","","","","","preload","","","1","18","false","[]","[]","[]","","","","","",""
"","","","","","","","","","","","canvas-keyboard-response","177","510392","0.0-177.0","null","null","","","","","","","","","","","","","","fixation","","","1","18","","","","","","","","","",""
"","","","","","","","","","","","canvas-keyboard-response","178","510693","0.0-178.0","null","null","","","","","","","","","","","","","","stimulus","","","1","18","","","","","","","","","",""
"","","","","","","","","","","","canvas-button-response","179","511379","0.0-179.0","685","house","","","","","","","","","","","","","","perceptual","","","1","18","","","","","7","house","10","","1",""
"","","","","","","","","","","","canvas-button-response","180","511716","0.0-180.0","336","4","","","","","","","","","","","","","","confidence","","","1","18","","","","","","","","","","14"
"","","","","","","","","","","","html-keyboard-response","181","512718","0.0-181.0","null","null","","","","","","","","","","","","","","feedback","Mon Oct 13 2025 13:08:45 GMT-0400 (Eastern Daylight Time)","27623","1","18","","","","","","","","","",""
"","","","","","","","","","","","preload","182","512720","0.0-182.0","","","","","true","","","","","","","","","","","preload","","","1","19","false","[]","[]","[]","","","","","",""
"","","","","","","","","","","","canvas-keyboard-response","183","513024","0.0-183.0","null","null","","","","","","","","","","","","","","fixation","","","1","19","","","","","","","","","",""
"","","","","","","","","","","","canvas-keyboard-response","184","513328","0.0-184.0","null","null","","","","","","","","","","","","","","stimulus","","","1","19","","","","","","","","","",""
"","","","","","","","","","","","canvas-button-response","185","514141","0.0-185.0","810","cat","","","","","","","","","","","","","","perceptual","","","1","19","","","","","74","cat","6","","1",""
"","","","","","","","","","","","canvas-button-response","186","514574","0.0-186.0","433","3","","","","","","","","","","","","","","confidence","","","1","19","","","","","","","","","","15"
"","","","","","","","","","","","html-keyboard-response","187","515577","0.0-187.0","null","null","","","","","","","","","","","","","","feedback","Mon Oct 13 2025 13:08:48 GMT-0400 (Eastern Daylight Time)","27623","1","19","","","","","","","","","",""
"","","","","","","","","","","","html-button-response","188","553208","0.0-188.0","37628","0","","","","","","","","","","","","","","start experiment","Mon Oct 13 2025 13:08:49 GMT-0400 (Eastern Daylight Time)","27623","1","19","","","","","","","","","",""
"","","","","","","","","","","","preload","189","553209","0.0-189.0","","","","","true","","","","","","","","","","","preload","","","2","0","false","[]","[]","[]","","","","","",""
"","","","","","","","","","","","canvas-keyboard-response","190","553512","0.0-190.0","null","null","","","","","","","","","","","","","","fixation","","","2","0","","","","","","","","","",""
"","","","","","","","","","","","canvas-keyboard-response","191","553815","0.0-191.0","null","null","","","","","","","","","","","","","","stimulus","","","2","0","","","","","","","","","",""
"","","","","","","","","","","","canvas-button-response","192","554720","0.0-192.0","905","train","","","","","","","","","","","","","","perceptual","","","2","0","","","","","255","train","6","0","1",""
"","","","","","","","","","","","canvas-button-response","193","555066","0.0-193.0","346","8","","","","","","","","","","","","","","confidence","","","2","0","","","","","","","","","","1"
"","","","","","","","","","","","preload","194","555066","0.0-194.0","","","","","true","","","","","","","","","","","preload","","","2","1","false","[]","[]","[]","","","","","",""
"","","","","","","","","","","","canvas-keyboard-response","195","555368","0.0-195.0","null","null","","","","","","","","","","","","","","fixation","","","2","1","","","","","","","","","",""
"","","","","","","","","","","","canvas-keyboard-response","196","555670","0.0-196.0","null","null","","","","","","","","","","","","","","stimulus","","","2","1","","","","","","","","","",""
"","","","","","","","","","","","canvas-button-response","197","557699","0.0-197.0","2026","bed","","","","","","","","","","","","","","perceptual","","","2","1","","","","","139","bed","6","0","1",""
"","","","","","","","","","","","canvas-button-response","198","558310","0.0-198.0","610","4","","","","","","","","","","","","","","confidence","","","2","1","","","","","","","","","","2"
"","","","","","","","","","","","preload","199","558310","0.0-199.0","","","","","true","","","","","","","","","","","preload","","","2","2","false","[]","[]","[]","","","","","",""
"","","","","","","","","","","","canvas-keyboard-response","200","558614","0.0-200.0","null","null","","","","","","","","","","","","","","fixation","","","2","2","","","","","","","","","",""
"","","","","","","","","","","","canvas-keyboard-response","201","558917","0.0-201.0","null","null","","","","","","","","","","","","","","stimulus","","","2","2","","","","","","","","","",""
"","","","","","","","","","","","canvas-button-response","202","559853","0.0-202.0","934","flower","","","","","","","","","","","","","","perceptual","","","2","2","","","","","214","flower","6","0","1",""
"","","","","","","","","","","","canvas-button-response","203","561184","0.0-203.0","1330","3","","","","","","","","","","","","","","confidence","","","2","2","","","","","","","","","","3"
"","","","","","","","","","","","preload","204","561184","0.0-204.0","","","","","true","","","","","","","","","","","preload","","","2","3","false","[]","[]","[]","","","","","",""
"","","","","","","","","","","","canvas-keyboard-response","205","561486","0.0-205.0","null","null","","","","","","","","","","","","","","fixation","","","2","3","","","","","","","","","",""
"","","","","","","","","","","","canvas-keyboard-response","206","561788","0.0-206.0","null","null","","","","","","","","","","","","","","stimulus","","","2","3","","","","","","","","","",""
"","","","","","","","","","","","canvas-button-response","207","562551","0.0-207.0","760","elephant","","","","","","","","","","","","","","perceptual","","","2","3","","","","","333","elephant","6","0","1",""
"","","","","","","","","","","","canvas-button-response","208","563000","0.0-208.0","449","9","","","","","","","","","","","","","","confidence","","","2","3","","","","","","","","","","4"
"","","","","","","","","","","","preload","209","563001","0.0-209.0","","","","","true","","","","","","","","","","","preload","","","2","4","false","[]","[]","[]","","","","","",""
"","","","","","","","","","","","canvas-keyboard-response","210","563302","0.0-210.0","null","null","","","","","","","","","","","","","","fixation","","","2","4","","","","","","","","","",""
"","","","","","","","","","","","canvas-keyboard-response","211","563605","0.0-211.0","null","null","","","","","","","","","","","","","","stimulus","","","2","4","","","","","","","","","",""
"","","","","","","","","","","","canvas-button-response","212","564375","0.0-212.0","767","train","","","","","","","","","","","","","","perceptual","","","2","4","","","","","243","train","6","0","1",""
"","","","","","","","","","","","canvas-button-response","213","565069","0.0-213.0","693","10","","","","","","","","","","","","","","confidence","","","2","4","","","","","","","","","","5"
"","","","","","","","","","","","preload","214","565069","0.0-214.0","","","","","true","","","","","","","","","","","preload","","","2","5","false","[]","[]","[]","","","","","",""
"","","","","","","","","","","","canvas-keyboard-response","215","565371","0.0-215.0","null","null","","","","","","","","","","","","","","fixation","","","2","5","","","","","","","","","",""
"","","","","","","","","","","","canvas-keyboard-response","216","565674","0.0-216.0","null","null","","","","","","","","","","","","","","stimulus","","","2","5","","","","","","","","","",""
"","","","","","","","","","","","canvas-button-response","217","566930","0.0-217.0","1253","cat","","","","","","","","","","","","","","perceptual","","","2","5","","","","","297","cat","6","0","1",""
"","","","","","","","","","","","canvas-button-response","218","567501","0.0-218.0","570","7","","","","","","","","","","","","","","confidence","","","2","5","","","","","","","","","","6"
"","","","","","","","","","","","preload","219","567501","0.0-219.0","","","","","true","","","","","","","","","","","preload","","","2","6","false","[]","[]","[]","","","","","",""
"","","","","","","","","","","","canvas-keyboard-response","220","567803","0.0-220.0","null","null","","","","","","","","","","","","","","fixation","","","2","6","","","","","","","","","",""
"","","","","","","","","","","","canvas-keyboard-response","221","568105","0.0-221.0","null","null","","","","","","","","","","","","","","stimulus","","","2","6","","","","","","","","","",""
"","","","","","","","","","","","canvas-button-response","222","569299","0.0-222.0","1194","car","","","","","","","","","","","","","","perceptual","","","2","6","","","","","159","bed","10","0","0",""
"","","","","","","","","","","","canvas-button-response","223","570005","0.0-223.0","704","4","","","","","","","","","","","","","","confidence","","","2","6","","","","","","","","","","6"
"","","","","","","","","","","","preload","224","570005","0.0-224.0","","","","","true","","","","","","","","","","","preload","","","2","7","false","[]","[]","[]","","","","","",""
"","","","","","","","","","","","canvas-keyboard-response","225","570306","0.0-225.0","null","null","","","","","","","","","","","","","","fixation","","","2","7","","","","","","","","","",""
"","","","","","","","","","","","canvas-keyboard-response","226","570609","0.0-226.0","null","null","","","","","","","","","","","","","","stimulus","","","2","7","","","","","","","","","",""
"","","","","","","","","","","","canvas-button-response","227","573950","0.0-227.0","3338","bridge","","","","","","","","","","","","","","perceptual","","","2","7","","","","","119","phone","10","0","0",""
"","","","","","","","","","","","canvas-button-response","228","574988","0.0-228.0","1038","2","","","","","","","","","","","","","","confidence","","","2","7","","","","","","","","","","6"
"","","","","","","","","","","","preload","229","574988","0.0-229.0","","","","","true","","","","","","","","","","","preload","","","2","8","false","[]","[]","[]","","","","","",""
"","","","","","","","","","","","canvas-keyboard-response","230","575290","0.0-230.0","null","null","","","","","","","","","","","","","","fixation","","","2","8","","","","","","","","","",""
"","","","","","","","","","","","canvas-keyboard-response","231","575592","0.0-231.0","null","null","","","","","","","","","","","","","","stimulus","","","2","8","","","","","","","","","",""
"","","","","","","","","","","","canvas-button-response","232","576375","0.0-232.0","780","knife","","","","","","","","","","","","","","perceptual","","","2","8","","","","","376","knife","6","0","1",""
"","","","","","","","","","","","canvas-button-response","233","576993","0.0-233.0","617","8","","","","","","","","","","","","","","confidence","","","2","8","","","","","","","","","","7"
"","","","","","","","","","","","preload","234","576993","0.0-234.0","","","","","true","","","","","","","","","","","preload","","","2","9","false","[]","[]","[]","","","","","",""
"","","","","","","","","","","","canvas-keyboard-response","235","577295","0.0-235.0","null","null","","","","","","","","","","","","","","fixation","","","2","9","","","","","","","","","",""
"","","","","","","","","","","","canvas-keyboard-response","236","577597","0.0-236.0","null","null","","","","","","","","","","","","","","stimulus","","","2","9","","","","","","","","","",""
"","","","","","","","","","","","canvas-button-response","237","580069","0.0-237.0","2470","car","","","","","","","","","","","","","","perceptual","","","2","9","","","","","383","knife","10","0","0",""
"","","","","","","","","","","","canvas-button-response","238","580874","0.0-238.0","803","5","","","","","","","","","","","","","","confidence","","","2","9","","","","","","","","","","7"
"","","","","","","","","","","","preload","239","580875","0.0-239.0","","","","","true","","","","","","","","","","","preload","","","2","10","false","[]","[]","[]","","","","","",""
"","","","","","","","","","","","canvas-keyboard-response","240","581178","0.0-240.0","null","null","","","","","","","","","","","","","","fixation","","","2","10","","","","","","","","","",""
"","","","","","","","","","","","canvas-keyboard-response","241","581481","0.0-241.0","null","null","","","","","","","","","","","","","","stimulus","","","2","10","","","","","","","","","",""
"","","","","","","","","","","","canvas-button-response","242","582814","0.0-242.0","1330","knife","","","","","","","","","","","","","","perceptual","","","2","10","","","","","372","knife","6","0","1",""
"","","","","","","","","","","","canvas-button-response","243","583525","0.0-243.0","710","3","","","","","","","","","","","","","","confidence","","","2","10","","","","","","","","","","8"
"","","","","","","","","","","","preload","244","583525","0.0-244.0","","","","","true","","","","","","","","","","","preload","","","2","11","false","[]","[]","[]","","","","","",""
"","","","","","","","","","","","canvas-keyboard-response","245","583827","0.0-245.0","null","null","","","","","","","","","","","","","","fixation","","","2","11","","","","","","","","","",""
"","","","","","","","","","","","canvas-keyboard-response","246","584130","0.0-246.0","null","null","","","","","","","","","","","","","","stimulus","","","2","11","","","","","","","","","",""
"","","","","","","","","","","","canvas-button-response","247","584951","0.0-247.0","819","elephant","","","","","","","","","","","","","","perceptual","","","2","11","","","","","336","elephant","6","0","1",""
"","","","","","","","","","","","canvas-button-response","248","585708","0.0-248.0","756","4","","","","","","","","","","","","","","confidence","","","2","11","","","","","","","","","","9"
"","","","","","","","","","","","preload","249","585708","0.0-249.0","","","","","true","","","","","","","","","","","preload","","","2","12","false","[]","[]","[]","","","","","",""
"","","","","","","","","","","","canvas-keyboard-response","250","586011","0.0-250.0","null","null","","","","","","","","","","","","","","fixation","","","2","12","","","","","","","","","",""
"","","","","","","","","","","","canvas-keyboard-response","251","586315","0.0-251.0","null","null","","","","","","","","","","","","","","stimulus","","","2","12","","","","","","","","","",""
"","","","","","","","","","","","canvas-button-response","252","587097","0.0-252.0","779","train","","","","","","","","","","","","","","perceptual","","","2","12","","","","","240","train","6","0","1",""
"","","","","","","","","","","","canvas-button-response","253","587440","0.0-253.0","342","8","","","","","","","","","","","","","","confidence","","","2","12","","","","","","","","","","10"
"","","","","","","","","","","","preload","254","587440","0.0-254.0","","","","","true","","","","","","","","","","","preload","","","2","13","false","[]","[]","[]","","","","","",""
"","","","","","","","","","","","canvas-keyboard-response","255","587742","0.0-255.0","null","null","","","","","","","","","","","","","","fixation","","","2","13","","","","","","","","","",""
"","","","","","","","","","","","canvas-keyboard-response","256","588045","0.0-256.0","null","null","","","","","","","","","","","","","","stimulus","","","2","13","","","","","","","","","",""
"","","","","","","","","","","","canvas-button-response","257","588704","0.0-257.0","657","flower","","","","","","","","","","","","","","perceptual","","","2","13","","","","","208","flower","6","0","1",""
"","","","","","","","","","","","canvas-button-response","258","589305","0.0-258.0","600","10","","","","","","","","","","","","","","confidence","","","2","13","","","","","","","","","","11"
"","","","","","","","","","","","preload","259","589305","0.0-259.0","","","","","true","","","","","","","","","","","preload","","","2","14","false","[]","[]","[]","","","","","",""
"","","","","","","","","","","","canvas-keyboard-response","260","589606","0.0-260.0","null","null","","","","","","","","","","","","","","fixation","","","2","14","","","","","","","","","",""
"","","","","","","","","","","","canvas-keyboard-response","261","589909","0.0-261.0","null","null","","","","","","","","","","","","","","stimulus","","","2","14","","","","","","","","","",""
"","","","","","","","","","","","canvas-button-response","262","590964","0.0-262.0","1052","bed","","","","","","","","","","","","","","perceptual","","","2","14","","","","","120","bed","6","0","1",""
"","","","","","","","","","","","canvas-button-response","263","591771","0.0-263.0","806","10","","","","","","","","","","","","","","confidence","","","2","14","","","","","","","","","","12"
"","","","","","","","","","","","preload","264","591771","0.0-264.0","","","","","true","","","","","","","","","","","preload","","","2","15","false","[]","[]","[]","","","","","",""
"","","","","","","","","","","","canvas-keyboard-response","265","592073","0.0-265.0","null","null","","","","","","","","","","","","","","fixation","","","2","15","","","","","","","","","",""
"","","","","","","","","","","","canvas-keyboard-response","266","592375","0.0-266.0","null","null","","","","","","","","","","","","","","stimulus","","","2","15","","","","","","","","","",""
"","","","","","","","","","","","canvas-button-response","267","594555","0.0-267.0","2176","house","","","","","","","","","","","","","","perceptual","","","2","15","","","","","332","elephant","6","0","0",""
"","","","","","","","","","","","canvas-button-response","268","594891","0.0-268.0","336","4","","","","","","","","","","","","","","confidence","","","2","15","","","","","","","","","","12"
"","","","","","","","","","","","preload","269","594891","0.0-269.0","","","","","true","","","","","","","","","","","preload","","","2","16","false","[]","[]","[]","","","","","",""
"","","","","","","","","","","","canvas-keyboard-response","270","595193","0.0-270.0","null","null","","","","","","","","","","","","","","fixation","","","2","16","","","","","","","","","",""
"","","","","","","","","","","","canvas-keyboard-response","271","595495","0.0-271.0","null","null","","","","","","","","","","","","","","stimulus","","","2","16","","","","","","","","","",""
"","","","","","","","","","","","canvas-button-response","272","596516","0.0-272.0","1018","knife","","","","","","","","","","","","","","perceptual","","","2","16","","","","","192","bridge","10","0","0",""
"","","","","","","","","","","","canvas-button-response","273","596845","0.0-273.0","329","8","","","","","","","","","","","","","","confidence","","","2","16","","","","","","","","","","12"
"","","","","","","","","","","","preload","274","596846","0.0-274.0","","","","","true","","","","","","","","","","","preload","","","2","17","false","[]","[]","[]","","","","","",""
"","","","","","","","","","","","canvas-keyboard-response","275","597147","0.0-275.0","null","null","","","","","","","","","","","","","","fixation","","","2","17","","","","","","","","","",""
"","","","","","","","","","","","canvas-keyboard-response","276","597449","0.0-276.0","null","null","","","","","","","","","","","","","","stimulus","","","2","17","","","","","","","","","",""
"","","","","","","","","","","","canvas-button-response","277","598662","0.0-277.0","1210","cat","","","","","","","","","","","","","","perceptual","","","2","17","","","","","293","cat","6","0","1",""
"","","","","","","","","","","","canvas-button-response","278","600321","0.0-278.0","1658","4","","","","","","","","","","","","","","confidence","","","2","17","","","","","","","","","","13"
"","","","","","","","","","","","preload","279","600321","0.0-279.0","","","","","true","","","","","","","","","","","preload","","","2","18","false","[]","[]","[]","","","","","",""
"","","","","","","","","","","","canvas-keyboard-response","280","600624","0.0-280.0","null","null","","","","","","","","","","","","","","fixation","","","2","18","","","","","","","","","",""
"","","","","","","","","","","","canvas-keyboard-response","281","600928","0.0-281.0","null","null","","","","","","","","","","","","","","stimulus","","","2","18","","","","","","","","","",""
"","","","","","","","","","","","canvas-button-response","282","601567","0.0-282.0","636","knife","","","","","","","","","","","","","","perceptual","","","2","18","","","","","380","knife","10","0","1",""
"","","","","","","","","","","","canvas-button-response","283","602129","0.0-283.0","562","7","","","","","","","","","","","","","","confidence","","","2","18","","","","","","","","","","14"
"","","","","","","","","","","","preload","284","602130","0.0-284.0","","","","","true","","","","","","","","","","","preload","","","2","19","false","[]","[]","[]","","","","","",""
"","","","","","","","","","","","canvas-keyboard-response","285","602432","0.0-285.0","null","null","","","","","","","","","","","","","","fixation","","","2","19","","","","","","","","","",""
"","","","","","","","","","","","canvas-keyboard-response","286","602734","0.0-286.0","null","null","","","","","","","","","","","","","","stimulus","","","2","19","","","","","","","","","",""
"","","","","","","","","","","","canvas-button-response","287","605979","0.0-287.0","3242","bed","","","","","","","","","","","","","","perceptual","","","2","19","","","","","136","bed","6","0","1",""
"","","","","","","","","","","","canvas-button-response","288","607559","0.0-288.0","1579","6","","","","","","","","","","","","","","confidence","","","2","19","","","","","","","","","","15"
"","","","","","","","","","","","preload","289","607559","0.0-289.0","","","","","true","","","","","","","","","","","preload","","","2","20","false","[]","[]","[]","","","","","",""
"","","","","","","","","","","","canvas-keyboard-response","290","607862","0.0-290.0","null","null","","","","","","","","","","","","","","fixation","","","2","20","","","","","","","","","",""
"","","","","","","","","","","","canvas-keyboard-response","291","608166","0.0-291.0","null","null","","","","","","","","","","","","","","stimulus","","","2","20","","","","","","","","","",""
"","","","","","","","","","","","canvas-button-response","292","608977","0.0-292.0","808","knife","","","","","","","","","","","","","","perceptual","","","2","20","","","","","393","knife","10","0","1",""
"","","","","","","","","","","","canvas-button-response","293","609583","0.0-293.0","605","4","","","","","","","","","","","","","","confidence","","","2","20","","","","","","","","","","16"
"","","","","","","","","","","","preload","294","609584","0.0-294.0","","","","","true","","","","","","","","","","","preload","","","2","21","false","[]","[]","[]","","","","","",""
"","","","","","","","","","","","canvas-keyboard-response","295","609885","0.0-295.0","null","null","","","","","","","","","","","","","","fixation","","","2","21","","","","","","","","","",""
"","","","","","","","","","","","canvas-keyboard-response","296","610188","0.0-296.0","null","null","","","","","","","","","","","","","","stimulus","","","2","21","","","","","","","","","",""
"","","","","","","","","","","","canvas-button-response","297","610950","0.0-297.0","759","train","","","","","","","","","","","","","","perceptual","","","2","21","","","","","143","bed","10","0","0",""
"","","","","","","","","","","","canvas-button-response","298","612479","0.0-298.0","1528","5","","","","","","","","","","","","","","confidence","","","2","21","","","","","","","","","","16"
"","","","","","","","","","","","preload","299","612479","0.0-299.0","","","","","true","","","","","","","","","","","preload","","","2","22","false","[]","[]","[]","","","","","",""
"","","","","","","","","","","","canvas-keyboard-response","300","612782","0.0-300.0","null","null","","","","","","","","","","","","","","fixation","","","2","22","","","","","","","","","",""
"","","","","","","","","","","","canvas-keyboard-response","301","613086","0.0-301.0","null","null","","","","","","","","","","","","","","stimulus","","","2","22","","","","","","","","","",""
"","","","","","","","","","","","canvas-button-response","302","614680","0.0-302.0","1592","phone","","","","","","","","","","","","","","perceptual","","","2","22","","","","","87","phone","6","0","1",""
"","","","","","","","","","","","canvas-button-response","303","615513","0.0-303.0","832","6","","","","","","","","","","","","","","confidence","","","2","22","","","","","","","","","","17"
"","","","","","","","","","","","preload","304","615513","0.0-304.0","","","","","true","","","","","","","","","","","preload","","","2","23","false","[]","[]","[]","","","","","",""
"","","","","","","","","","","","canvas-keyboard-response","305","615815","0.0-305.0","null","null","","","","","","","","","","","","","","fixation","","","2","23","","","","","","","","","",""
"","","","","","","","","","","","canvas-keyboard-response","306","616118","0.0-306.0","null","null","","","","","","","","","","","","","","stimulus","","","2","23","","","","","","","","","",""
"","","","","","","","","","","","canvas-button-response","307","619197","0.0-307.0","3076","flower","","","","","","","","","","","","","","perceptual","","","2","23","","","","","228","flower","10","0","1",""
"","","","","","","","","","","","canvas-button-response","308","620271","0.0-308.0","1074","4","","","","","","","","","","","","","","confidence","","","2","23","","","","","","","","","","18"
"","","","","","","","","","","","preload","309","620272","0.0-309.0","","","","","true","","","","","","","","","","","preload","","","2","24","false","[]","[]","[]","","","","","",""
"","","","","","","","","","","","canvas-keyboard-response","310","620574","0.0-310.0","null","null","","","","","","","","","","","","","","fixation","","","2","24","","","","","","","","","",""
"","","","","","","","","","","","canvas-keyboard-response","311","620876","0.0-311.0","null","null","","","","","","","","","","","","","","stimulus","","","2","24","","","","","","","","","",""
"","","","","","","","","","","","canvas-button-response","312","621663","0.0-312.0","785","car","","","","","","","","","","","","","","perceptual","","","2","24","","","","","45","car","6","0","1",""
"","","","","","","","","","","","canvas-button-response","313","626140","0.0-313.0","4476","10","","","","","","","","","","","","","","confidence","","","2","24","","","","","","","","","","19"
"","","","","","","","","","","","preload","314","626140","0.0-314.0","","","","","true","","","","","","","","","","","preload","","","2","25","false","[]","[]","[]","","","","","",""
"","","","","","","","","","","","canvas-keyboard-response","315","626442","0.0-315.0","null","null","","","","","","","","","","","","","","fixation","","","2","25","","","","","","","","","",""
"","","","","","","","","","","","canvas-keyboard-response","316","626746","0.0-316.0","null","null","","","","","","","","","","","","","","stimulus","","","2","25","","","","","","","","","",""
"","","","","","","","","","","","canvas-button-response","317","627712","0.0-317.0","963","cat","","","","","","","","","","","","","","perceptual","","","2","25","","","","","268","train","10","0","0",""
"","","","","","","","","","","","canvas-button-response","318","628283","0.0-318.0","570","5","","","","","","","","","","","","","","confidence","","","2","25","","","","","","","","","","19"
"","","","","","","","","","","","preload","319","628284","0.0-319.0","","","","","true","","","","","","","","","","","preload","","","2","26","false","[]","[]","[]","","","","","",""
"","","","","","","","","","","","canvas-keyboard-response","320","628585","0.0-320.0","null","null","","","","","","","","","","","","","","fixation","","","2","26","","","","","","","","","",""
"","","","","","","","","","","","canvas-keyboard-response","321","628887","0.0-321.0","null","null","","","","","","","","","","","","","","stimulus","","","2","26","","","","","","","","","",""
"","","","","","","","","","","","canvas-button-response","322","629483","0.0-322.0","595","car","","","","","","","","","","","","","","perceptual","","","2","26","","","","","58","car","6","0","1",""
"","","","","","","","","","","","canvas-button-response","323","630134","0.0-323.0","650","6","","","","","","","","","","","","","","confidence","","","2","26","","","","","","","","","","20"
"","","","","","","","","","","","preload","324","630134","0.0-324.0","","","","","true","","","","","","","","","","","preload","","","2","27","false","[]","[]","[]","","","","","",""
"","","","","","","","","","","","canvas-keyboard-response","325","630438","0.0-325.0","null","null","","","","","","","","","","","","","","fixation","","","2","27","","","","","","","","","",""
"","","","","","","","","","","","canvas-keyboard-response","326","630741","0.0-326.0","null","null","","","","","","","","","","","","","","stimulus","","","2","27","","","","","","","","","",""
"","","","","","","","","","","","canvas-button-response","327","632381","0.0-327.0","1639","house","","","","","","","","","","","","","","perceptual","","","2","27","","","","","100","phone","10","0","0",""
"","","","","","","","","","","","canvas-button-response","328","632701","0.0-328.0","320","3","","","","","","","","","","","","","","confidence","","","2","27","","","","","","","","","","20"
"","","","","","","","","","","","preload","329","632701","0.0-329.0","","","","","true","","","","","","","","","","","preload","","","2","28","false","[]","[]","[]","","","","","",""
"","","","","","","","","","","","canvas-keyboard-response","330","633004","0.0-330.0","null","null","","","","","","","","","","","","","","fixation","","","2","28","","","","","","","","","",""
"","","","","","","","","","","","canvas-keyboard-response","331","633307","0.0-331.0","null","null","","","","","","","","","","","","","","stimulus","","","2","28","","","","","","","","","",""
"","","","","","","","","","","","canvas-button-response","332","638097","0.0-332.0","4787","phone","","","","","","","","","","","","","","perceptual","","","2","28","","","","","222","flower","10","0","0",""
"","","","","","","","","","","","canvas-button-response","333","638562","0.0-333.0","465","5","","","","","","","","","","","","","","confidence","","","2","28","","","","","","","","","","20"
"","","","","","","","","","","","preload","334","638563","0.0-334.0","","","","","true","","","","","","","","","","","preload","","","2","29","false","[]","[]","[]","","","","","",""
"","","","","","","","","","","","canvas-keyboard-response","335","638864","0.0-335.0","null","null","","","","","","","","","","","","","","fixation","","","2","29","","","","","","","","","",""
"","","","","","","","","","","","canvas-keyboard-response","336","639168","0.0-336.0","null","null","","","","","","","","","","","","","","stimulus","","","2","29","","","","","","","","","",""
"","","","","","","","","","","","canvas-button-response","337","639883","0.0-337.0","712","elephant","","","","","","","","","","","","","","perceptual","","","2","29","","","","","344","elephant","10","0","1",""
"","","","","","","","","","","","canvas-button-response","338","640362","0.0-338.0","478","10","","","","","","","","","","","","","","confidence","","","2","29","","","","","","","","","","21"
"","","","","","","","","","","","preload","339","640363","0.0-339.0","","","","","true","","","","","","","","","","","preload","","","2","30","false","[]","[]","[]","","","","","",""
"","","","","","","","","","","","canvas-keyboard-response","340","640664","0.0-340.0","null","null","","","","","","","","","","","","","","fixation","","","2","30","","","","","","","","","",""
"","","","","","","","","","","","canvas-keyboard-response","341","640966","0.0-341.0","null","null","","","","","","","","","","","","","","stimulus","","","2","30","","","","","","","","","",""
"","","","","","","","","","","","canvas-button-response","342","642492","0.0-342.0","1522","cat","","","","","","","","","","","","","","perceptual","","","2","30","","","","","101","phone","10","0","0",""
"","","","","","","","","","","","canvas-button-response","343","642917","0.0-343.0","425","7","","","","","","","","","","","","","","confidence","","","2","30","","","","","","","","","","21"
"","","","","","","","","","","","preload","344","642917","0.0-344.0","","","","","true","","","","","","","","","","","preload","","","2","31","false","[]","[]","[]","","","","","",""
"","","","","","","","","","","","canvas-keyboard-response","345","643219","0.0-345.0","null","null","","","","","","","","","","","","","","fixation","","","2","31","","","","","","","","","",""
"","","","","","","","","","","","canvas-keyboard-response","346","643521","0.0-346.0","null","null","","","","","","","","","","","","","","stimulus","","","2","31","","","","","","","","","",""
"","","","","","","","","","","","canvas-button-response","347","645904","0.0-347.0","2380","bridge","","","","","","","","","","","","","","perceptual","","","2","31","","","","","321","elephant","6","0","0",""
"","","","","","","","","","","","canvas-button-response","348","646312","0.0-348.0","408","4","","","","","","","","","","","","","","confidence","","","2","31","","","","","","","","","","21"
"","","","","","","","","","","","preload","349","646313","0.0-349.0","","","","","true","","","","","","","","","","","preload","","","2","32","false","[]","[]","[]","","","","","",""
"","","","","","","","","","","","canvas-keyboard-response","350","646615","0.0-350.0","null","null","","","","","","","","","","","","","","fixation","","","2","32","","","","","","","","","",""
"","","","","","","","","","","","canvas-keyboard-response","351","646918","0.0-351.0","null","null","","","","","","","","","","","","","","stimulus","","","2","32","","","","","","","","","",""
"","","","","","","","","","","","canvas-button-response","352","649161","0.0-352.0","2241","house","","","","","","","","","","","","","","perceptual","","","2","32","","","","","363","knife","6","0","0",""
"","","","","","","","","","","","canvas-button-response","353","649634","0.0-353.0","472","3","","","","","","","","","","","","","","confidence","","","2","32","","","","","","","","","","21"
"","","","","","","","","","","","preload","354","649634","0.0-354.0","","","","","true","","","","","","","","","","","preload","","","2","33","false","[]","[]","[]","","","","","",""
"","","","","","","","","","","","canvas-keyboard-response","355","649937","0.0-355.0","null","null","","","","","","","","","","","","","","fixation","","","2","33","","","","","","","","","",""
"","","","","","","","","","","","canvas-keyboard-response","356","650240","0.0-356.0","null","null","","","","","","","","","","","","","","stimulus","","","2","33","","","","","","","","","",""
"","","","","","","","","","","","canvas-button-response","357","651154","0.0-357.0","911","flower","","","","","","","","","","","","","","perceptual","","","2","33","","","","","238","flower","10","0","1",""
"","","","","","","","","","","","canvas-button-response","358","652042","0.0-358.0","887","6","","","","","","","","","","","","","","confidence","","","2","33","","","","","","","","","","22"
"","","","","","","","","","","","preload","359","652043","0.0-359.0","","","","","true","","","","","","","","","","","preload","","","2","34","false","[]","[]","[]","","","","","",""
"","","","","","","","","","","","canvas-keyboard-response","360","652344","0.0-360.0","null","null","","","","","","","","","","","","","","fixation","","","2","34","","","","","","","","","",""
"","","","","","","","","","","","canvas-keyboard-response","361","652647","0.0-361.0","null","null","","","","","","","","","","","","","","stimulus","","","2","34","","","","","","","","","",""
"","","","","","","","","","","","canvas-button-response","362","653154","0.0-362.0","505","car","","","","","","","","","","","","","","perceptual","","","2","34","","","","","68","car","10","0","1",""
"","","","","","","","","","","","canvas-button-response","363","653737","0.0-363.0","582","8","","","","","","","","","","","","","","confidence","","","2","34","","","","","","","","","","23"
"","","","","","","","","","","","preload","364","653737","0.0-364.0","","","","","true","","","","","","","","","","","preload","","","2","35","false","[]","[]","[]","","","","","",""
"","","","","","","","","","","","canvas-keyboard-response","365","654041","0.0-365.0","null","null","","","","","","","","","","","","","","fixation","","","2","35","","","","","","","","","",""
"","","","","","","","","","","","canvas-keyboard-response","366","654345","0.0-366.0","null","null","","","","","","","","","","","","","","stimulus","","","2","35","","","","","","","","","",""
"","","","","","","","","","","","canvas-button-response","367","655309","0.0-367.0","961","train","","","","","","","","","","","","","","perceptual","","","2","35","","","","","183","bridge","10","0","0",""
"","","","","","","","","","","","canvas-button-response","368","655796","0.0-368.0","486","6","","","","","","","","","","","","","","confidence","","","2","35","","","","","","","","","","23"
"","","","","","","","","","","","preload","369","655796","0.0-369.0","","","","","true","","","","","","","","","","","preload","","","2","36","false","[]","[]","[]","","","","","",""
"","","","","","","","","","","","canvas-keyboard-response","370","656100","0.0-370.0","null","null","","","","","","","","","","","","","","fixation","","","2","36","","","","","","","","","",""
"","","","","","","","","","","","canvas-keyboard-response","371","656404","0.0-371.0","null","null","","","","","","","","","","","","","","stimulus","","","2","36","","","","","","","","","",""
"","","","","","","","","","","","canvas-button-response","372","657196","0.0-372.0","789","house","","","","","","","","","","","","","","perceptual","","","2","36","","","","","17","house","6","0","1",""
"","","","","","","","","","","","canvas-button-response","373","657967","0.0-373.0","770","10","","","","","","","","","","","","","","confidence","","","2","36","","","","","","","","","","24"
"","","","","","","","","","","","preload","374","657967","0.0-374.0","","","","","true","","","","","","","","","","","preload","","","2","37","false","[]","[]","[]","","","","","",""
"","","","","","","","","","","","canvas-keyboard-response","375","658269","0.0-375.0","null","null","","","","","","","","","","","","","","fixation","","","2","37","","","","","","","","","",""
"","","","","","","","","","","","canvas-keyboard-response","376","658571","0.0-376.0","null","null","","","","","","","","","","","","","","stimulus","","","2","37","","","","","","","","","",""
"","","","","","","","","","","","canvas-button-response","377","659392","0.0-377.0","818","phone","","","","","","","","","","","","","","perceptual","","","2","37","","","","","91","phone","6","0","1",""
"","","","","","","","","","","","canvas-button-response","378","660531","0.0-378.0","1138","9","","","","","","","","","","","","","","confidence","","","2","37","","","","","","","","","","25"
"","","","","","","","","","","","preload","379","660532","0.0-379.0","","","","","true","","","","","","","","","","","preload","","","2","38","false","[]","[]","[]","","","","","",""
"","","","","","","","","","","","canvas-keyboard-response","380","660833","0.0-380.0","null","null","","","","","","","","","","","","","","fixation","","","2","38","","","","","","","","","",""
"","","","","","","","","","","","canvas-keyboard-response","381","661135","0.0-381.0","null","null","","","","","","","","","","","","","","stimulus","","","2","38","","","","","","","","","",""
"","","","","","","","","","","","canvas-button-response","382","663459","0.0-382.0","2322","bed","","","","","","","","","","","","","","perceptual","","","2","38","","","","","158","bed","10","0","1",""
"","","","","","","","","","","","canvas-button-response","383","663884","0.0-383.0","423","3","","","","","","","","","","","","","","confidence","","","2","38","","","","","","","","","","26"
"","","","","","","","","","","","preload","384","663884","0.0-384.0","","","","","true","","","","","","","","","","","preload","","","2","39","false","[]","[]","[]","","","","","",""
"","","","","","","","","","","","canvas-keyboard-response","385","664186","0.0-385.0","null","null","","","","","","","","","","","","","","fixation","","","2","39","","","","","","","","","",""
"","","","","","","","","","","","canvas-keyboard-response","386","664488","0.0-386.0","null","null","","","","","","","","","","","","","","stimulus","","","2","39","","","","","","","","","",""
"","","","","","","","","","","","canvas-button-response","387","665206","0.0-387.0","715","car","","","","","","","","","","","","","","perceptual","","","2","39","","","","","105","phone","10","0","0",""
"","","","","","","","","","","","canvas-button-response","388","665651","0.0-388.0","444","4","","","","","","","","","","","","","","confidence","","","2","39","","","","","","","","","","26"
"","","","","","","","","","","","preload","389","665651","0.0-389.0","","","","","true","","","","","","","","","","","preload","","","2","40","false","[]","[]","[]","","","","","",""
"","","","","","","","","","","","canvas-keyboard-response","390","665952","0.0-390.0","null","null","","","","","","","","","","","","","","fixation","","","2","40","","","","","","","","","",""
"","","","","","","","","","","","canvas-keyboard-response","391","666253","0.0-391.0","null","null","","","","","","","","","","","","","","stimulus","","","2","40","","","","","","","","","",""
"","","","","","","","","","","","canvas-button-response","392","666878","0.0-392.0","624","train","","","","","","","","","","","","","","perceptual","","","2","40","","","","","276","train","10","0","1",""
"","","","","","","","","","","","canvas-button-response","393","668222","0.0-393.0","1343","10","","","","","","","","","","","","","","confidence","","","2","40","","","","","","","","","","27"
"","","","","","","","","","","","preload","394","668223","0.0-394.0","","","","","true","","","","","","","","","","","preload","","","2","41","false","[]","[]","[]","","","","","",""
"","","","","","","","","","","","canvas-keyboard-response","395","668525","0.0-395.0","null","null","","","","","","","","","","","","","","fixation","","","2","41","","","","","","","","","",""
"","","","","","","","","","","","canvas-keyboard-response","396","668828","0.0-396.0","null","null","","","","","","","","","","","","","","stimulus","","","2","41","","","","","","","","","",""
"","","","","","","","","","","","canvas-button-response","397","669846","0.0-397.0","1015","flower","","","","","","","","","","","","","","perceptual","","","2","41","","","","","216","flower","6","0","1",""
"","","","","","","","","","","","canvas-button-response","398","670559","0.0-398.0","711","10","","","","","","","","","","","","","","confidence","","","2","41","","","","","","","","","","28"
"","","","","","","","","","","","preload","399","670559","0.0-399.0","","","","","true","","","","","","","","","","","preload","","","2","42","false","[]","[]","[]","","","","","",""
"","","","","","","","","","","","canvas-keyboard-response","400","670861","0.0-400.0","null","null","","","","","","","","","","","","","","fixation","","","2","42","","","","","","","","","",""
"","","","","","","","","","","","canvas-keyboard-response","401","671163","0.0-401.0","null","null","","","","","","","","","","","","","","stimulus","","","2","42","","","","","","","","","",""
"","","","","","","","","","","","canvas-button-response","402","672235","0.0-402.0","1070","house","","","","","","","","","","","","","","perceptual","","","2","42","","","","","282","cat","6","0","0",""
"","","","","","","","","","","","canvas-button-response","403","673439","0.0-403.0","1202","5","","","","","","","","","","","","","","confidence","","","2","42","","","","","","","","","","28"
"","","","","","","","","","","","preload","404","673439","0.0-404.0","","","","","true","","","","","","","","","","","preload","","","2","43","false","[]","[]","[]","","","","","",""
"","","","","","","","","","","","canvas-keyboard-response","405","673742","0.0-405.0","null","null","","","","","","","","","","","","","","fixation","","","2","43","","","","","","","","","",""
"","","","","","","","","","","","canvas-keyboard-response","406","674045","0.0-406.0","null","null","","","","","","","","","","","","","","stimulus","","","2","43","","","","","","","","","",""
"","","","","","","","","","","","canvas-button-response","407","674730","0.0-407.0","682","car","","","","","","","","","","","","","","perceptual","","","2","43","","","","","126","bed","6","0","0",""
"","","","","","","","","","","","canvas-button-response","408","675176","0.0-408.0","445","6","","","","","","","","","","","","","","confidence","","","2","43","","","","","","","","","","28"
"","","","","","","","","","","","preload","409","675176","0.0-409.0","","","","","true","","","","","","","","","","","preload","","","2","44","false","[]","[]","[]","","","","","",""
"","","","","","","","","","","","canvas-keyboard-response","410","675480","0.0-410.0","null","null","","","","","","","","","","","","","","fixation","","","2","44","","","","","","","","","",""
"","","","","","","","","","","","canvas-keyboard-response","411","675783","0.0-411.0","null","null","","","","","","","","","","","","","","stimulus","","","2","44","","","","","","","","","",""
"","","","","","","","","","","","canvas-button-response","412","676363","0.0-412.0","577","car","","","","","","","","","","","","","","perceptual","","","2","44","","","","","51","car","6","0","1",""
"","","","","","","","","","","","canvas-button-response","413","677097","0.0-413.0","734","9","","","","","","","","","","","","","","confidence","","","2","44","","","","","","","","","","29"
"","","","","","","","","","","","preload","414","677098","0.0-414.0","","","","","true","","","","","","","","","","","preload","","","2","45","false","[]","[]","[]","","","","","",""
"","","","","","","","","","","","canvas-keyboard-response","415","677400","0.0-415.0","null","null","","","","","","","","","","","","","","fixation","","","2","45","","","","","","","","","",""
"","","","","","","","","","","","canvas-keyboard-response","416","677704","0.0-416.0","null","null","","","","","","","","","","","","","","stimulus","","","2","45","","","","","","","","","",""
"","","","","","","","","","","","canvas-button-response","417","678684","0.0-417.0","977","bridge","","","","","","","","","","","","","","perceptual","","","2","45","","","","","165","bridge","6","0","1",""
"","","","","","","","","","","","canvas-button-response","418","679244","0.0-418.0","559","10","","","","","","","","","","","","","","confidence","","","2","45","","","","","","","","","","30"
"","","","","","","","","","","","preload","419","679245","0.0-419.0","","","","","true","","","","","","","","","","","preload","","","2","46","false","[]","[]","[]","","","","","",""
"","","","","","","","","","","","canvas-keyboard-response","420","679547","0.0-420.0","null","null","","","","","","","","","","","","","","fixation","","","2","46","","","","","","","","","",""
"","","","","","","","","","","","canvas-keyboard-response","421","679850","0.0-421.0","null","null","","","","","","","","","","","","","","stimulus","","","2","46","","","","","","","","","",""
"","","","","","","","","","","","canvas-button-response","422","682030","0.0-422.0","2177","bed","","","","","","","","","","","","","","perceptual","","","2","46","","","","","22","house","10","0","0",""
"","","","","","","","","","","","canvas-button-response","423","684496","0.0-423.0","2465","3","","","","","","","","","","","","","","confidence","","","2","46","","","","","","","","","","30"
"","","","","","","","","","","","preload","424","684496","0.0-424.0","","","","","true","","","","","","","","","","","preload","","","2","47","false","[]","[]","[]","","","","","",""
"","","","","","","","","","","","canvas-keyboard-response","425","684798","0.0-425.0","null","null","","","","","","","","","","","","","","fixation","","","2","47","","","","","","","","","",""
"","","","","","","","","","","","canvas-keyboard-response","426","685101","0.0-426.0","null","null","","","","","","","","","","","","","","stimulus","","","2","47","","","","","","","","","",""
"","","","","","","","","","","","canvas-button-response","427","686367","0.0-427.0","1263","house","","","","","","","","","","","","","","perceptual","","","2","47","","","","","14","house","6","0","1",""
"","","","","","","","","","","","canvas-button-response","428","687104","0.0-428.0","736","8","","","","","","","","","","","","","","confidence","","","2","47","","","","","","","","","","31"
"","","","","","","","","","","","preload","429","687105","0.0-429.0","","","","","true","","","","","","","","","","","preload","","","2","48","false","[]","[]","[]","","","","","",""
"","","","","","","","","","","","canvas-keyboard-response","430","687406","0.0-430.0","null","null","","","","","","","","","","","","","","fixation","","","2","48","","","","","","","","","",""
"","","","","","","","","","","","canvas-keyboard-response","431","687708","0.0-431.0","null","null","","","","","","","","","","","","","","stimulus","","","2","48","","","","","","","","","",""
"","","","","","","","","","","","canvas-button-response","432","688767","0.0-432.0","1057","car","","","","","","","","","","","","","","perceptual","","","2","48","","","","","54","car","6","0","1",""
"","","","","","","","","","","","canvas-button-response","433","689521","0.0-433.0","753","8","","","","","","","","","","","","","","confidence","","","2","48","","","","","","","","","","32"
"","","","","","","","","","","","preload","434","689521","0.0-434.0","","","","","true","","","","","","","","","","","preload","","","2","49","false","[]","[]","[]","","","","","",""
"","","","","","","","","","","","canvas-keyboard-response","435","689824","0.0-435.0","null","null","","","","","","","","","","","","","","fixation","","","2","49","","","","","","","","","",""
"","","","","","","","","","","","canvas-keyboard-response","436","690128","0.0-436.0","null","null","","","","","","","","","","","","","","stimulus","","","2","49","","","","","","","","","",""
"","","","","","","","","","","","canvas-button-response","437","690993","0.0-437.0","862","elephant","","","","","","","","","","","","","","perceptual","","","2","49","","","","","324","elephant","6","0","1",""
"","","","","","","","","","","","canvas-button-response","438","692275","0.0-438.0","1282","6","","","","","","","","","","","","","","confidence","","","2","49","","","","","","","","","","33"
"","","","","","","","","","","","html-button-response","439","699037","0.0-439.0","6760","0","","","","","","","","","","","","","","<p style=""font-size:20px;color:#000000"">You got 33 out of 50 trials correct in this block.<br><br>You have completed 6% of the experiment.<br><br>Take a short break.<br><br>When you are ready, click Continue to proceed.","","","2","49","","","","","","","","","",""
"","","","","","","","","","","","html-keyboard-response","440","700040","0.0-440.0","null","null","","","","","","","","","","","","","","<p style=""font-size:32px;color:#000000""><br><br> RUN: &nbsp 1/4 <br><br> BLOCK: 2/4 ","","","2","49","","","","","","","","","",""
"","","","","","","","","","","","preload","441","700042","0.0-441.0","","","","","true","","","","","","","","","","","preload","","","2","50","false","[]","[]","[]","","","","","",""
"","","","","","","","","","","","canvas-keyboard-response","442","700346","0.0-442.0","null","null","","","","","","","","","","","","","","fixation","","","2","50","","","","","","","","","",""
"","","","","","","","","","","","canvas-keyboard-response","443","700649","0.0-443.0","null","null","","","","","","","","","","","","","","stimulus","","","2","50","","","","","","","","","",""
"","","","","","","","","","","","canvas-button-response","444","702226","0.0-444.0","1575","phone","","","","","","","","","","","","","","perceptual","","","2","50","","","","","86","phone","6","0","1",""
"","","","","","","","","","","","canvas-button-response","445","702588","0.0-445.0","362","7","","","","","","","","","","","","","","confidence","","","2","50","","","","","","","","","","1"
"","","","","","","","","","","","preload","446","702589","0.0-446.0","","","","","true","","","","","","","","","","","preload","","","2","51","false","[]","[]","[]","","","","","",""
"","","","","","","","","","","","canvas-keyboard-response","447","702891","0.0-447.0","null","null","","","","","","","","","","","","","","fixation","","","2","51","","","","","","","","","",""
"","","","","","","","","","","","canvas-keyboard-response","448","703195","0.0-448.0","null","null","","","","","","","","","","","","","","stimulus","","","2","51","","","","","","","","","",""
"","","","","","","","","","","","canvas-button-response","449","704702","0.0-449.0","1504","cat","","","","","","","","","","","","","","perceptual","","","2","51","","","","","134","bed","6","0","0",""
"","","","","","","","","","","","canvas-button-response","450","705080","0.0-450.0","377","7","","","","","","","","","","","","","","confidence","","","2","51","","","","","","","","","","1"
"","","","","","","","","","","","preload","451","705081","0.0-451.0","","","","","true","","","","","","","","","","","preload","","","2","52","false","[]","[]","[]","","","","","",""
"","","","","","","","","","","","canvas-keyboard-response","452","705382","0.0-452.0","null","null","","","","","","","","","","","","","","fixation","","","2","52","","","","","","","","","",""
"","","","","","","","","","","","canvas-keyboard-response","453","705683","0.0-453.0","null","null","","","","","","","","","","","","","","stimulus","","","2","52","","","","","","","","","",""
"","","","","","","","","","","","canvas-button-response","454","707029","0.0-454.0","1345","flower","","","","","","","","","","","","","","perceptual","","","2","52","","","","","215","flower","6","0","1",""
"","","","","","","","","","","","canvas-button-response","455","707698","0.0-455.0","667","10","","","","","","","","","","","","","","confidence","","","2","52","","","","","","","","","","2"
"","","","","","","","","","","","preload","456","707698","0.0-456.0","","","","","true","","","","","","","","","","","preload","","","2","53","false","[]","[]","[]","","","","","",""
"","","","","","","","","","","","canvas-keyboard-response","457","708001","0.0-457.0","null","null","","","","","","","","","","","","","","fixation","","","2","53","","","","","","","","","",""
"","","","","","","","","","","","canvas-keyboard-response","458","708303","0.0-458.0","null","null","","","","","","","","","","","","","","stimulus","","","2","53","","","","","","","","","",""
"","","","","","","","","","","","canvas-button-response","459","709026","0.0-459.0","720","flower","","","","","","","","","","","","","","perceptual","","","2","53","","","","","212","flower","6","0","1",""
"","","","","","","","","","","","canvas-button-response","460","709671","0.0-460.0","645","8","","","","","","","","","","","","","","confidence","","","2","53","","","","","","","","","","3"
"","","","","","","","","","","","preload","461","709672","0.0-461.0","","","","","true","","","","","","","","","","","preload","","","2","54","false","[]","[]","[]","","","","","",""
"","","","","","","","","","","","canvas-keyboard-response","462","709973","0.0-462.0","null","null","","","","","","","","","","","","","","fixation","","","2","54","","","","","","","","","",""
"","","","","","","","","","","","canvas-keyboard-response","463","710275","0.0-463.0","null","null","","","","","","","","","","","","","","stimulus","","","2","54","","","","","","","","","",""
"","","","","","","","","","","","canvas-button-response","464","711281","0.0-464.0","1005","elephant","","","","","","","","","","","","","","perceptual","","","2","54","","","","","21","house","10","0","0",""
"","","","","","","","","","","","canvas-button-response","465","711809","0.0-465.0","527","7","","","","","","","","","","","","","","confidence","","","2","54","","","","","","","","","","3"
"","","","","","","","","","","","preload","466","711809","0.0-466.0","","","","","true","","","","","","","","","","","preload","","","2","55","false","[]","[]","[]","","","","","",""
"","","","","","","","","","","","canvas-keyboard-response","467","712112","0.0-467.0","null","null","","","","","","","","","","","","","","fixation","","","2","55","","","","","","","","","",""
"","","","","","","","","","","","canvas-keyboard-response","468","712416","0.0-468.0","null","null","","","","","","","","","","","","","","stimulus","","","2","55","","","","","","","","","",""
"","","","","","","","","","","","canvas-button-response","469","713042","0.0-469.0","623","knife","","","","","","","","","","","","","","perceptual","","","2","55","","","","","61","car","10","0","0",""
"","","","","","","","","","","","canvas-button-response","470","714908","0.0-470.0","1866","0","","","","","","","","","","","","","","confidence","","","2","55","","","","","","","","","","3"
"","","","","","","","","","","","preload","471","714909","0.0-471.0","","","","","true","","","","","","","","","","","preload","","","2","56","false","[]","[]","[]","","","","","",""
"","","","","","","","","","","","canvas-keyboard-response","472","715210","0.0-472.0","null","null","","","","","","","","","","","","","","fixation","","","2","56","","","","","","","","","",""
"","","","","","","","","","","","canvas-keyboard-response","473","715514","0.0-473.0","null","null","","","","","","","","","","","","","","stimulus","","","2","56","","","","","","","","","",""
"","","","","","","","","","","","canvas-button-response","474","716771","0.0-474.0","1254","cat","","","","","","","","","","","","","","perceptual","","","2","56","","","","","334","elephant","6","0","0",""
"","","","","","","","","","","","canvas-button-response","475","717572","0.0-475.0","801","4","","","","","","","","","","","","","","confidence","","","2","56","","","","","","","","","","3"
"","","","","","","","","","","","preload","476","717573","0.0-476.0","","","","","true","","","","","","","","","","","preload","","","2","57","false","[]","[]","[]","","","","","",""
"","","","","","","","","","","","canvas-keyboard-response","477","717874","0.0-477.0","null","null","","","","","","","","","","","","","","fixation","","","2","57","","","","","","","","","",""
"","","","","","","","","","","","canvas-keyboard-response","478","718175","0.0-478.0","null","null","","","","","","","","","","","","","","stimulus","","","2","57","","","","","","","","","",""
"","","","","","","","","","","","canvas-button-response","479","719159","0.0-479.0","982","house","","","","","","","","","","","","","","perceptual","","","2","57","","","","","20","house","10","0","1",""
"","","","","","","","","","","","canvas-button-response","480","721222","0.0-480.0","2062","9","","","","","","","","","","","","","","confidence","","","2","57","","","","","","","","","","4"
"","","","","","","","","","","","preload","481","721222","0.0-481.0","","","","","true","","","","","","","","","","","preload","","","2","58","false","[]","[]","[]","","","","","",""
"","","","","","","","","","","","canvas-keyboard-response","482","721523","0.0-482.0","null","null","","","","","","","","","","","","","","fixation","","","2","58","","","","","","","","","",""
"","","","","","","","","","","","canvas-keyboard-response","483","721826","0.0-483.0","null","null","","","","","","","","","","","","","","stimulus","","","2","58","","","","","","","","","",""
"","","","","","","","","","","","canvas-button-response","484","724969","0.0-484.0","3140","knife","","","","","","","","","","","","","","perceptual","","","2","58","","","","","373","knife","6","0","1",""
"","","","","","","","","","","","canvas-button-response","485","725850","0.0-485.0","880","4","","","","","","","","","","","","","","confidence","","","2","58","","","","","","","","","","5"
"","","","","","","","","","","","preload","486","725850","0.0-486.0","","","","","true","","","","","","","","","","","preload","","","2","59","false","[]","[]","[]","","","","","",""
"","","","","","","","","","","","canvas-keyboard-response","487","726152","0.0-487.0","null","null","","","","","","","","","","","","","","fixation","","","2","59","","","","","","","","","",""
"","","","","","","","","","","","canvas-keyboard-response","488","726456","0.0-488.0","null","null","","","","","","","","","","","","","","stimulus","","","2","59","","","","","","","","","",""
"","","","","","","","","","","","canvas-button-response","489","727225","0.0-489.0","767","phone","","","","","","","","","","","","","","perceptual","","","2","59","","","","","88","phone","6","0","1",""
"","","","","","","","","","","","canvas-button-response","490","727818","0.0-490.0","592","10","","","","","","","","","","","","","","confidence","","","2","59","","","","","","","","","","6"
"","","","","","","","","","","","preload","491","727818","0.0-491.0","","","","","true","","","","","","","","","","","preload","","","2","60","false","[]","[]","[]","","","","","",""
"","","","","","","","","","","","canvas-keyboard-response","492","728121","0.0-492.0","null","null","","","","","","","","","","","","","","fixation","","","2","60","","","","","","","","","",""
