"width","height","webaudio","browser","browser_version","mobile","os","fullscreen","vsync_rate","webcam","microphone","trial_type","trial_index","time_elapsed","internal_node_id","rt","response","accuracy","view_history","success","item_width_mm","item_height_mm","item_width_px","px2mm","view_dist_mm","item_width_deg","px2deg","scale_factor","win_width_deg","win_height_deg","stimulus","datetime","subjectID","curr_triallist","trial_no","timeout","failed_images","failed_audio","failed_video","image_index","category","blur","reps","correct","running_score"
"1920","917","true","chrome","141.0.0","false","Windows 10","true","145.88","true","true","browser-check","0","3077","0.0-0.0","","","","","","","","","","","","","","","","","","","","","","","","","","","","","",""
"","","","","","","","","","","","survey","1","33422","0.0-1.0","30315","{""P0_Q0"":""903571203"",""P0_Q1"":""23"",""P1_Q0"":""Male"",""P1_Q1"":""Not Hispanic or Latino"",""P1_Q2"":""White"",""P1_Q3"":""Normal"",""P1_Q4"":""Right-Handed""}","[]","","","","","","","","","","","","","","","","","","","","","","","","","","",""
"","","","","","","","","","","","instructions","2","36459","0.0-2.0","3036","","","[{""page_index"":0,""viewing_time"":977},{""page_index"":1,""viewing_time"":1265},{""page_index"":2,""viewing_time"":420},{""page_index"":3,""viewing_time"":374}]","","","","","","","","","","","","","","","","","","","","","","","","","",""
"","","","","","","","","","","","fullscreen","3","38085","0.0-3.0","624","","","","true","","","","","","","","","","","","","","","","","","","","","","","","",""
"","","","","","","","","","","","virtual-chinrest","4","47838","0.0-4.0","9752","","","","","85.6","53.98","243.71822593220756","2.8460516515109764","602.7","8.123940864406919","30","1.2473420846439296","64","36","","","","","","","","","","","","","","",""
"","","","","","","","","","","","instructions","5","52344","0.0-5.0","4506","","","[{""page_index"":0,""viewing_time"":1528},{""page_index"":1,""viewing_time"":895},{""page_index"":2,""viewing_time"":302},{""page_index"":3,""viewing_time"":216},{""page_index"":4,""viewing_time"":491},{""page_index"":5,""viewing_time"":496},{""page_index"":6,""viewing_time"":578}]","","","","","","","","","","","","","","","","","","","","","","","","","",""
"","","","","","","","","","","","html-button-response","6","52938","0.0-6.0","593","0","","","","","","","","","","","","","","start_practice","Sat Oct 18 2025 14:50:23 GMT-0400 (Eastern Daylight Time)","27376","","","","","","","","","","","",""
"","","","","","","","","","","","preload","7","52939","0.0-7.0","","","","","true","","","","","","","","","","","preload","","","0","0","false","[]","[]","[]","","","","","",""
"","","","","","","","","","","","canvas-keyboard-response","8","53255","0.0-8.0","null","null","","","","","","","","","","","","","","fixation","","","0","0","","","","","","","","","",""
"","","","","","","","","","","","canvas-keyboard-response","9","53567","0.0-9.0","null","null","","","","","","","","","","","","","","stimulus","","","0","0","","","","","","","","","",""
"","","","","","","","","","","","canvas-button-response","10","54579","0.0-10.0","1011","flower","","","","","","","","","","","","","","perceptual","","","0","0","","","","","52","flower","1","","1",""
"","","","","","","","","","","","canvas-button-response","11","54966","0.0-11.0","386","9","","","","","","","","","","","","","","confidence","","","0","0","","","","","","","","","","1"
"","","","","","","","","","","","html-keyboard-response","12","55972","0.0-12.0","null","null","","","","","","","","","","","","","","feedback","Sat Oct 18 2025 14:50:26 GMT-0400 (Eastern Daylight Time)","27376","0","0","","","","","","","","","",""
"","","","","","","","","","","","preload","13","55972","0.0-13.0","","","","","true","","","","","","","","","","","preload","","","0","1","false","[]","[]","[]","","","","","",""
"","","","","","","","","","","","canvas-keyboard-response","14","56277","0.0-14.0","null","null","","","","","","","","","","","","","","fixation","","","0","1","","","","","","","","","",""
"","","","","","","","","","","","canvas-keyboard-response","15","56582","0.0-15.0","null","null","","","","","","","","","","","","","","stimulus","","","0","1","","","","","","","","","",""
"","","","","","","","","","","","canvas-button-response","16","57080","0.0-16.0","496","train","","","","","","","","","","","","","","perceptual","","","0","1","","","","","62","train","1","","1",""
"","","","","","","","","","","","canvas-button-response","17","57394","0.0-17.0","314","10","","","","","","","","","","","","","","confidence","","","0","1","","","","","","","","","","2"
"","","","","","","","","","","","html-keyboard-response","18","58405","0.0-18.0","null","null","","","","","","","","","","","","","","feedback","Sat Oct 18 2025 14:50:28 GMT-0400 (Eastern Daylight Time)","27376","0","1","","","","","","","","","",""
"","","","","","","","","","","","preload","19","58405","0.0-19.0","","","","","true","","","","","","","","","","","preload","","","0","2","false","[]","[]","[]","","","","","",""
"","","","","","","","","","","","canvas-keyboard-response","20","58718","0.0-20.0","null","null","","","","","","","","","","","","","","fixation","","","0","2","","","","","","","","","",""
"","","","","","","","","","","","canvas-keyboard-response","21","59027","0.0-21.0","null","null","","","","","","","","","","","","","","stimulus","","","0","2","","","","","","","","","",""
"","","","","","","","","","","","canvas-button-response","22","59543","0.0-22.0","516","cat","","","","","","","","","","","","","","perceptual","","","0","2","","","","","72","cat","1","","1",""
"","","","","","","","","","","","canvas-button-response","23","59927","0.0-23.0","383","10","","","","","","","","","","","","","","confidence","","","0","2","","","","","","","","","","3"
"","","","","","","","","","","","html-keyboard-response","24","60942","0.0-24.0","null","null","","","","","","","","","","","","","","feedback","Sat Oct 18 2025 14:50:31 GMT-0400 (Eastern Daylight Time)","27376","0","2","","","","","","","","","",""
"","","","","","","","","","","","preload","25","60942","0.0-25.0","","","","","true","","","","","","","","","","","preload","","","0","3","false","[]","[]","[]","","","","","",""
"","","","","","","","","","","","canvas-keyboard-response","26","61243","0.0-26.0","null","null","","","","","","","","","","","","","","fixation","","","0","3","","","","","","","","","",""
"","","","","","","","","","","","canvas-keyboard-response","27","61557","0.0-27.0","null","null","","","","","","","","","","","","","","stimulus","","","0","3","","","","","","","","","",""
"","","","","","","","","","","","canvas-button-response","28","64185","0.0-28.0","2627","car","","","","","","","","","","","","","","perceptual","","","0","3","","","","","42","bridge","1","","0",""
"","","","","","","","","","","","canvas-button-response","29","65196","0.0-29.0","1010","1","","","","","","","","","","","","","","confidence","","","0","3","","","","","","","","","","3"
"","","","","","","","","","","","html-keyboard-response","30","66211","0.0-30.0","null","null","","","","","","","","","","","","","","feedback","Sat Oct 18 2025 14:50:36 GMT-0400 (Eastern Daylight Time)","27376","0","3","","","","","","","","","",""
"","","","","","","","","","","","preload","31","66211","0.0-31.0","","","","","true","","","","","","","","","","","preload","","","0","4","false","[]","[]","[]","","","","","",""
"","","","","","","","","","","","canvas-keyboard-response","32","66513","0.0-32.0","null","null","","","","","","","","","","","","","","fixation","","","0","4","","","","","","","","","",""
"","","","","","","","","","","","canvas-keyboard-response","33","66814","0.0-33.0","null","null","","","","","","","","","","","","","","stimulus","","","0","4","","","","","","","","","",""
"","","","","","","","","","","","canvas-button-response","34","70823","0.0-34.0","4009","cat","","","","","","","","","","","","","","perceptual","","","0","4","","","","","82","elephant","1","","0",""
"","","","","","","","","","","","canvas-button-response","35","71838","0.0-35.0","1014","6","","","","","","","","","","","","","","confidence","","","0","4","","","","","","","","","","3"
"","","","","","","","","","","","html-keyboard-response","36","72846","0.0-36.0","null","null","","","","","","","","","","","","","","feedback","Sat Oct 18 2025 14:50:43 GMT-0400 (Eastern Daylight Time)","27376","0","4","","","","","","","","","",""
"","","","","","","","","","","","preload","37","72847","0.0-37.0","","","","","true","","","","","","","","","","","preload","","","0","5","false","[]","[]","[]","","","","","",""
"","","","","","","","","","","","canvas-keyboard-response","38","73152","0.0-38.0","null","null","","","","","","","","","","","","","","fixation","","","0","5","","","","","","","","","",""
"","","","","","","","","","","","canvas-keyboard-response","39","73453","0.0-39.0","null","null","","","","","","","","","","","","","","stimulus","","","0","5","","","","","","","","","",""
"","","","","","","","","","","","canvas-button-response","40","73992","0.0-40.0","538","bed","","","","","","","","","","","","","","perceptual","","","0","5","","","","","32","bed","1","","1",""
"","","","","","","","","","","","canvas-button-response","41","74448","0.0-41.0","455","10","","","","","","","","","","","","","","confidence","","","0","5","","","","","","","","","","4"
"","","","","","","","","","","","html-keyboard-response","42","75457","0.0-42.0","null","null","","","","","","","","","","","","","","feedback","Sat Oct 18 2025 14:50:45 GMT-0400 (Eastern Daylight Time)","27376","0","5","","","","","","","","","",""
"","","","","","","","","","","","preload","43","75457","0.0-43.0","","","","","true","","","","","","","","","","","preload","","","0","6","false","[]","[]","[]","","","","","",""
"","","","","","","","","","","","canvas-keyboard-response","44","75759","0.0-44.0","null","null","","","","","","","","","","","","","","fixation","","","0","6","","","","","","","","","",""
"","","","","","","","","","","","canvas-keyboard-response","45","76071","0.0-45.0","null","null","","","","","","","","","","","","","","stimulus","","","0","6","","","","","","","","","",""
"","","","","","","","","","","","canvas-button-response","46","76567","0.0-46.0","495","phone","","","","","","","","","","","","","","perceptual","","","0","6","","","","","22","phone","1","","1",""
"","","","","","","","","","","","canvas-button-response","47","77091","0.0-47.0","523","10","","","","","","","","","","","","","","confidence","","","0","6","","","","","","","","","","5"
"","","","","","","","","","","","html-keyboard-response","48","78098","0.0-48.0","null","null","","","","","","","","","","","","","","feedback","Sat Oct 18 2025 14:50:48 GMT-0400 (Eastern Daylight Time)","27376","0","6","","","","","","","","","",""
"","","","","","","","","","","","preload","49","78098","0.0-49.0","","","","","true","","","","","","","","","","","preload","","","0","7","false","[]","[]","[]","","","","","",""
"","","","","","","","","","","","canvas-keyboard-response","50","78405","0.0-50.0","null","null","","","","","","","","","","","","","","fixation","","","0","7","","","","","","","","","",""
"","","","","","","","","","","","canvas-keyboard-response","51","78718","0.0-51.0","null","null","","","","","","","","","","","","","","stimulus","","","0","7","","","","","","","","","",""
"","","","","","","","","","","","canvas-button-response","52","79490","0.0-52.0","771","car","","","","","","","","","","","","","","perceptual","","","0","7","","","","","12","car","1","","1",""
"","","","","","","","","","","","canvas-button-response","53","80016","0.0-53.0","525","10","","","","","","","","","","","","","","confidence","","","0","7","","","","","","","","","","6"
"","","","","","","","","","","","html-keyboard-response","54","81018","0.0-54.0","null","null","","","","","","","","","","","","","","feedback","Sat Oct 18 2025 14:50:51 GMT-0400 (Eastern Daylight Time)","27376","0","7","","","","","","","","","",""
"","","","","","","","","","","","preload","55","81018","0.0-55.0","","","","","true","","","","","","","","","","","preload","","","0","8","false","[]","[]","[]","","","","","",""
"","","","","","","","","","","","canvas-keyboard-response","56","81322","0.0-56.0","null","null","","","","","","","","","","","","","","fixation","","","0","8","","","","","","","","","",""
"","","","","","","","","","","","canvas-keyboard-response","57","81638","0.0-57.0","null","null","","","","","","","","","","","","","","stimulus","","","0","8","","","","","","","","","",""
"","","","","","","","","","","","canvas-button-response","58","82180","0.0-58.0","541","knife","","","","","","","","","","","","","","perceptual","","","0","8","","","","","92","knife","1","","1",""
"","","","","","","","","","","","canvas-button-response","59","82564","0.0-59.0","383","10","","","","","","","","","","","","","","confidence","","","0","8","","","","","","","","","","7"
"","","","","","","","","","","","html-keyboard-response","60","83570","0.0-60.0","null","null","","","","","","","","","","","","","","feedback","Sat Oct 18 2025 14:50:53 GMT-0400 (Eastern Daylight Time)","27376","0","8","","","","","","","","","",""
"","","","","","","","","","","","preload","61","83571","0.0-61.0","","","","","true","","","","","","","","","","","preload","","","0","9","false","[]","[]","[]","","","","","",""
"","","","","","","","","","","","canvas-keyboard-response","62","83873","0.0-62.0","null","null","","","","","","","","","","","","","","fixation","","","0","9","","","","","","","","","",""
"","","","","","","","","","","","canvas-keyboard-response","63","84184","0.0-63.0","null","null","","","","","","","","","","","","","","stimulus","","","0","9","","","","","","","","","",""
"","","","","","","","","","","","canvas-button-response","64","84734","0.0-64.0","549","house","","","","","","","","","","","","","","perceptual","","","0","9","","","","","2","house","1","","1",""
"","","","","","","","","","","","canvas-button-response","65","85363","0.0-65.0","628","10","","","","","","","","","","","","","","confidence","","","0","9","","","","","","","","","","8"
"","","","","","","","","","","","html-keyboard-response","66","86365","0.0-66.0","null","null","","","","","","","","","","","","","","feedback","Sat Oct 18 2025 14:50:56 GMT-0400 (Eastern Daylight Time)","27376","0","9","","","","","","","","","",""
"","","","","","","","","","","","html-button-response","67","87250","0.0-67.0","884","0","","","","","","","","","","","","","","start_practice","Sat Oct 18 2025 14:50:57 GMT-0400 (Eastern Daylight Time)","27376","0","9","","","","","","","","","",""
"","","","","","","","","","","","preload","68","87250","0.0-68.0","","","","","true","","","","","","","","","","","preload","","","1","0","false","[]","[]","[]","","","","","",""
"","","","","","","","","","","","canvas-keyboard-response","69","87551","0.0-69.0","null","null","","","","","","","","","","","","","","fixation","","","1","0","","","","","","","","","",""
"","","","","","","","","","","","canvas-keyboard-response","70","87860","0.0-70.0","null","null","","","","","","","","","","","","","","stimulus","","","1","0","","","","","","","","","",""
"","","","","","","","","","","","canvas-button-response","71","88553","0.0-71.0","692","train","","","","","","","","","","","","","","perceptual","","","1","0","","","","","17","car","10","","0",""
"","","","","","","","","","","","canvas-button-response","72","89136","0.0-72.0","582","8","","","","","","","","","","","","","","confidence","","","1","0","","","","","","","","","","0"
"","","","","","","","","","","","html-keyboard-response","73","90146","0.0-73.0","null","null","","","","","","","","","","","","","","feedback","Sat Oct 18 2025 14:51:00 GMT-0400 (Eastern Daylight Time)","27376","1","0","","","","","","","","","",""
"","","","","","","","","","","","preload","74","90146","0.0-74.0","","","","","true","","","","","","","","","","","preload","","","1","1","false","[]","[]","[]","","","","","",""
"","","","","","","","","","","","canvas-keyboard-response","75","90450","0.0-75.0","null","null","","","","","","","","","","","","","","fixation","","","1","1","","","","","","","","","",""
"","","","","","","","","","","","canvas-keyboard-response","76","90761","0.0-76.0","null","null","","","","","","","","","","","","","","stimulus","","","1","1","","","","","","","","","",""
"","","","","","","","","","","","canvas-button-response","77","91375","0.0-77.0","613","bridge","","","","","","","","","","","","","","perceptual","","","1","1","","","","","87","elephant","10","","0",""
"","","","","","","","","","","","canvas-button-response","78","92114","0.0-78.0","738","6","","","","","","","","","","","","","","confidence","","","1","1","","","","","","","","","","0"
"","","","","","","","","","","","html-keyboard-response","79","93129","0.0-79.0","null","null","","","","","","","","","","","","","","feedback","Sat Oct 18 2025 14:51:03 GMT-0400 (Eastern Daylight Time)","27376","1","1","","","","","","","","","",""
"","","","","","","","","","","","preload","80","93130","0.0-80.0","","","","","true","","","","","","","","","","","preload","","","1","2","false","[]","[]","[]","","","","","",""
"","","","","","","","","","","","canvas-keyboard-response","81","93437","0.0-81.0","null","null","","","","","","","","","","","","","","fixation","","","1","2","","","","","","","","","",""
"","","","","","","","","","","","canvas-keyboard-response","82","93749","0.0-82.0","null","null","","","","","","","","","","","","","","stimulus","","","1","2","","","","","","","","","",""
"","","","","","","","","","","","canvas-button-response","83","94357","0.0-83.0","608","car","","","","","","","","","","","","","","perceptual","","","1","2","","","","","14","car","6","","1",""
"","","","","","","","","","","","canvas-button-response","84","94750","0.0-84.0","392","9","","","","","","","","","","","","","","confidence","","","1","2","","","","","","","","","","1"
"","","","","","","","","","","","html-keyboard-response","85","95759","0.0-85.0","null","null","","","","","","","","","","","","","","feedback","Sat Oct 18 2025 14:51:06 GMT-0400 (Eastern Daylight Time)","27376","1","2","","","","","","","","","",""
"","","","","","","","","","","","preload","86","95759","0.0-86.0","","","","","true","","","","","","","","","","","preload","","","1","3","false","[]","[]","[]","","","","","",""
"","","","","","","","","","","","canvas-keyboard-response","87","96060","0.0-87.0","null","null","","","","","","","","","","","","","","fixation","","","1","3","","","","","","","","","",""
"","","","","","","","","","","","canvas-keyboard-response","88","96374","0.0-88.0","null","null","","","","","","","","","","","","","","stimulus","","","1","3","","","","","","","","","",""
"","","","","","","","","","","","canvas-button-response","89","97711","0.0-89.0","1336","bridge","","","","","","","","","","","","","","perceptual","","","1","3","","","","","77","cat","10","","0",""
"","","","","","","","","","","","canvas-button-response","90","98155","0.0-90.0","443","1","","","","","","","","","","","","","","confidence","","","1","3","","","","","","","","","","1"
"","","","","","","","","","","","html-keyboard-response","91","99155","0.0-91.0","null","null","","","","","","","","","","","","","","feedback","Sat Oct 18 2025 14:51:09 GMT-0400 (Eastern Daylight Time)","27376","1","3","","","","","","","","","",""
"","","","","","","","","","","","preload","92","99155","0.0-92.0","","","","","true","","","","","","","","","","","preload","","","1","4","false","[]","[]","[]","","","","","",""
"","","","","","","","","","","","canvas-keyboard-response","93","99457","0.0-93.0","null","null","","","","","","","","","","","","","","fixation","","","1","4","","","","","","","","","",""
"","","","","","","","","","","","canvas-keyboard-response","94","99761","0.0-94.0","null","null","","","","","","","","","","","","","","stimulus","","","1","4","","","","","","","","","",""
"","","","","","","","","","","","canvas-button-response","95","100292","0.0-95.0","530","phone","","","","","","","","","","","","","","perceptual","","","1","4","","","","","24","phone","6","","1",""
"","","","","","","","","","","","canvas-button-response","96","100647","0.0-96.0","354","10","","","","","","","","","","","","","","confidence","","","1","4","","","","","","","","","","2"
"","","","","","","","","","","","html-keyboard-response","97","101660","0.0-97.0","null","null","","","","","","","","","","","","","","feedback","Sat Oct 18 2025 14:51:12 GMT-0400 (Eastern Daylight Time)","27376","1","4","","","","","","","","","",""
"","","","","","","","","","","","preload","98","101661","0.0-98.0","","","","","true","","","","","","","","","","","preload","","","1","5","false","[]","[]","[]","","","","","",""
"","","","","","","","","","","","canvas-keyboard-response","99","101962","0.0-99.0","null","null","","","","","","","","","","","","","","fixation","","","1","5","","","","","","","","","",""
"","","","","","","","","","","","canvas-keyboard-response","100","102278","0.0-100.0","null","null","","","","","","","","","","","","","","stimulus","","","1","5","","","","","","","","","",""
"","","","","","","","","","","","canvas-button-response","101","102911","0.0-101.0","632","elephant","","","","","","","","","","","","","","perceptual","","","1","5","","","","","84","elephant","6","","1",""
"","","","","","","","","","","","canvas-button-response","102","103304","0.0-102.0","391","10","","","","","","","","","","","","","","confidence","","","1","5","","","","","","","","","","3"
"","","","","","","","","","","","html-keyboard-response","103","104319","0.0-103.0","null","null","","","","","","","","","","","","","","feedback","Sat Oct 18 2025 14:51:14 GMT-0400 (Eastern Daylight Time)","27376","1","5","","","","","","","","","",""
"","","","","","","","","","","","preload","104","104319","0.0-104.0","","","","","true","","","","","","","","","","","preload","","","1","6","false","[]","[]","[]","","","","","",""
"","","","","","","","","","","","canvas-keyboard-response","105","104623","0.0-105.0","null","null","","","","","","","","","","","","","","fixation","","","1","6","","","","","","","","","",""
"","","","","","","","","","","","canvas-keyboard-response","106","104936","0.0-106.0","null","null","","","","","","","","","","","","","","stimulus","","","1","6","","","","","","","","","",""
"","","","","","","","","","","","canvas-button-response","107","105438","0.0-107.0","501","flower","","","","","","","","","","","","","","perceptual","","","1","6","","","","","57","flower","10","","1",""
"","","","","","","","","","","","canvas-button-response","108","105925","0.0-108.0","487","10","","","","","","","","","","","","","","confidence","","","1","6","","","","","","","","","","4"
"","","","","","","","","","","","html-keyboard-response","109","106932","0.0-109.0","null","null","","","","","","","","","","","","","","feedback","Sat Oct 18 2025 14:51:17 GMT-0400 (Eastern Daylight Time)","27376","1","6","","","","","","","","","",""
"","","","","","","","","","","","preload","110","106933","0.0-110.0","","","","","true","","","","","","","","","","","preload","","","1","7","false","[]","[]","[]","","","","","",""
"","","","","","","","","","","","canvas-keyboard-response","111","107245","0.0-111.0","null","null","","","","","","","","","","","","","","fixation","","","1","7","","","","","","","","","",""
"","","","","","","","","","","","canvas-keyboard-response","112","107558","0.0-112.0","null","null","","","","","","","","","","","","","","stimulus","","","1","7","","","","","","","","","",""
"","","","","","","","","","","","canvas-button-response","113","108134","0.0-113.0","576","bridge","","","","","","","","","","","","","","perceptual","","","1","7","","","","","44","bridge","6","","1",""
"","","","","","","","","","","","canvas-button-response","114","108537","0.0-114.0","402","8","","","","","","","","","","","","","","confidence","","","1","7","","","","","","","","","","5"
"","","","","","","","","","","","html-keyboard-response","115","109543","0.0-115.0","null","null","","","","","","","","","","","","","","feedback","Sat Oct 18 2025 14:51:19 GMT-0400 (Eastern Daylight Time)","27376","1","7","","","","","","","","","",""
"","","","","","","","","","","","preload","116","109543","0.0-116.0","","","","","true","","","","","","","","","","","preload","","","1","8","false","[]","[]","[]","","","","","",""
"","","","","","","","","","","","canvas-keyboard-response","117","109845","0.0-117.0","null","null","","","","","","","","","","","","","","fixation","","","1","8","","","","","","","","","",""
"","","","","","","","","","","","canvas-keyboard-response","118","110148","0.0-118.0","null","null","","","","","","","","","","","","","","stimulus","","","1","8","","","","","","","","","",""
"","","","","","","","","","","","canvas-button-response","119","110623","0.0-119.0","474","phone","","","","","","","","","","","","","","perceptual","","","1","8","","","","","94","knife","6","","0",""
"","","","","","","","","","","","canvas-button-response","120","111116","0.0-120.0","492","8","","","","","","","","","","","","","","confidence","","","1","8","","","","","","","","","","5"
"","","","","","","","","","","","html-keyboard-response","121","112132","0.0-121.0","null","null","","","","","","","","","","","","","","feedback","Sat Oct 18 2025 14:51:22 GMT-0400 (Eastern Daylight Time)","27376","1","8","","","","","","","","","",""
"","","","","","","","","","","","preload","122","112132","0.0-122.0","","","","","true","","","","","","","","","","","preload","","","1","9","false","[]","[]","[]","","","","","",""
"","","","","","","","","","","","canvas-keyboard-response","123","112439","0.0-123.0","null","null","","","","","","","","","","","","","","fixation","","","1","9","","","","","","","","","",""
"","","","","","","","","","","","canvas-keyboard-response","124","112742","0.0-124.0","null","null","","","","","","","","","","","","","","stimulus","","","1","9","","","","","","","","","",""
"","","","","","","","","","","","canvas-button-response","125","113632","0.0-125.0","889","car","","","","","","","","","","","","","","perceptual","","","1","9","","","","","47","bridge","10","","0",""
"","","","","","","","","","","","canvas-button-response","126","114275","0.0-126.0","643","5","","","","","","","","","","","","","","confidence","","","1","9","","","","","","","","","","5"
"","","","","","","","","","","","html-keyboard-response","127","115277","0.0-127.0","null","null","","","","","","","","","","","","","","feedback","Sat Oct 18 2025 14:51:25 GMT-0400 (Eastern Daylight Time)","27376","1","9","","","","","","","","","",""
"","","","","","","","","","","","preload","128","115277","0.0-128.0","","","","","true","","","","","","","","","","","preload","","","1","10","false","[]","[]","[]","","","","","",""
"","","","","","","","","","","","canvas-keyboard-response","129","115579","0.0-129.0","null","null","","","","","","","","","","","","","","fixation","","","1","10","","","","","","","","","",""
"","","","","","","","","","","","canvas-keyboard-response","130","115891","0.0-130.0","null","null","","","","","","","","","","","","","","stimulus","","","1","10","","","","","","","","","",""
"","","","","","","","","","","","canvas-button-response","131","116348","0.0-131.0","457","flower","","","","","","","","","","","","","","perceptual","","","1","10","","","","","54","flower","6","","1",""
"","","","","","","","","","","","canvas-button-response","132","116925","0.0-132.0","576","10","","","","","","","","","","","","","","confidence","","","1","10","","","","","","","","","","6"
"","","","","","","","","","","","html-keyboard-response","133","117931","0.0-133.0","null","null","","","","","","","","","","","","","","feedback","Sat Oct 18 2025 14:51:28 GMT-0400 (Eastern Daylight Time)","27376","1","10","","","","","","","","","",""
"","","","","","","","","","","","preload","134","117931","0.0-134.0","","","","","true","","","","","","","","","","","preload","","","1","11","false","[]","[]","[]","","","","","",""
"","","","","","","","","","","","canvas-keyboard-response","135","118235","0.0-135.0","null","null","","","","","","","","","","","","","","fixation","","","1","11","","","","","","","","","",""
"","","","","","","","","","","","canvas-keyboard-response","136","118548","0.0-136.0","null","null","","","","","","","","","","","","","","stimulus","","","1","11","","","","","","","","","",""
"","","","","","","","","","","","canvas-button-response","137","119312","0.0-137.0","763","cat","","","","","","","","","","","","","","perceptual","","","1","11","","","","","74","cat","6","","1",""
"","","","","","","","","","","","canvas-button-response","138","119970","0.0-138.0","658","8","","","","","","","","","","","","","","confidence","","","1","11","","","","","","","","","","7"
"","","","","","","","","","","","html-keyboard-response","139","120977","0.0-139.0","null","null","","","","","","","","","","","","","","feedback","Sat Oct 18 2025 14:51:31 GMT-0400 (Eastern Daylight Time)","27376","1","11","","","","","","","","","",""
"","","","","","","","","","","","preload","140","120977","0.0-140.0","","","","","true","","","","","","","","","","","preload","","","1","12","false","[]","[]","[]","","","","","",""
"","","","","","","","","","","","canvas-keyboard-response","141","121281","0.0-141.0","null","null","","","","","","","","","","","","","","fixation","","","1","12","","","","","","","","","",""
"","","","","","","","","","","","canvas-keyboard-response","142","121590","0.0-142.0","null","null","","","","","","","","","","","","","","stimulus","","","1","12","","","","","","","","","",""
"","","","","","","","","","","","canvas-button-response","143","122108","0.0-143.0","517","knife","","","","","","","","","","","","","","perceptual","","","1","12","","","","","97","knife","10","","1",""
"","","","","","","","","","","","canvas-button-response","144","122504","0.0-144.0","395","10","","","","","","","","","","","","","","confidence","","","1","12","","","","","","","","","","8"
"","","","","","","","","","","","html-keyboard-response","145","123520","0.0-145.0","null","null","","","","","","","","","","","","","","feedback","Sat Oct 18 2025 14:51:33 GMT-0400 (Eastern Daylight Time)","27376","1","12","","","","","","","","","",""
"","","","","","","","","","","","preload","146","123520","0.0-146.0","","","","","true","","","","","","","","","","","preload","","","1","13","false","[]","[]","[]","","","","","",""
"","","","","","","","","","","","canvas-keyboard-response","147","123827","0.0-147.0","null","null","","","","","","","","","","","","","","fixation","","","1","13","","","","","","","","","",""
"","","","","","","","","","","","canvas-keyboard-response","148","124131","0.0-148.0","null","null","","","","","","","","","","","","","","stimulus","","","1","13","","","","","","","","","",""
"","","","","","","","","","","","canvas-button-response","149","124588","0.0-149.0","456","train","","","","","","","","","","","","","","perceptual","","","1","13","","","","","64","train","6","","1",""
"","","","","","","","","","","","canvas-button-response","150","124958","0.0-150.0","369","10","","","","","","","","","","","","","","confidence","","","1","13","","","","","","","","","","9"
"","","","","","","","","","","","html-keyboard-response","151","125968","0.0-151.0","null","null","","","","","","","","","","","","","","feedback","Sat Oct 18 2025 14:51:36 GMT-0400 (Eastern Daylight Time)","27376","1","13","","","","","","","","","",""
"","","","","","","","","","","","preload","152","125969","0.0-152.0","","","","","true","","","","","","","","","","","preload","","","1","14","false","[]","[]","[]","","","","","",""
"","","","","","","","","","","","canvas-keyboard-response","153","126284","0.0-153.0","null","null","","","","","","","","","","","","","","fixation","","","1","14","","","","","","","","","",""
"","","","","","","","","","","","canvas-keyboard-response","154","126587","0.0-154.0","null","null","","","","","","","","","","","","","","stimulus","","","1","14","","","","","","","","","",""
"","","","","","","","","","","","canvas-button-response","155","129532","0.0-155.0","2944","bridge","","","","","","","","","","","","","","perceptual","","","1","14","","","","","37","bed","10","","0",""
"","","","","","","","","","","","canvas-button-response","156","130338","0.0-156.0","805","1","","","","","","","","","","","","","","confidence","","","1","14","","","","","","","","","","9"
"","","","","","","","","","","","html-keyboard-response","157","131342","0.0-157.0","null","null","","","","","","","","","","","","","","feedback","Sat Oct 18 2025 14:51:41 GMT-0400 (Eastern Daylight Time)","27376","1","14","","","","","","","","","",""
"","","","","","","","","","","","preload","158","131342","0.0-158.0","","","","","true","","","","","","","","","","","preload","","","1","15","false","[]","[]","[]","","","","","",""
"","","","","","","","","","","","canvas-keyboard-response","159","131650","0.0-159.0","null","null","","","","","","","","","","","","","","fixation","","","1","15","","","","","","","","","",""
"","","","","","","","","","","","canvas-keyboard-response","160","131966","0.0-160.0","null","null","","","","","","","","","","","","","","stimulus","","","1","15","","","","","","","","","",""
"","","","","","","","","","","","canvas-button-response","161","132582","0.0-161.0","615","train","","","","","","","","","","","","","","perceptual","","","1","15","","","","","67","train","10","","1",""
"","","","","","","","","","","","canvas-button-response","162","133167","0.0-162.0","584","9","","","","","","","","","","","","","","confidence","","","1","15","","","","","","","","","","10"
"","","","","","","","","","","","html-keyboard-response","163","134167","0.0-163.0","null","null","","","","","","","","","","","","","","feedback","Sat Oct 18 2025 14:51:44 GMT-0400 (Eastern Daylight Time)","27376","1","15","","","","","","","","","",""
"","","","","","","","","","","","preload","164","134167","0.0-164.0","","","","","true","","","","","","","","","","","preload","","","1","16","false","[]","[]","[]","","","","","",""
"","","","","","","","","","","","canvas-keyboard-response","165","134472","0.0-165.0","null","null","","","","","","","","","","","","","","fixation","","","1","16","","","","","","","","","",""
"","","","","","","","","","","","canvas-keyboard-response","166","134783","0.0-166.0","null","null","","","","","","","","","","","","","","stimulus","","","1","16","","","","","","","","","",""
"","","","","","","","","","","","canvas-button-response","167","135249","0.0-167.0","465","house","","","","","","","","","","","","","","perceptual","","","1","16","","","","","7","house","10","","1",""
"","","","","","","","","","","","canvas-button-response","168","135929","0.0-168.0","679","10","","","","","","","","","","","","","","confidence","","","1","16","","","","","","","","","","11"
"","","","","","","","","","","","html-keyboard-response","169","136930","0.0-169.0","null","null","","","","","","","","","","","","","","feedback","Sat Oct 18 2025 14:51:47 GMT-0400 (Eastern Daylight Time)","27376","1","16","","","","","","","","","",""
"","","","","","","","","","","","preload","170","136930","0.0-170.0","","","","","true","","","","","","","","","","","preload","","","1","17","false","[]","[]","[]","","","","","",""
"","","","","","","","","","","","canvas-keyboard-response","171","137239","0.0-171.0","null","null","","","","","","","","","","","","","","fixation","","","1","17","","","","","","","","","",""
"","","","","","","","","","","","canvas-keyboard-response","172","137550","0.0-172.0","null","null","","","","","","","","","","","","","","stimulus","","","1","17","","","","","","","","","",""
"","","","","","","","","","","","canvas-button-response","173","138167","0.0-173.0","616","bed","","","","","","","","","","","","","","perceptual","","","1","17","","","","","34","bed","6","","1",""
"","","","","","","","","","","","canvas-button-response","174","138590","0.0-174.0","422","8","","","","","","","","","","","","","","confidence","","","1","17","","","","","","","","","","12"
"","","","","","","","","","","","html-keyboard-response","175","139594","0.0-175.0","null","null","","","","","","","","","","","","","","feedback","Sat Oct 18 2025 14:51:49 GMT-0400 (Eastern Daylight Time)","27376","1","17","","","","","","","","","",""
"","","","","","","","","","","","preload","176","139595","0.0-176.0","","","","","true","","","","","","","","","","","preload","","","1","18","false","[]","[]","[]","","","","","",""
"","","","","","","","","","","","canvas-keyboard-response","177","139903","0.0-177.0","null","null","","","","","","","","","","","","","","fixation","","","1","18","","","","","","","","","",""
"","","","","","","","","","","","canvas-keyboard-response","178","140204","0.0-178.0","null","null","","","","","","","","","","","","","","stimulus","","","1","18","","","","","","","","","",""
"","","","","","","","","","","","canvas-button-response","179","141577","0.0-179.0","1372","knife","","","","","","","","","","","","","","perceptual","","","1","18","","","","","27","phone","10","","0",""
"","","","","","","","","","","","canvas-button-response","180","142085","0.0-180.0","507","1","","","","","","","","","","","","","","confidence","","","1","18","","","","","","","","","","12"
"","","","","","","","","","","","html-keyboard-response","181","143085","0.0-181.0","null","null","","","","","","","","","","","","","","feedback","Sat Oct 18 2025 14:51:53 GMT-0400 (Eastern Daylight Time)","27376","1","18","","","","","","","","","",""
"","","","","","","","","","","","preload","182","143086","0.0-182.0","","","","","true","","","","","","","","","","","preload","","","1","19","false","[]","[]","[]","","","","","",""
"","","","","","","","","","","","canvas-keyboard-response","183","143395","0.0-183.0","null","null","","","","","","","","","","","","","","fixation","","","1","19","","","","","","","","","",""
"","","","","","","","","","","","canvas-keyboard-response","184","143699","0.0-184.0","null","null","","","","","","","","","","","","","","stimulus","","","1","19","","","","","","","","","",""
"","","","","","","","","","","","canvas-button-response","185","144125","0.0-185.0","425","house","","","","","","","","","","","","","","perceptual","","","1","19","","","","","4","house","6","","1",""
"","","","","","","","","","","","canvas-button-response","186","144582","0.0-186.0","456","10","","","","","","","","","","","","","","confidence","","","1","19","","","","","","","","","","13"
"","","","","","","","","","","","html-keyboard-response","187","145584","0.0-187.0","null","null","","","","","","","","","","","","","","feedback","Sat Oct 18 2025 14:51:55 GMT-0400 (Eastern Daylight Time)","27376","1","19","","","","","","","","","",""
"","","","","","","","","","","","html-button-response","188","146353","0.0-188.0","768","0","","","","","","","","","","","","","","start experiment","Sat Oct 18 2025 14:51:56 GMT-0400 (Eastern Daylight Time)","27376","1","19","","","","","","","","","",""
"","","","","","","","","","","","preload","189","146353","0.0-189.0","","","","","true","","","","","","","","","","","preload","","","2","0","false","[]","[]","[]","","","","","",""
"","","","","","","","","","","","canvas-keyboard-response","190","146663","0.0-190.0","null","null","","","","","","","","","","","","","","fixation","","","2","0","","","","","","","","","",""
"","","","","","","","","","","","canvas-keyboard-response","191","146968","0.0-191.0","null","null","","","","","","","","","","","","","","stimulus","","","2","0","","","","","","","","","",""
"","","","","","","","","","","","canvas-button-response","192","147964","0.0-192.0","996","car","","","","","","","","","","","","","","perceptual","","","2","0","","","","","192","bridge","10","0","0",""
"","","","","","","","","","","","canvas-button-response","193","148483","0.0-193.0","518","1","","","","","","","","","","","","","","confidence","","","2","0","","","","","","","","","","0"
"","","","","","","","","","","","preload","194","148483","0.0-194.0","","","","","true","","","","","","","","","","","preload","","","2","1","false","[]","[]","[]","","","","","",""
"","","","","","","","","","","","canvas-keyboard-response","195","148789","0.0-195.0","null","null","","","","","","","","","","","","","","fixation","","","2","1","","","","","","","","","",""
"","","","","","","","","","","","canvas-keyboard-response","196","149103","0.0-196.0","null","null","","","","","","","","","","","","","","stimulus","","","2","1","","","","","","","","","",""
"","","","","","","","","","","","canvas-button-response","197","149622","0.0-197.0","518","bridge","","","","","","","","","","","","","","perceptual","","","2","1","","","","","165","bridge","6","0","1",""
"","","","","","","","","","","","canvas-button-response","198","150037","0.0-198.0","414","10","","","","","","","","","","","","","","confidence","","","2","1","","","","","","","","","","1"
"","","","","","","","","","","","preload","199","150037","0.0-199.0","","","","","true","","","","","","","","","","","preload","","","2","2","false","[]","[]","[]","","","","","",""
"","","","","","","","","","","","canvas-keyboard-response","200","150346","0.0-200.0","null","null","","","","","","","","","","","","","","fixation","","","2","2","","","","","","","","","",""
"","","","","","","","","","","","canvas-keyboard-response","201","150649","0.0-201.0","null","null","","","","","","","","","","","","","","stimulus","","","2","2","","","","","","","","","",""
"","","","","","","","","","","","canvas-button-response","202","152528","0.0-202.0","1877","train","","","","","","","","","","","","","","perceptual","","","2","2","","","","","3","house","6","0","0",""
"","","","","","","","","","","","canvas-button-response","203","153156","0.0-203.0","628","1","","","","","","","","","","","","","","confidence","","","2","2","","","","","","","","","","1"
"","","","","","","","","","","","preload","204","153157","0.0-204.0","","","","","true","","","","","","","","","","","preload","","","2","3","false","[]","[]","[]","","","","","",""
"","","","","","","","","","","","canvas-keyboard-response","205","153473","0.0-205.0","null","null","","","","","","","","","","","","","","fixation","","","2","3","","","","","","","","","",""
"","","","","","","","","","","","canvas-keyboard-response","206","153786","0.0-206.0","null","null","","","","","","","","","","","","","","stimulus","","","2","3","","","","","","","","","",""
"","","","","","","","","","","","canvas-button-response","207","154348","0.0-207.0","561","house","","","","","","","","","","","","","","perceptual","","","2","3","","","","","6","house","6","0","1",""
"","","","","","","","","","","","canvas-button-response","208","154717","0.0-208.0","368","10","","","","","","","","","","","","","","confidence","","","2","3","","","","","","","","","","2"
"","","","","","","","","","","","preload","209","154717","0.0-209.0","","","","","true","","","","","","","","","","","preload","","","2","4","false","[]","[]","[]","","","","","",""
"","","","","","","","","","","","canvas-keyboard-response","210","155021","0.0-210.0","null","null","","","","","","","","","","","","","","fixation","","","2","4","","","","","","","","","",""
"","","","","","","","","","","","canvas-keyboard-response","211","155332","0.0-211.0","null","null","","","","","","","","","","","","","","stimulus","","","2","4","","","","","","","","","",""
"","","","","","","","","","","","canvas-button-response","212","155792","0.0-212.0","459","car","","","","","","","","","","","","","","perceptual","","","2","4","","","","","134","bed","6","0","0",""
"","","","","","","","","","","","canvas-button-response","213","156169","0.0-213.0","376","9","","","","","","","","","","","","","","confidence","","","2","4","","","","","","","","","","2"
"","","","","","","","","","","","preload","214","156169","0.0-214.0","","","","","true","","","","","","","","","","","preload","","","2","5","false","[]","[]","[]","","","","","",""
"","","","","","","","","","","","canvas-keyboard-response","215","156476","0.0-215.0","null","null","","","","","","","","","","","","","","fixation","","","2","5","","","","","","","","","",""
"","","","","","","","","","","","canvas-keyboard-response","216","156778","0.0-216.0","null","null","","","","","","","","","","","","","","stimulus","","","2","5","","","","","","","","","",""
"","","","","","","","","","","","canvas-button-response","217","157326","0.0-217.0","547","car","","","","","","","","","","","","","","perceptual","","","2","5","","","","","189","bridge","10","0","0",""
"","","","","","","","","","","","canvas-button-response","218","157812","0.0-218.0","485","1","","","","","","","","","","","","","","confidence","","","2","5","","","","","","","","","","2"
"","","","","","","","","","","","preload","219","157812","0.0-219.0","","","","","true","","","","","","","","","","","preload","","","2","6","false","[]","[]","[]","","","","","",""
"","","","","","","","","","","","canvas-keyboard-response","220","158115","0.0-220.0","null","null","","","","","","","","","","","","","","fixation","","","2","6","","","","","","","","","",""
"","","","","","","","","","","","canvas-keyboard-response","221","158416","0.0-221.0","null","null","","","","","","","","","","","","","","stimulus","","","2","6","","","","","","","","","",""
"","","","","","","","","","","","canvas-button-response","222","158896","0.0-222.0","479","flower","","","","","","","","","","","","","","perceptual","","","2","6","","","","","223","flower","10","0","1",""
"","","","","","","","","","","","canvas-button-response","223","159262","0.0-223.0","365","10","","","","","","","","","","","","","","confidence","","","2","6","","","","","","","","","","3"
"","","","","","","","","","","","preload","224","159262","0.0-224.0","","","","","true","","","","","","","","","","","preload","","","2","7","false","[]","[]","[]","","","","","",""
"","","","","","","","","","","","canvas-keyboard-response","225","159573","0.0-225.0","null","null","","","","","","","","","","","","","","fixation","","","2","7","","","","","","","","","",""
"","","","","","","","","","","","canvas-keyboard-response","226","159874","0.0-226.0","null","null","","","","","","","","","","","","","","stimulus","","","2","7","","","","","","","","","",""
"","","","","","","","","","","","canvas-button-response","227","160330","0.0-227.0","456","bed","","","","","","","","","","","","","","perceptual","","","2","7","","","","","122","bed","6","0","1",""
"","","","","","","","","","","","canvas-button-response","228","160703","0.0-228.0","372","10","","","","","","","","","","","","","","confidence","","","2","7","","","","","","","","","","4"
"","","","","","","","","","","","preload","229","160703","0.0-229.0","","","","","true","","","","","","","","","","","preload","","","2","8","false","[]","[]","[]","","","","","",""
"","","","","","","","","","","","canvas-keyboard-response","230","161006","0.0-230.0","null","null","","","","","","","","","","","","","","fixation","","","2","8","","","","","","","","","",""
"","","","","","","","","","","","canvas-keyboard-response","231","161316","0.0-231.0","null","null","","","","","","","","","","","","","","stimulus","","","2","8","","","","","","","","","",""
"","","","","","","","","","","","canvas-button-response","232","161803","0.0-232.0","487","flower","","","","","","","","","","","","","","perceptual","","","2","8","","","","","222","flower","10","0","1",""
"","","","","","","","","","","","canvas-button-response","233","162165","0.0-233.0","361","10","","","","","","","","","","","","","","confidence","","","2","8","","","","","","","","","","5"
"","","","","","","","","","","","preload","234","162165","0.0-234.0","","","","","true","","","","","","","","","","","preload","","","2","9","false","[]","[]","[]","","","","","",""
"","","","","","","","","","","","canvas-keyboard-response","235","162473","0.0-235.0","null","null","","","","","","","","","","","","","","fixation","","","2","9","","","","","","","","","",""
"","","","","","","","","","","","canvas-keyboard-response","236","162775","0.0-236.0","null","null","","","","","","","","","","","","","","stimulus","","","2","9","","","","","","","","","",""
"","","","","","","","","","","","canvas-button-response","237","163217","0.0-237.0","441","train","","","","","","","","","","","","","","perceptual","","","2","9","","","","","242","train","6","0","1",""
"","","","","","","","","","","","canvas-button-response","238","163678","0.0-238.0","461","10","","","","","","","","","","","","","","confidence","","","2","9","","","","","","","","","","6"
"","","","","","","","","","","","preload","239","163679","0.0-239.0","","","","","true","","","","","","","","","","","preload","","","2","10","false","[]","[]","[]","","","","","",""
"","","","","","","","","","","","canvas-keyboard-response","240","163992","0.0-240.0","null","null","","","","","","","","","","","","","","fixation","","","2","10","","","","","","","","","",""
"","","","","","","","","","","","canvas-keyboard-response","241","164296","0.0-241.0","null","null","","","","","","","","","","","","","","stimulus","","","2","10","","","","","","","","","",""
"","","","","","","","","","","","canvas-button-response","242","165149","0.0-242.0","852","elephant","","","","","","","","","","","","","","perceptual","","","2","10","","","","","287","cat","6","0","0",""
"","","","","","","","","","","","canvas-button-response","243","165566","0.0-243.0","416","1","","","","","","","","","","","","","","confidence","","","2","10","","","","","","","","","","6"
"","","","","","","","","","","","preload","244","165566","0.0-244.0","","","","","true","","","","","","","","","","","preload","","","2","11","false","[]","[]","[]","","","","","",""
"","","","","","","","","","","","canvas-keyboard-response","245","165868","0.0-245.0","null","null","","","","","","","","","","","","","","fixation","","","2","11","","","","","","","","","",""
"","","","","","","","","","","","canvas-keyboard-response","246","166171","0.0-246.0","null","null","","","","","","","","","","","","","","stimulus","","","2","11","","","","","","","","","",""
"","","","","","","","","","","","canvas-button-response","247","166597","0.0-247.0","425","car","","","","","","","","","","","","","","perceptual","","","2","11","","","","","193","bridge","10","0","0",""
"","","","","","","","","","","","canvas-button-response","248","166923","0.0-248.0","325","2","","","","","","","","","","","","","","confidence","","","2","11","","","","","","","","","","6"
"","","","","","","","","","","","preload","249","166923","0.0-249.0","","","","","true","","","","","","","","","","","preload","","","2","12","false","[]","[]","[]","","","","","",""
"","","","","","","","","","","","canvas-keyboard-response","250","167232","0.0-250.0","null","null","","","","","","","","","","","","","","fixation","","","2","12","","","","","","","","","",""
"","","","","","","","","","","","canvas-keyboard-response","251","167533","0.0-251.0","null","null","","","","","","","","","","","","","","stimulus","","","2","12","","","","","","","","","",""
"","","","","","","","","","","","canvas-button-response","252","167994","0.0-252.0","460","phone","","","","","","","","","","","","","","perceptual","","","2","12","","","","","100","phone","10","0","1",""
"","","","","","","","","","","","canvas-button-response","253","168319","0.0-253.0","325","9","","","","","","","","","","","","","","confidence","","","2","12","","","","","","","","","","7"
"","","","","","","","","","","","preload","254","168320","0.0-254.0","","","","","true","","","","","","","","","","","preload","","","2","13","false","[]","[]","[]","","","","","",""
"","","","","","","","","","","","canvas-keyboard-response","255","168626","0.0-255.0","null","null","","","","","","","","","","","","","","fixation","","","2","13","","","","","","","","","",""
"","","","","","","","","","","","canvas-keyboard-response","256","168933","0.0-256.0","null","null","","","","","","","","","","","","","","stimulus","","","2","13","","","","","","","","","",""
"","","","","","","","","","","","canvas-button-response","257","169393","0.0-257.0","459","car","","","","","","","","","","","","","","perceptual","","","2","13","","","","","290","cat","6","0","0",""
"","","","","","","","","","","","canvas-button-response","258","170064","0.0-258.0","670","1","","","","","","","","","","","","","","confidence","","","2","13","","","","","","","","","","7"
"","","","","","","","","","","","preload","259","170064","0.0-259.0","","","","","true","","","","","","","","","","","preload","","","2","14","false","[]","[]","[]","","","","","",""
"","","","","","","","","","","","canvas-keyboard-response","260","170366","0.0-260.0","null","null","","","","","","","","","","","","","","fixation","","","2","14","","","","","","","","","",""
"","","","","","","","","","","","canvas-keyboard-response","261","170668","0.0-261.0","null","null","","","","","","","","","","","","","","stimulus","","","2","14","","","","","","","","","",""
"","","","","","","","","","","","canvas-button-response","262","171120","0.0-262.0","451","flower","","","","","","","","","","","","","","perceptual","","","2","14","","","","","225","flower","10","0","1",""
"","","","","","","","","","","","canvas-button-response","263","171475","0.0-263.0","355","10","","","","","","","","","","","","","","confidence","","","2","14","","","","","","","","","","8"
"","","","","","","","","","","","preload","264","171476","0.0-264.0","","","","","true","","","","","","","","","","","preload","","","2","15","false","[]","[]","[]","","","","","",""
"","","","","","","","","","","","canvas-keyboard-response","265","171783","0.0-265.0","null","null","","","","","","","","","","","","","","fixation","","","2","15","","","","","","","","","",""
"","","","","","","","","","","","canvas-keyboard-response","266","172084","0.0-266.0","null","null","","","","","","","","","","","","","","stimulus","","","2","15","","","","","","","","","",""
"","","","","","","","","","","","canvas-button-response","267","172531","0.0-267.0","447","phone","","","","","","","","","","","","","","perceptual","","","2","15","","","","","91","phone","6","0","1",""
"","","","","","","","","","","","canvas-button-response","268","172856","0.0-268.0","324","10","","","","","","","","","","","","","","confidence","","","2","15","","","","","","","","","","9"
"","","","","","","","","","","","preload","269","172856","0.0-269.0","","","","","true","","","","","","","","","","","preload","","","2","16","false","[]","[]","[]","","","","","",""
"","","","","","","","","","","","canvas-keyboard-response","270","173158","0.0-270.0","null","null","","","","","","","","","","","","","","fixation","","","2","16","","","","","","","","","",""
"","","","","","","","","","","","canvas-keyboard-response","271","173459","0.0-271.0","null","null","","","","","","","","","","","","","","stimulus","","","2","16","","","","","","","","","",""
"","","","","","","","","","","","canvas-button-response","272","174052","0.0-272.0","593","house","","","","","","","","","","","","","","perceptual","","","2","16","","","","","2","house","6","0","1",""
"","","","","","","","","","","","canvas-button-response","273","174442","0.0-273.0","389","10","","","","","","","","","","","","","","confidence","","","2","16","","","","","","","","","","10"
"","","","","","","","","","","","preload","274","174443","0.0-274.0","","","","","true","","","","","","","","","","","preload","","","2","17","false","[]","[]","[]","","","","","",""
"","","","","","","","","","","","canvas-keyboard-response","275","174743","0.0-275.0","null","null","","","","","","","","","","","","","","fixation","","","2","17","","","","","","","","","",""
"","","","","","","","","","","","canvas-keyboard-response","276","175044","0.0-276.0","null","null","","","","","","","","","","","","","","stimulus","","","2","17","","","","","","","","","",""
"","","","","","","","","","","","canvas-button-response","277","175991","0.0-277.0","947","car","","","","","","","","","","","","","","perceptual","","","2","17","","","","","47","car","6","0","1",""
"","","","","","","","","","","","canvas-button-response","278","176312","0.0-278.0","320","10","","","","","","","","","","","","","","confidence","","","2","17","","","","","","","","","","11"
"","","","","","","","","","","","preload","279","176313","0.0-279.0","","","","","true","","","","","","","","","","","preload","","","2","18","false","[]","[]","[]","","","","","",""
"","","","","","","","","","","","canvas-keyboard-response","280","176626","0.0-280.0","null","null","","","","","","","","","","","","","","fixation","","","2","18","","","","","","","","","",""
"","","","","","","","","","","","canvas-keyboard-response","281","176939","0.0-281.0","null","null","","","","","","","","","","","","","","stimulus","","","2","18","","","","","","","","","",""
"","","","","","","","","","","","canvas-button-response","282","177432","0.0-282.0","492","phone","","","","","","","","","","","","","","perceptual","","","2","18","","","","","397","knife","10","0","0",""
"","","","","","","","","","","","canvas-button-response","283","178164","0.0-283.0","731","3","","","","","","","","","","","","","","confidence","","","2","18","","","","","","","","","","11"
"","","","","","","","","","","","preload","284","178164","0.0-284.0","","","","","true","","","","","","","","","","","preload","","","2","19","false","[]","[]","[]","","","","","",""
"","","","","","","","","","","","canvas-keyboard-response","285","178466","0.0-285.0","null","null","","","","","","","","","","","","","","fixation","","","2","19","","","","","","","","","",""
"","","","","","","","","","","","canvas-keyboard-response","286","178777","0.0-286.0","null","null","","","","","","","","","","","","","","stimulus","","","2","19","","","","","","","","","",""
"","","","","","","","","","","","canvas-button-response","287","179244","0.0-287.0","466","elephant","","","","","","","","","","","","","","perceptual","","","2","19","","","","","344","elephant","10","0","1",""
"","","","","","","","","","","","canvas-button-response","288","179795","0.0-288.0","550","9","","","","","","","","","","","","","","confidence","","","2","19","","","","","","","","","","12"
"","","","","","","","","","","","preload","289","179795","0.0-289.0","","","","","true","","","","","","","","","","","preload","","","2","20","false","[]","[]","[]","","","","","",""
"","","","","","","","","","","","canvas-keyboard-response","290","180109","0.0-290.0","null","null","","","","","","","","","","","","","","fixation","","","2","20","","","","","","","","","",""
"","","","","","","","","","","","canvas-keyboard-response","291","180416","0.0-291.0","null","null","","","","","","","","","","","","","","stimulus","","","2","20","","","","","","","","","",""
"","","","","","","","","","","","canvas-button-response","292","180983","0.0-292.0","567","knife","","","","","","","","","","","","","","perceptual","","","2","20","","","","","367","knife","6","0","1",""
"","","","","","","","","","","","canvas-button-response","293","181434","0.0-293.0","450","8","","","","","","","","","","","","","","confidence","","","2","20","","","","","","","","","","13"
"","","","","","","","","","","","preload","294","181435","0.0-294.0","","","","","true","","","","","","","","","","","preload","","","2","21","false","[]","[]","[]","","","","","",""
"","","","","","","","","","","","canvas-keyboard-response","295","181735","0.0-295.0","null","null","","","","","","","","","","","","","","fixation","","","2","21","","","","","","","","","",""
"","","","","","","","","","","","canvas-keyboard-response","296","182036","0.0-296.0","null","null","","","","","","","","","","","","","","stimulus","","","2","21","","","","","","","","","",""
"","","","","","","","","","","","canvas-button-response","297","183218","0.0-297.0","1181","train","","","","","","","","","","","","","","perceptual","","","2","21","","","","","264","train","10","0","1",""
"","","","","","","","","","","","canvas-button-response","298","183551","0.0-298.0","332","8","","","","","","","","","","","","","","confidence","","","2","21","","","","","","","","","","14"
"","","","","","","","","","","","preload","299","183552","0.0-299.0","","","","","true","","","","","","","","","","","preload","","","2","22","false","[]","[]","[]","","","","","",""
"","","","","","","","","","","","canvas-keyboard-response","300","183853","0.0-300.0","null","null","","","","","","","","","","","","","","fixation","","","2","22","","","","","","","","","",""
"","","","","","","","","","","","canvas-keyboard-response","301","184160","0.0-301.0","null","null","","","","","","","","","","","","","","stimulus","","","2","22","","","","","","","","","",""
"","","","","","","","","","","","canvas-button-response","302","185063","0.0-302.0","903","car","","","","","","","","","","","","","","perceptual","","","2","22","","","","","325","elephant","6","0","0",""
"","","","","","","","","","","","canvas-button-response","303","185444","0.0-303.0","380","1","","","","","","","","","","","","","","confidence","","","2","22","","","","","","","","","","14"
"","","","","","","","","","","","preload","304","185444","0.0-304.0","","","","","true","","","","","","","","","","","preload","","","2","23","false","[]","[]","[]","","","","","",""
"","","","","","","","","","","","canvas-keyboard-response","305","185749","0.0-305.0","null","null","","","","","","","","","","","","","","fixation","","","2","23","","","","","","","","","",""
"","","","","","","","","","","","canvas-keyboard-response","306","186051","0.0-306.0","null","null","","","","","","","","","","","","","","stimulus","","","2","23","","","","","","","","","",""
"","","","","","","","","","","","canvas-button-response","307","186719","0.0-307.0","667","cat","","","","","","","","","","","","","","perceptual","","","2","23","","","","","296","cat","6","0","1",""
"","","","","","","","","","","","canvas-button-response","308","187037","0.0-308.0","317","9","","","","","","","","","","","","","","confidence","","","2","23","","","","","","","","","","15"
"","","","","","","","","","","","preload","309","187037","0.0-309.0","","","","","true","","","","","","","","","","","preload","","","2","24","false","[]","[]","[]","","","","","",""
"","","","","","","","","","","","canvas-keyboard-response","310","187340","0.0-310.0","null","null","","","","","","","","","","","","","","fixation","","","2","24","","","","","","","","","",""
"","","","","","","","","","","","canvas-keyboard-response","311","187645","0.0-311.0","null","null","","","","","","","","","","","","","","stimulus","","","2","24","","","","","","","","","",""
"","","","","","","","","","","","canvas-button-response","312","188143","0.0-312.0","497","bed","","","","","","","","","","","","","","perceptual","","","2","24","","","","","310","cat","10","0","0",""
"","","","","","","","","","","","canvas-button-response","313","188515","0.0-313.0","371","9","","","","","","","","","","","","","","confidence","","","2","24","","","","","","","","","","15"
"","","","","","","","","","","","preload","314","188516","0.0-314.0","","","","","true","","","","","","","","","","","preload","","","2","25","false","[]","[]","[]","","","","","",""
"","","","","","","","","","","","canvas-keyboard-response","315","188817","0.0-315.0","null","null","","","","","","","","","","","","","","fixation","","","2","25","","","","","","","","","",""
"","","","","","","","","","","","canvas-keyboard-response","316","189118","0.0-316.0","null","null","","","","","","","","","","","","","","stimulus","","","2","25","","","","","","","","","",""
"","","","","","","","","","","","canvas-button-response","317","189611","0.0-317.0","492","train","","","","","","","","","","","","","","perceptual","","","2","25","","","","","241","train","6","0","1",""
"","","","","","","","","","","","canvas-button-response","318","190117","0.0-318.0","505","10","","","","","","","","","","","","","","confidence","","","2","25","","","","","","","","","","16"
"","","","","","","","","","","","preload","319","190118","0.0-319.0","","","","","true","","","","","","","","","","","preload","","","2","26","false","[]","[]","[]","","","","","",""
"","","","","","","","","","","","canvas-keyboard-response","320","190424","0.0-320.0","null","null","","","","","","","","","","","","","","fixation","","","2","26","","","","","","","","","",""
"","","","","","","","","","","","canvas-keyboard-response","321","190731","0.0-321.0","null","null","","","","","","","","","","","","","","stimulus","","","2","26","","","","","","","","","",""
"","","","","","","","","","","","canvas-button-response","322","191358","0.0-322.0","626","flower","","","","","","","","","","","","","","perceptual","","","2","26","","","","","224","flower","10","0","1",""
"","","","","","","","","","","","canvas-button-response","323","191770","0.0-323.0","412","10","","","","","","","","","","","","","","confidence","","","2","26","","","","","","","","","","17"
"","","","","","","","","","","","preload","324","191771","0.0-324.0","","","","","true","","","","","","","","","","","preload","","","2","27","false","[]","[]","[]","","","","","",""
"","","","","","","","","","","","canvas-keyboard-response","325","192079","0.0-325.0","null","null","","","","","","","","","","","","","","fixation","","","2","27","","","","","","","","","",""
"","","","","","","","","","","","canvas-keyboard-response","326","192389","0.0-326.0","null","null","","","","","","","","","","","","","","stimulus","","","2","27","","","","","","","","","",""
"","","","","","","","","","","","canvas-button-response","327","192899","0.0-327.0","509","phone","","","","","","","","","","","","","","perceptual","","","2","27","","","","","110","phone","10","0","1",""
"","","","","","","","","","","","canvas-button-response","328","193668","0.0-328.0","768","9","","","","","","","","","","","","","","confidence","","","2","27","","","","","","","","","","18"
"","","","","","","","","","","","preload","329","193668","0.0-329.0","","","","","true","","","","","","","","","","","preload","","","2","28","false","[]","[]","[]","","","","","",""
"","","","","","","","","","","","canvas-keyboard-response","330","193970","0.0-330.0","null","null","","","","","","","","","","","","","","fixation","","","2","28","","","","","","","","","",""
"","","","","","","","","","","","canvas-keyboard-response","331","194286","0.0-331.0","null","null","","","","","","","","","","","","","","stimulus","","","2","28","","","","","","","","","",""
"","","","","","","","","","","","canvas-button-response","332","195192","0.0-332.0","905","phone","","","","","","","","","","","","","","perceptual","","","2","28","","","","","85","phone","6","0","1",""
"","","","","","","","","","","","canvas-button-response","333","195539","0.0-333.0","346","8","","","","","","","","","","","","","","confidence","","","2","28","","","","","","","","","","19"
"","","","","","","","","","","","preload","334","195539","0.0-334.0","","","","","true","","","","","","","","","","","preload","","","2","29","false","[]","[]","[]","","","","","",""
"","","","","","","","","","","","canvas-keyboard-response","335","195841","0.0-335.0","null","null","","","","","","","","","","","","","","fixation","","","2","29","","","","","","","","","",""
"","","","","","","","","","","","canvas-keyboard-response","336","196145","0.0-336.0","null","null","","","","","","","","","","","","","","stimulus","","","2","29","","","","","","","","","",""
"","","","","","","","","","","","canvas-button-response","337","196732","0.0-337.0","587","elephant","","","","","","","","","","","","","","perceptual","","","2","29","","","","","329","elephant","6","0","1",""
"","","","","","","","","","","","canvas-button-response","338","197055","0.0-338.0","322","8","","","","","","","","","","","","","","confidence","","","2","29","","","","","","","","","","20"
"","","","","","","","","","","","preload","339","197055","0.0-339.0","","","","","true","","","","","","","","","","","preload","","","2","30","false","[]","[]","[]","","","","","",""
"","","","","","","","","","","","canvas-keyboard-response","340","197362","0.0-340.0","null","null","","","","","","","","","","","","","","fixation","","","2","30","","","","","","","","","",""
"","","","","","","","","","","","canvas-keyboard-response","341","197676","0.0-341.0","null","null","","","","","","","","","","","","","","stimulus","","","2","30","","","","","","","","","",""
"","","","","","","","","","","","canvas-button-response","342","198509","0.0-342.0","832","bridge","","","","","","","","","","","","","","perceptual","","","2","30","","","","","173","bridge","6","0","1",""
"","","","","","","","","","","","canvas-button-response","343","198936","0.0-343.0","426","1","","","","","","","","","","","","","","confidence","","","2","30","","","","","","","","","","21"
"","","","","","","","","","","","preload","344","198936","0.0-344.0","","","","","true","","","","","","","","","","","preload","","","2","31","false","[]","[]","[]","","","","","",""
"","","","","","","","","","","","canvas-keyboard-response","345","199243","0.0-345.0","null","null","","","","","","","","","","","","","","fixation","","","2","31","","","","","","","","","",""
"","","","","","","","","","","","canvas-keyboard-response","346","199557","0.0-346.0","null","null","","","","","","","","","","","","","","stimulus","","","2","31","","","","","","","","","",""
"","","","","","","","","","","","canvas-button-response","347","200013","0.0-347.0","456","bed","","","","","","","","","","","","","","perceptual","","","2","31","","","","","124","bed","6","0","1",""
"","","","","","","","","","","","canvas-button-response","348","200383","0.0-348.0","369","10","","","","","","","","","","","","","","confidence","","","2","31","","","","","","","","","","22"
"","","","","","","","","","","","preload","349","200383","0.0-349.0","","","","","true","","","","","","","","","","","preload","","","2","32","false","[]","[]","[]","","","","","",""
"","","","","","","","","","","","canvas-keyboard-response","350","200684","0.0-350.0","null","null","","","","","","","","","","","","","","fixation","","","2","32","","","","","","","","","",""
"","","","","","","","","","","","canvas-keyboard-response","351","200987","0.0-351.0","null","null","","","","","","","","","","","","","","stimulus","","","2","32","","","","","","","","","",""
"","","","","","","","","","","","canvas-button-response","352","202616","0.0-352.0","1628","bridge","","","","","","","","","","","","","","perceptual","","","2","32","","","","","41","car","6","0","0",""
"","","","","","","","","","","","canvas-button-response","353","203291","0.0-353.0","674","1","","","","","","","","","","","","","","confidence","","","2","32","","","","","","","","","","22"
"","","","","","","","","","","","preload","354","203291","0.0-354.0","","","","","true","","","","","","","","","","","preload","","","2","33","false","[]","[]","[]","","","","","",""
"","","","","","","","","","","","canvas-keyboard-response","355","203605","0.0-355.0","null","null","","","","","","","","","","","","","","fixation","","","2","33","","","","","","","","","",""
"","","","","","","","","","","","canvas-keyboard-response","356","203908","0.0-356.0","null","null","","","","","","","","","","","","","","stimulus","","","2","33","","","","","","","","","",""
"","","","","","","","","","","","canvas-button-response","357","204813","0.0-357.0","904","bridge","","","","","","","","","","","","","","perceptual","","","2","33","","","","","180","bridge","10","0","1",""
"","","","","","","","","","","","canvas-button-response","358","205395","0.0-358.0","581","8","","","","","","","","","","","","","","confidence","","","2","33","","","","","","","","","","23"
"","","","","","","","","","","","preload","359","205395","0.0-359.0","","","","","true","","","","","","","","","","","preload","","","2","34","false","[]","[]","[]","","","","","",""
"","","","","","","","","","","","canvas-keyboard-response","360","205695","0.0-360.0","null","null","","","","","","","","","","","","","","fixation","","","2","34","","","","","","","","","",""
"","","","","","","","","","","","canvas-keyboard-response","361","205997","0.0-361.0","null","null","","","","","","","","","","","","","","stimulus","","","2","34","","","","","","","","","",""
"","","","","","","","","","","","canvas-button-response","362","206829","0.0-362.0","831","cat","","","","","","","","","","","","","","perceptual","","","2","34","","","","","281","cat","6","0","1",""
"","","","","","","","","","","","canvas-button-response","363","207603","0.0-363.0","773","5","","","","","","","","","","","","","","confidence","","","2","34","","","","","","","","","","24"
"","","","","","","","","","","","preload","364","207603","0.0-364.0","","","","","true","","","","","","","","","","","preload","","","2","35","false","[]","[]","[]","","","","","",""
"","","","","","","","","","","","canvas-keyboard-response","365","207910","0.0-365.0","null","null","","","","","","","","","","","","","","fixation","","","2","35","","","","","","","","","",""
"","","","","","","","","","","","canvas-keyboard-response","366","208214","0.0-366.0","null","null","","","","","","","","","","","","","","stimulus","","","2","35","","","","","","","","","",""
"","","","","","","","","","","","canvas-button-response","367","209051","0.0-367.0","836","bed","","","","","","","","","","","","","","perceptual","","","2","35","","","","","137","bed","6","0","1",""
"","","","","","","","","","","","canvas-button-response","368","209437","0.0-368.0","385","8","","","","","","","","","","","","","","confidence","","","2","35","","","","","","","","","","25"
"","","","","","","","","","","","preload","369","209437","0.0-369.0","","","","","true","","","","","","","","","","","preload","","","2","36","false","[]","[]","[]","","","","","",""
"","","","","","","","","","","","canvas-keyboard-response","370","209747","0.0-370.0","null","null","","","","","","","","","","","","","","fixation","","","2","36","","","","","","","","","",""
"","","","","","","","","","","","canvas-keyboard-response","371","210051","0.0-371.0","null","null","","","","","","","","","","","","","","stimulus","","","2","36","","","","","","","","","",""
"","","","","","","","","","","","canvas-button-response","372","210586","0.0-372.0","534","house","","","","","","","","","","","","","","perceptual","","","2","36","","","","","1","house","6","0","1",""
"","","","","","","","","","","","canvas-button-response","373","210984","0.0-373.0","397","7","","","","","","","","","","","","","","confidence","","","2","36","","","","","","","","","","26"
"","","","","","","","","","","","preload","374","210984","0.0-374.0","","","","","true","","","","","","","","","","","preload","","","2","37","false","[]","[]","[]","","","","","",""
"","","","","","","","","","","","canvas-keyboard-response","375","211285","0.0-375.0","null","null","","","","","","","","","","","","","","fixation","","","2","37","","","","","","","","","",""
"","","","","","","","","","","","canvas-keyboard-response","376","211594","0.0-376.0","null","null","","","","","","","","","","","","","","stimulus","","","2","37","","","","","","","","","",""
"","","","","","","","","","","","canvas-button-response","377","212326","0.0-377.0","731","phone","","","","","","","","","","","","","","perceptual","","","2","37","","","","","108","phone","10","0","1",""
"","","","","","","","","","","","canvas-button-response","378","212794","0.0-378.0","467","1","","","","","","","","","","","","","","confidence","","","2","37","","","","","","","","","","27"
"","","","","","","","","","","","preload","379","212794","0.0-379.0","","","","","true","","","","","","","","","","","preload","","","2","38","false","[]","[]","[]","","","","","",""
"","","","","","","","","","","","canvas-keyboard-response","380","213098","0.0-380.0","null","null","","","","","","","","","","","","","","fixation","","","2","38","","","","","","","","","",""
"","","","","","","","","","","","canvas-keyboard-response","381","213407","0.0-381.0","null","null","","","","","","","","","","","","","","stimulus","","","2","38","","","","","","","","","",""
"","","","","","","","","","","","canvas-button-response","382","213819","0.0-382.0","411","bed","","","","","","","","","","","","","","perceptual","","","2","38","","","","","120","bed","6","0","1",""
"","","","","","","","","","","","canvas-button-response","383","214188","0.0-383.0","368","10","","","","","","","","","","","","","","confidence","","","2","38","","","","","","","","","","28"
"","","","","","","","","","","","preload","384","214188","0.0-384.0","","","","","true","","","","","","","","","","","preload","","","2","39","false","[]","[]","[]","","","","","",""
"","","","","","","","","","","","canvas-keyboard-response","385","214489","0.0-385.0","null","null","","","","","","","","","","","","","","fixation","","","2","39","","","","","","","","","",""
"","","","","","","","","","","","canvas-keyboard-response","386","214804","0.0-386.0","null","null","","","","","","","","","","","","","","stimulus","","","2","39","","","","","","","","","",""
"","","","","","","","","","","","canvas-button-response","387","216308","0.0-387.0","1503","car","","","","","","","","","","","","","","perceptual","","","2","39","","","","","68","car","10","0","1",""
"","","","","","","","","","","","canvas-button-response","388","216633","0.0-388.0","324","7","","","","","","","","","","","","","","confidence","","","2","39","","","","","","","","","","29"
"","","","","","","","","","","","preload","389","216633","0.0-389.0","","","","","true","","","","","","","","","","","preload","","","2","40","false","[]","[]","[]","","","","","",""
"","","","","","","","","","","","canvas-keyboard-response","390","216947","0.0-390.0","null","null","","","","","","","","","","","","","","fixation","","","2","40","","","","","","","","","",""
"","","","","","","","","","","","canvas-keyboard-response","391","217258","0.0-391.0","null","null","","","","","","","","","","","","","","stimulus","","","2","40","","","","","","","","","",""
"","","","","","","","","","","","canvas-button-response","392","218032","0.0-392.0","773","cat","","","","","","","","","","","","","","perceptual","","","2","40","","","","","69","car","10","0","0",""
"","","","","","","","","","","","canvas-button-response","393","218677","0.0-393.0","643","1","","","","","","","","","","","","","","confidence","","","2","40","","","","","","","","","","29"
"","","","","","","","","","","","preload","394","218677","0.0-394.0","","","","","true","","","","","","","","","","","preload","","","2","41","false","[]","[]","[]","","","","","",""
"","","","","","","","","","","","canvas-keyboard-response","395","218986","0.0-395.0","null","null","","","","","","","","","","","","","","fixation","","","2","41","","","","","","","","","",""
"","","","","","","","","","","","canvas-keyboard-response","396","219296","0.0-396.0","null","null","","","","","","","","","","","","","","stimulus","","","2","41","","","","","","","","","",""
"","","","","","","","","","","","canvas-button-response","397","219943","0.0-397.0","647","house","","","","","","","","","","","","","","perceptual","","","2","41","","","","","24","house","10","0","1",""
"","","","","","","","","","","","canvas-button-response","398","220736","0.0-398.0","792","1","","","","","","","","","","","","","","confidence","","","2","41","","","","","","","","","","30"
"","","","","","","","","","","","preload","399","220736","0.0-399.0","","","","","true","","","","","","","","","","","preload","","","2","42","false","[]","[]","[]","","","","","",""
"","","","","","","","","","","","canvas-keyboard-response","400","221041","0.0-400.0","null","null","","","","","","","","","","","","","","fixation","","","2","42","","","","","","","","","",""
"","","","","","","","","","","","canvas-keyboard-response","401","221350","0.0-401.0","null","null","","","","","","","","","","","","","","stimulus","","","2","42","","","","","","","","","",""
"","","","","","","","","","","","canvas-button-response","402","222005","0.0-402.0","653","car","","","","","","","","","","","","","","perceptual","","","2","42","","","","","194","bridge","10","0","0",""
"","","","","","","","","","","","canvas-button-response","403","222418","0.0-403.0","413","1","","","","","","","","","","","","","","confidence","","","2","42","","","","","","","","","","30"
"","","","","","","","","","","","preload","404","222418","0.0-404.0","","","","","true","","","","","","","","","","","preload","","","2","43","false","[]","[]","[]","","","","","",""
"","","","","","","","","","","","canvas-keyboard-response","405","222726","0.0-405.0","null","null","","","","","","","","","","","","","","fixation","","","2","43","","","","","","","","","",""
"","","","","","","","","","","","canvas-keyboard-response","406","223041","0.0-406.0","null","null","","","","","","","","","","","","","","stimulus","","","2","43","","","","","","","","","",""
"","","","","","","","","","","","canvas-button-response","407","223580","0.0-407.0","537","phone","","","","","","","","","","","","","","perceptual","","","2","43","","","","","301","cat","10","0","0",""
"","","","","","","","","","","","canvas-button-response","408","223990","0.0-408.0","409","1","","","","","","","","","","","","","","confidence","","","2","43","","","","","","","","","","30"
"","","","","","","","","","","","preload","409","223990","0.0-409.0","","","","","true","","","","","","","","","","","preload","","","2","44","false","[]","[]","[]","","","","","",""
"","","","","","","","","","","","canvas-keyboard-response","410","224302","0.0-410.0","null","null","","","","","","","","","","","","","","fixation","","","2","44","","","","","","","","","",""
"","","","","","","","","","","","canvas-keyboard-response","411","224610","0.0-411.0","null","null","","","","","","","","","","","","","","stimulus","","","2","44","","","","","","","","","",""
"","","","","","","","","","","","canvas-button-response","412","225232","0.0-412.0","621","bridge","","","","","","","","","","","","","","perceptual","","","2","44","","","","","152","bed","10","0","0",""
"","","","","","","","","","","","canvas-button-response","413","225835","0.0-413.0","602","1","","","","","","","","","","","","","","confidence","","","2","44","","","","","","","","","","30"
"","","","","","","","","","","","preload","414","225835","0.0-414.0","","","","","true","","","","","","","","","","","preload","","","2","45","false","[]","[]","[]","","","","","",""
"","","","","","","","","","","","canvas-keyboard-response","415","226137","0.0-415.0","null","null","","","","","","","","","","","","","","fixation","","","2","45","","","","","","","","","",""
"","","","","","","","","","","","canvas-keyboard-response","416","226447","0.0-416.0","null","null","","","","","","","","","","","","","","stimulus","","","2","45","","","","","","","","","",""
"","","","","","","","","","","","canvas-button-response","417","226891","0.0-417.0","443","flower","","","","","","","","","","","","","","perceptual","","","2","45","","","","","230","flower","10","0","1",""
"","","","","","","","","","","","canvas-button-response","418","227303","0.0-418.0","411","9","","","","","","","","","","","","","","confidence","","","2","45","","","","","","","","","","31"
"","","","","","","","","","","","preload","419","227304","0.0-419.0","","","","","true","","","","","","","","","","","preload","","","2","46","false","[]","[]","[]","","","","","",""
"","","","","","","","","","","","canvas-keyboard-response","420","227611","0.0-420.0","null","null","","","","","","","","","","","","","","fixation","","","2","46","","","","","","","","","",""
"","","","","","","","","","","","canvas-keyboard-response","421","227919","0.0-421.0","null","null","","","","","","","","","","","","","","stimulus","","","2","46","","","","","","","","","",""
"","","","","","","","","","","","canvas-button-response","422","228815","0.0-422.0","894","flower","","","","","","","","","","","","","","perceptual","","","2","46","","","","","358","elephant","10","0","0",""
"","","","","","","","","","","","canvas-button-response","423","229328","0.0-423.0","512","6","","","","","","","","","","","","","","confidence","","","2","46","","","","","","","","","","31"
"","","","","","","","","","","","preload","424","229328","0.0-424.0","","","","","true","","","","","","","","","","","preload","","","2","47","false","[]","[]","[]","","","","","",""
"","","","","","","","","","","","canvas-keyboard-response","425","229629","0.0-425.0","null","null","","","","","","","","","","","","","","fixation","","","2","47","","","","","","","","","",""
"","","","","","","","","","","","canvas-keyboard-response","426","229943","0.0-426.0","null","null","","","","","","","","","","","","","","stimulus","","","2","47","","","","","","","","","",""
"","","","","","","","","","","","canvas-button-response","427","230617","0.0-427.0","673","train","","","","","","","","","","","","","","perceptual","","","2","47","","","","","368","knife","6","0","0",""
"","","","","","","","","","","","canvas-button-response","428","230968","0.0-428.0","351","8","","","","","","","","","","","","","","confidence","","","2","47","","","","","","","","","","31"
"","","","","","","","","","","","preload","429","230969","0.0-429.0","","","","","true","","","","","","","","","","","preload","","","2","48","false","[]","[]","[]","","","","","",""
"","","","","","","","","","","","canvas-keyboard-response","430","231279","0.0-430.0","null","null","","","","","","","","","","","","","","fixation","","","2","48","","","","","","","","","",""
"","","","","","","","","","","","canvas-keyboard-response","431","231594","0.0-431.0","null","null","","","","","","","","","","","","","","stimulus","","","2","48","","","","","","","","","",""
"","","","","","","","","","","","canvas-button-response","432","232052","0.0-432.0","457","elephant","","","","","","","","","","","","","","perceptual","","","2","48","","","","","333","elephant","6","0","1",""
"","","","","","","","","","","","canvas-button-response","433","232376","0.0-433.0","323","10","","","","","","","","","","","","","","confidence","","","2","48","","","","","","","","","","32"
"","","","","","","","","","","","preload","434","232377","0.0-434.0","","","","","true","","","","","","","","","","","preload","","","2","49","false","[]","[]","[]","","","","","",""
"","","","","","","","","","","","canvas-keyboard-response","435","232687","0.0-435.0","null","null","","","","","","","","","","","","","","fixation","","","2","49","","","","","","","","","",""
"","","","","","","","","","","","canvas-keyboard-response","436","232993","0.0-436.0","null","null","","","","","","","","","","","","","","stimulus","","","2","49","","","","","","","","","",""
"","","","","","","","","","","","canvas-button-response","437","233912","0.0-437.0","918","elephant","","","","","","","","","","","","","","perceptual","","","2","49","","","","","196","bridge","10","0","0",""
"","","","","","","","","","","","canvas-button-response","438","234983","0.0-438.0","1070","6","","","","","","","","","","","","","","confidence","","","2","49","","","","","","","","","","32"
"","","","","","","","","","","","html-button-response","439","236176","0.0-439.0","1192","0","","","","","","","","","","","","","","<p style=""font-size:20px;color:#000000"">You got 32 out of 50 trials correct in this block.<br><br>You have completed 6% of the experiment.<br><br>Take a short break.<br><br>When you are ready, click Continue to proceed.","","","2","49","","","","","","","","","",""
"","","","","","","","","","","","html-keyboard-response","440","237190","0.0-440.0","null","null","","","","","","","","","","","","","","<p style=""font-size:32px;color:#000000""><br><br> RUN: &nbsp 1/4 <br><br> BLOCK: 2/4 ","","","2","49","","","","","","","","","",""
"","","","","","","","","","","","preload","441","237190","0.0-441.0","","","","","true","","","","","","","","","","","preload","","","2","50","false","[]","[]","[]","","","","","",""
"","","","","","","","","","","","canvas-keyboard-response","442","237501","0.0-442.0","null","null","","","","","","","","","","","","","","fixation","","","2","50","","","","","","","","","",""
"","","","","","","","","","","","canvas-keyboard-response","443","237810","0.0-443.0","null","null","","","","","","","","","","","","","","stimulus","","","2","50","","","","","","","","","",""
"","","","","","","","","","","","canvas-button-response","444","240335","0.0-444.0","2519","cat","","","","","","","","","","","","","","perceptual","","","2","50","","","","","307","cat","10","0","1",""
"","","","","","","","","","","","canvas-button-response","445","240786","0.0-445.0","450","1","","","","","","","","","","","","","","confidence","","","2","50","","","","","","","","","","1"
"","","","","","","","","","","","preload","446","240786","0.0-446.0","","","","","true","","","","","","","","","","","preload","","","2","51","false","[]","[]","[]","","","","","",""
"","","","","","","","","","","","canvas-keyboard-response","447","241097","0.0-447.0","null","null","","","","","","","","","","","","","","fixation","","","2","51","","","","","","","","","",""
"","","","","","","","","","","","canvas-keyboard-response","448","241406","0.0-448.0","null","null","","","","","","","","","","","","","","stimulus","","","2","51","","","","","","","","","",""
"","","","","","","","","","","","canvas-button-response","449","242280","0.0-449.0","873","phone","","","","","","","","","","","","","","perceptual","","","2","51","","","","","101","phone","10","0","1",""
"","","","","","","","","","","","canvas-button-response","450","242636","0.0-450.0","355","2","","","","","","","","","","","","","","confidence","","","2","51","","","","","","","","","","2"
"","","","","","","","","","","","preload","451","242636","0.0-451.0","","","","","true","","","","","","","","","","","preload","","","2","52","false","[]","[]","[]","","","","","",""
"","","","","","","","","","","","canvas-keyboard-response","452","242942","0.0-452.0","null","null","","","","","","","","","","","","","","fixation","","","2","52","","","","","","","","","",""
"","","","","","","","","","","","canvas-keyboard-response","453","243258","0.0-453.0","null","null","","","","","","","","","","","","","","stimulus","","","2","52","","","","","","","","","",""
"","","","","","","","","","","","canvas-button-response","454","243993","0.0-454.0","735","train","","","","","","","","","","","","","","perceptual","","","2","52","","","","","145","bed","10","0","0",""
"","","","","","","","","","","","canvas-button-response","455","244466","0.0-455.0","472","1","","","","","","","","","","","","","","confidence","","","2","52","","","","","","","","","","2"
"","","","","","","","","","","","preload","456","244467","0.0-456.0","","","","","true","","","","","","","","","","","preload","","","2","53","false","[]","[]","[]","","","","","",""
"","","","","","","","","","","","canvas-keyboard-response","457","244783","0.0-457.0","null","null","","","","","","","","","","","","","","fixation","","","2","53","","","","","","","","","",""
"","","","","","","","","","","","canvas-keyboard-response","458","245094","0.0-458.0","null","null","","","","","","","","","","","","","","stimulus","","","2","53","","","","","","","","","",""
"","","","","","","","","","","","canvas-button-response","459","245557","0.0-459.0","462","phone","","","","","","","","","","","","","","perceptual","","","2","53","","","","","82","phone","6","0","1",""
"","","","","","","","","","","","canvas-button-response","460","245803","0.0-460.0","245","9","","","","","","","","","","","","","","confidence","","","2","53","","","","","","","","","","3"
"","","","","","","","","","","","preload","461","245803","0.0-461.0","","","","","true","","","","","","","","","","","preload","","","2","54","false","[]","[]","[]","","","","","",""
"","","","","","","","","","","","canvas-keyboard-response","462","246116","0.0-462.0","null","null","","","","","","","","","","","","","","fixation","","","2","54","","","","","","","","","",""
"","","","","","","","","","","","canvas-keyboard-response","463","246419","0.0-463.0","null","null","","","","","","","","","","","","","","stimulus","","","2","54","","","","","","","","","",""
"","","","","","","","","","","","canvas-button-response","464","247213","0.0-464.0","793","bridge","","","","","","","","","","","","","","perceptual","","","2","54","","","","","277","train","10","0","0",""
"","","","","","","","","","","","canvas-button-response","465","248322","0.0-465.0","1109","7","","","","","","","","","","","","","","confidence","","","2","54","","","","","","","","","","3"
"","","","","","","","","","","","preload","466","248322","0.0-466.0","","","","","true","","","","","","","","","","","preload","","","2","55","false","[]","[]","[]","","","","","",""
"","","","","","","","","","","","canvas-keyboard-response","467","248638","0.0-467.0","null","null","","","","","","","","","","","","","","fixation","","","2","55","","","","","","","","","",""
"","","","","","","","","","","","canvas-keyboard-response","468","248954","0.0-468.0","null","null","","","","","","","","","","","","","","stimulus","","","2","55","","","","","","","","","",""
"","","","","","","","","","","","canvas-button-response","469","249454","0.0-469.0","499","knife","","","","","","","","","","","","","","perceptual","","","2","55","","","","","370","knife","6","0","1",""
"","","","","","","","","","","","canvas-button-response","470","249853","0.0-470.0","398","10","","","","","","","","","","","","","","confidence","","","2","55","","","","","","","","","","4"
"","","","","","","","","","","","preload","471","249853","0.0-471.0","","","","","true","","","","","","","","","","","preload","","","2","56","false","[]","[]","[]","","","","","",""
"","","","","","","","","","","","canvas-keyboard-response","472","250154","0.0-472.0","null","null","","","","","","","","","","","","","","fixation","","","2","56","","","","","","","","","",""
"","","","","","","","","","","","canvas-keyboard-response","473","250457","0.0-473.0","null","null","","","","","","","","","","","","","","stimulus","","","2","56","","","","","","","","","",""
"","","","","","","","","","","","canvas-button-response","474","251322","0.0-474.0","865","train","","","","","","","","","","","","","","perceptual","","","2","56","","","","","26","house","10","0","0",""
"","","","","","","","","","","","canvas-button-response","475","252557","0.0-475.0","1234","6","","","","","","","","","","","","","","confidence","","","2","56","","","","","","","","","","4"
"","","","","","","","","","","","preload","476","252558","0.0-476.0","","","","","true","","","","","","","","","","","preload","","","2","57","false","[]","[]","[]","","","","","",""
"","","","","","","","","","","","canvas-keyboard-response","477","252866","0.0-477.0","null","null","","","","","","","","","","","","","","fixation","","","2","57","","","","","","","","","",""
"","","","","","","","","","","","canvas-keyboard-response","478","253182","0.0-478.0","null","null","","","","","","","","","","","","","","stimulus","","","2","57","","","","","","","","","",""
"","","","","","","","","","","","canvas-button-response","479","254330","0.0-479.0","1147","knife","","","","","","","","","","","","","","perceptual","","","2","57","","","","","375","knife","6","0","1",""
"","","","","","","","","","","","canvas-button-response","480","254689","0.0-480.0","358","1","","","","","","","","","","","","","","confidence","","","2","57","","","","","","","","","","5"
"","","","","","","","","","","","preload","481","254689","0.0-481.0","","","","","true","","","","","","","","","","","preload","","","2","58","false","[]","[]","[]","","","","","",""
"","","","","","","","","","","","canvas-keyboard-response","482","255002","0.0-482.0","null","null","","","","","","","","","","","","","","fixation","","","2","58","","","","","","","","","",""
"","","","","","","","","","","","canvas-keyboard-response","483","255311","0.0-483.0","null","null","","","","","","","","","","","","","","stimulus","","","2","58","","","","","","","","","",""
"","","","","","","","","","","","canvas-button-response","484","255952","0.0-484.0","640","bridge","","","","","","","","","","","","","","perceptual","","","2","58","","","","","13","house","6","0","0",""
"","","","","","","","","","","","canvas-button-response","485","256347","0.0-485.0","394","1","","","","","","","","","","","","","","confidence","","","2","58","","","","","","","","","","5"
"","","","","","","","","","","","preload","486","256347","0.0-486.0","","","","","true","","","","","","","","","","","preload","","","2","59","false","[]","[]","[]","","","","","",""
"","","","","","","","","","","","canvas-keyboard-response","487","256656","0.0-487.0","null","null","","","","","","","","","","","","","","fixation","","","2","59","","","","","","","","","",""
"","","","","","","","","","","","canvas-keyboard-response","488","256963","0.0-488.0","null","null","","","","","","","","","","","","","","stimulus","","","2","59","","","","","","","","","",""
"","","","","","","","","","","","canvas-button-response","489","257577","0.0-489.0","613","elephant","","","","","","","","","","","","","","perceptual","","","2","59","","","","","326","elephant","6","0","1",""
"","","","","","","","","","","","canvas-button-response","490","258007","0.0-490.0","429","9","","","","","","","","","","","","","","confidence","","","2","59","","","","","","","","","","6"
"","","","","","","","","","","","preload","491","258007","0.0-491.0","","","","","true","","","","","","","","","","","preload","","","2","60","false","[]","[]","[]","","","","","",""
"","","","","","","","","","","","canvas-keyboard-response","492","258308","0.0-492.0","null","null","","","","","","","","","","","","","","fixation","","","2","60","","","","","","","","","",""
"","","","","","","","","","","","canvas-keyboard-response","493","258610","0.0-493.0","null","null","","","","","","","","","","","","","","stimulus","","","2","60","","","","","","","","","",""
