"width","height","webaudio","browser","browser_version","mobile","os","fullscreen","vsync_rate","webcam","microphone","trial_type","trial_index","time_elapsed","internal_node_id","rt","response","accuracy","view_history","success","item_width_mm","item_height_mm","item_width_px","px2mm","view_dist_mm","item_width_deg","px2deg","scale_factor","win_width_deg","win_height_deg","stimulus","datetime","subjectID","curr_triallist","trial_no","timeout","failed_images","failed_audio","failed_video","image_index","category","blur","reps","correct","running_score"
"1492","750","true","chrome","140.0.0","false","Mac OS","true","120.43","true","true","browser-check","0","505","0.0-0.0","","","","","","","","","","","","","","","","","","","","","","","","","","","","","",""
"","","","","","","","","","","","survey","1","32160","0.0-1.0","31618","{""P0_Q0"":""903770973"",""P0_Q1"":""21"",""P1_Q0"":""Female"",""P1_Q1"":""Not Hispanic or Latino"",""P1_Q2"":""Black or African American"",""P1_Q3"":""Corrected-to-Normal (using glasses/contacts)"",""P1_Q4"":""Left-Handed""}","[]","","","","","","","","","","","","","","","","","","","","","","","","","","",""
"","","","","","","","","","","","instructions","2","85450","0.0-2.0","53289","","","[{""page_index"":0,""viewing_time"":9987},{""page_index"":1,""viewing_time"":12317},{""page_index"":2,""viewing_time"":15998},{""page_index"":3,""viewing_time"":14986}]","","","","","","","","","","","","","","","","","","","","","","","","","",""
"","","","","","","","","","","","fullscreen","3","91859","0.0-3.0","5405","","","","true","","","","","","","","","","","","","","","","","","","","","","","","",""
"","","","","","","","","","","","virtual-chinrest","4","282261","0.0-4.0","190400","","","","","85.6","53.98","186.84697800657244","2.181371417875774","786.69","6.228232600219082","29.999999999999996","2.237124755559582","50.400000000000006","31.500000000000004","","","","","","","","","","","","","","",""
"","","","","","","","","","","","instructions","5","440642","0.0-5.0","158353","","","[{""page_index"":0,""viewing_time"":14364},{""page_index"":1,""viewing_time"":42409},{""page_index"":2,""viewing_time"":11817},{""page_index"":3,""viewing_time"":6901},{""page_index"":4,""viewing_time"":15414},{""page_index"":5,""viewing_time"":62793},{""page_index"":6,""viewing_time"":4655}]","","","","","","","","","","","","","","","","","","","","","","","","","",""
"","","","","","","","","","","","html-button-response","6","449039","0.0-6.0","8387","0","","","","","","","","","","","","","","start_practice","Tue Oct 21 2025 15:45:22 GMT-0400 (Eastern Daylight Time)","19499","","","","","","","","","","","",""
"","","","","","","","","","","","preload","7","449040","0.0-7.0","","","","","true","","","","","","","","","","","preload","","","0","0","false","[]","[]","[]","","","","","",""
"","","","","","","","","","","","canvas-keyboard-response","8","449346","0.0-8.0","null","null","","","","","","","","","","","","","","fixation","","","0","0","","","","","","","","","",""
"","","","","","","","","","","","canvas-keyboard-response","9","449651","0.0-9.0","null","null","","","","","","","","","","","","","","stimulus","","","0","0","","","","","","","","","",""
"","","","","","","","","","","","canvas-button-response","10","455615","0.0-10.0","5956","bridge","","","","","","","","","","","","","","perceptual","","","0","0","","","","","42","bridge","1","","1",""
"","","","","","","","","","","","canvas-button-response","11","457748","0.0-11.0","2131","3","","","","","","","","","","","","","","confidence","","","0","0","","","","","","","","","","1"
"","","","","","","","","","","","html-keyboard-response","12","458752","0.0-12.0","null","null","","","","","","","","","","","","","","feedback","Tue Oct 21 2025 15:45:39 GMT-0400 (Eastern Daylight Time)","19499","0","0","","","","","","","","","",""
"","","","","","","","","","","","preload","13","458754","0.0-13.0","","","","","true","","","","","","","","","","","preload","","","0","1","false","[]","[]","[]","","","","","",""
"","","","","","","","","","","","canvas-keyboard-response","14","459058","0.0-14.0","null","null","","","","","","","","","","","","","","fixation","","","0","1","","","","","","","","","",""
"","","","","","","","","","","","canvas-keyboard-response","15","459362","0.0-15.0","null","null","","","","","","","","","","","","","","stimulus","","","0","1","","","","","","","","","",""
"","","","","","","","","","","","canvas-button-response","16","460904","0.0-16.0","1539","house","","","","","","","","","","","","","","perceptual","","","0","1","","","","","2","house","1","","1",""
"","","","","","","","","","","","canvas-button-response","17","461865","0.0-17.0","959","10","","","","","","","","","","","","","","confidence","","","0","1","","","","","","","","","","2"
"","","","","","","","","","","","html-keyboard-response","18","462869","0.0-18.0","null","null","","","","","","","","","","","","","","feedback","Tue Oct 21 2025 15:45:43 GMT-0400 (Eastern Daylight Time)","19499","0","1","","","","","","","","","",""
"","","","","","","","","","","","preload","19","462870","0.0-19.0","","","","","true","","","","","","","","","","","preload","","","0","2","false","[]","[]","[]","","","","","",""
"","","","","","","","","","","","canvas-keyboard-response","20","463174","0.0-20.0","null","null","","","","","","","","","","","","","","fixation","","","0","2","","","","","","","","","",""
"","","","","","","","","","","","canvas-keyboard-response","21","463478","0.0-21.0","null","null","","","","","","","","","","","","","","stimulus","","","0","2","","","","","","","","","",""
"","","","","","","","","","","","canvas-button-response","22","476316","0.0-22.0","12833","knife","","","","","","","","","","","","","","perceptual","","","0","2","","","","","92","knife","1","","1",""
"","","","","","","","","","","","canvas-button-response","23","477678","0.0-23.0","1359","4","","","","","","","","","","","","","","confidence","","","0","2","","","","","","","","","","3"
"","","","","","","","","","","","html-keyboard-response","24","478682","0.0-24.0","null","null","","","","","","","","","","","","","","feedback","Tue Oct 21 2025 15:45:59 GMT-0400 (Eastern Daylight Time)","19499","0","2","","","","","","","","","",""
"","","","","","","","","","","","preload","25","478682","0.0-25.0","","","","","true","","","","","","","","","","","preload","","","0","3","false","[]","[]","[]","","","","","",""
"","","","","","","","","","","","canvas-keyboard-response","26","478985","0.0-26.0","null","null","","","","","","","","","","","","","","fixation","","","0","3","","","","","","","","","",""
"","","","","","","","","","","","canvas-keyboard-response","27","479288","0.0-27.0","null","null","","","","","","","","","","","","","","stimulus","","","0","3","","","","","","","","","",""
"","","","","","","","","","","","canvas-button-response","28","480716","0.0-28.0","1424","train","","","","","","","","","","","","","","perceptual","","","0","3","","","","","62","train","1","","1",""
"","","","","","","","","","","","canvas-button-response","29","481453","0.0-29.0","735","10","","","","","","","","","","","","","","confidence","","","0","3","","","","","","","","","","4"
"","","","","","","","","","","","html-keyboard-response","30","482456","0.0-30.0","null","null","","","","","","","","","","","","","","feedback","Tue Oct 21 2025 15:46:02 GMT-0400 (Eastern Daylight Time)","19499","0","3","","","","","","","","","",""
"","","","","","","","","","","","preload","31","482458","0.0-31.0","","","","","true","","","","","","","","","","","preload","","","0","4","false","[]","[]","[]","","","","","",""
"","","","","","","","","","","","canvas-keyboard-response","32","482762","0.0-32.0","null","null","","","","","","","","","","","","","","fixation","","","0","4","","","","","","","","","",""
"","","","","","","","","","","","canvas-keyboard-response","33","483066","0.0-33.0","null","null","","","","","","","","","","","","","","stimulus","","","0","4","","","","","","","","","",""
"","","","","","","","","","","","canvas-button-response","34","484842","0.0-34.0","1773","phone","","","","","","","","","","","","","","perceptual","","","0","4","","","","","22","phone","1","","1",""
"","","","","","","","","","","","canvas-button-response","35","485832","0.0-35.0","988","7","","","","","","","","","","","","","","confidence","","","0","4","","","","","","","","","","5"
"","","","","","","","","","","","html-keyboard-response","36","486835","0.0-36.0","null","null","","","","","","","","","","","","","","feedback","Tue Oct 21 2025 15:46:07 GMT-0400 (Eastern Daylight Time)","19499","0","4","","","","","","","","","",""
"","","","","","","","","","","","preload","37","486837","0.0-37.0","","","","","true","","","","","","","","","","","preload","","","0","5","false","[]","[]","[]","","","","","",""
"","","","","","","","","","","","canvas-keyboard-response","38","487141","0.0-38.0","null","null","","","","","","","","","","","","","","fixation","","","0","5","","","","","","","","","",""
"","","","","","","","","","","","canvas-keyboard-response","39","487444","0.0-39.0","null","null","","","","","","","","","","","","","","stimulus","","","0","5","","","","","","","","","",""
"","","","","","","","","","","","canvas-button-response","40","488754","0.0-40.0","1306","bed","","","","","","","","","","","","","","perceptual","","","0","5","","","","","32","bed","1","","1",""
"","","","","","","","","","","","canvas-button-response","41","489738","0.0-41.0","981","10","","","","","","","","","","","","","","confidence","","","0","5","","","","","","","","","","6"
"","","","","","","","","","","","html-keyboard-response","42","490741","0.0-42.0","null","null","","","","","","","","","","","","","","feedback","Tue Oct 21 2025 15:46:11 GMT-0400 (Eastern Daylight Time)","19499","0","5","","","","","","","","","",""
"","","","","","","","","","","","preload","43","490743","0.0-43.0","","","","","true","","","","","","","","","","","preload","","","0","6","false","[]","[]","[]","","","","","",""
"","","","","","","","","","","","canvas-keyboard-response","44","491047","0.0-44.0","null","null","","","","","","","","","","","","","","fixation","","","0","6","","","","","","","","","",""
"","","","","","","","","","","","canvas-keyboard-response","45","491350","0.0-45.0","null","null","","","","","","","","","","","","","","stimulus","","","0","6","","","","","","","","","",""
"","","","","","","","","","","","canvas-button-response","46","500920","0.0-46.0","9566","cat","","","","","","","","","","","","","","perceptual","","","0","6","","","","","82","elephant","1","","0",""
"","","","","","","","","","","","canvas-button-response","47","502500","0.0-47.0","1578","4","","","","","","","","","","","","","","confidence","","","0","6","","","","","","","","","","6"
"","","","","","","","","","","","html-keyboard-response","48","503503","0.0-48.0","null","null","","","","","","","","","","","","","","feedback","Tue Oct 21 2025 15:46:24 GMT-0400 (Eastern Daylight Time)","19499","0","6","","","","","","","","","",""
"","","","","","","","","","","","preload","49","503505","0.0-49.0","","","","","true","","","","","","","","","","","preload","","","0","7","false","[]","[]","[]","","","","","",""
"","","","","","","","","","","","canvas-keyboard-response","50","503809","0.0-50.0","null","null","","","","","","","","","","","","","","fixation","","","0","7","","","","","","","","","",""
"","","","","","","","","","","","canvas-keyboard-response","51","504112","0.0-51.0","null","null","","","","","","","","","","","","","","stimulus","","","0","7","","","","","","","","","",""
"","","","","","","","","","","","canvas-button-response","52","507058","0.0-52.0","2942","flower","","","","","","","","","","","","","","perceptual","","","0","7","","","","","52","flower","1","","1",""
"","","","","","","","","","","","canvas-button-response","53","508637","0.0-53.0","1577","2","","","","","","","","","","","","","","confidence","","","0","7","","","","","","","","","","7"
"","","","","","","","","","","","html-keyboard-response","54","509640","0.0-54.0","null","null","","","","","","","","","","","","","","feedback","Tue Oct 21 2025 15:46:30 GMT-0400 (Eastern Daylight Time)","19499","0","7","","","","","","","","","",""
"","","","","","","","","","","","preload","55","509641","0.0-55.0","","","","","true","","","","","","","","","","","preload","","","0","8","false","[]","[]","[]","","","","","",""
"","","","","","","","","","","","canvas-keyboard-response","56","509945","0.0-56.0","null","null","","","","","","","","","","","","","","fixation","","","0","8","","","","","","","","","",""
"","","","","","","","","","","","canvas-keyboard-response","57","510248","0.0-57.0","null","null","","","","","","","","","","","","","","stimulus","","","0","8","","","","","","","","","",""
"","","","","","","","","","","","canvas-button-response","58","511303","0.0-58.0","1052","car","","","","","","","","","","","","","","perceptual","","","0","8","","","","","12","car","1","","1",""
"","","","","","","","","","","","canvas-button-response","59","512118","0.0-59.0","813","10","","","","","","","","","","","","","","confidence","","","0","8","","","","","","","","","","8"
"","","","","","","","","","","","html-keyboard-response","60","513121","0.0-60.0","null","null","","","","","","","","","","","","","","feedback","Tue Oct 21 2025 15:46:33 GMT-0400 (Eastern Daylight Time)","19499","0","8","","","","","","","","","",""
"","","","","","","","","","","","preload","61","513122","0.0-61.0","","","","","true","","","","","","","","","","","preload","","","0","9","false","[]","[]","[]","","","","","",""
"","","","","","","","","","","","canvas-keyboard-response","62","513426","0.0-62.0","null","null","","","","","","","","","","","","","","fixation","","","0","9","","","","","","","","","",""
"","","","","","","","","","","","canvas-keyboard-response","63","513729","0.0-63.0","null","null","","","","","","","","","","","","","","stimulus","","","0","9","","","","","","","","","",""
"","","","","","","","","","","","canvas-button-response","64","514704","0.0-64.0","971","cat","","","","","","","","","","","","","","perceptual","","","0","9","","","","","72","cat","1","","1",""
"","","","","","","","","","","","canvas-button-response","65","515524","0.0-65.0","819","10","","","","","","","","","","","","","","confidence","","","0","9","","","","","","","","","","9"
"","","","","","","","","","","","html-keyboard-response","66","516528","0.0-66.0","null","null","","","","","","","","","","","","","","feedback","Tue Oct 21 2025 15:46:37 GMT-0400 (Eastern Daylight Time)","19499","0","9","","","","","","","","","",""
"","","","","","","","","","","","html-button-response","67","527717","0.0-67.0","11186","0","","","","","","","","","","","","","","start_practice","Tue Oct 21 2025 15:46:38 GMT-0400 (Eastern Daylight Time)","19499","0","9","","","","","","","","","",""
"","","","","","","","","","","","preload","68","527718","0.0-68.0","","","","","true","","","","","","","","","","","preload","","","1","0","false","[]","[]","[]","","","","","",""
"","","","","","","","","","","","canvas-keyboard-response","69","528021","0.0-69.0","null","null","","","","","","","","","","","","","","fixation","","","1","0","","","","","","","","","",""
"","","","","","","","","","","","canvas-keyboard-response","70","528325","0.0-70.0","null","null","","","","","","","","","","","","","","stimulus","","","1","0","","","","","","","","","",""
"","","","","","","","","","","","canvas-button-response","71","532455","0.0-71.0","4126","car","","","","","","","","","","","","","","perceptual","","","1","0","","","","","47","bridge","10","","0",""
"","","","","","","","","","","","canvas-button-response","72","535088","0.0-72.0","2631","1","","","","","","","","","","","","","","confidence","","","1","0","","","","","","","","","","0"
"","","","","","","","","","","","html-keyboard-response","73","536091","0.0-73.0","null","null","","","","","","","","","","","","","","feedback","Tue Oct 21 2025 15:46:56 GMT-0400 (Eastern Daylight Time)","19499","1","0","","","","","","","","","",""
"","","","","","","","","","","","preload","74","536093","0.0-74.0","","","","","true","","","","","","","","","","","preload","","","1","1","false","[]","[]","[]","","","","","",""
"","","","","","","","","","","","canvas-keyboard-response","75","536396","0.0-75.0","null","null","","","","","","","","","","","","","","fixation","","","1","1","","","","","","","","","",""
"","","","","","","","","","","","canvas-keyboard-response","76","536699","0.0-76.0","null","null","","","","","","","","","","","","","","stimulus","","","1","1","","","","","","","","","",""
"","","","","","","","","","","","canvas-button-response","77","538629","0.0-77.0","1927","knife","","","","","","","","","","","","","","perceptual","","","1","1","","","","","97","knife","10","","1",""
"","","","","","","","","","","","canvas-button-response","78","540838","0.0-78.0","2206","10","","","","","","","","","","","","","","confidence","","","1","1","","","","","","","","","","1"
"","","","","","","","","","","","html-keyboard-response","79","541842","0.0-79.0","null","null","","","","","","","","","","","","","","feedback","Tue Oct 21 2025 15:47:02 GMT-0400 (Eastern Daylight Time)","19499","1","1","","","","","","","","","",""
"","","","","","","","","","","","preload","80","541843","0.0-80.0","","","","","true","","","","","","","","","","","preload","","","1","2","false","[]","[]","[]","","","","","",""
"","","","","","","","","","","","canvas-keyboard-response","81","542147","0.0-81.0","null","null","","","","","","","","","","","","","","fixation","","","1","2","","","","","","","","","",""
"","","","","","","","","","","","canvas-keyboard-response","82","542450","0.0-82.0","null","null","","","","","","","","","","","","","","stimulus","","","1","2","","","","","","","","","",""
"","","","","","","","","","","","canvas-button-response","83","543742","0.0-83.0","1289","flower","","","","","","","","","","","","","","perceptual","","","1","2","","","","","57","flower","10","","1",""
"","","","","","","","","","","","canvas-button-response","84","546280","0.0-84.0","2534","8","","","","","","","","","","","","","","confidence","","","1","2","","","","","","","","","","2"
"","","","","","","","","","","","html-keyboard-response","85","547283","0.0-85.0","null","null","","","","","","","","","","","","","","feedback","Tue Oct 21 2025 15:47:07 GMT-0400 (Eastern Daylight Time)","19499","1","2","","","","","","","","","",""
"","","","","","","","","","","","preload","86","547285","0.0-86.0","","","","","true","","","","","","","","","","","preload","","","1","3","false","[]","[]","[]","","","","","",""
"","","","","","","","","","","","canvas-keyboard-response","87","547589","0.0-87.0","null","null","","","","","","","","","","","","","","fixation","","","1","3","","","","","","","","","",""
"","","","","","","","","","","","canvas-keyboard-response","88","547892","0.0-88.0","null","null","","","","","","","","","","","","","","stimulus","","","1","3","","","","","","","","","",""
"","","","","","","","","","","","canvas-button-response","89","551584","0.0-89.0","3689","elephant","","","","","","","","","","","","","","perceptual","","","1","3","","","","","17","car","10","","0",""
"","","","","","","","","","","","canvas-button-response","90","553059","0.0-90.0","1473","5","","","","","","","","","","","","","","confidence","","","1","3","","","","","","","","","","2"
"","","","","","","","","","","","html-keyboard-response","91","554062","0.0-91.0","null","null","","","","","","","","","","","","","","feedback","Tue Oct 21 2025 15:47:14 GMT-0400 (Eastern Daylight Time)","19499","1","3","","","","","","","","","",""
"","","","","","","","","","","","preload","92","554064","0.0-92.0","","","","","true","","","","","","","","","","","preload","","","1","4","false","[]","[]","[]","","","","","",""
"","","","","","","","","","","","canvas-keyboard-response","93","554368","0.0-93.0","null","null","","","","","","","","","","","","","","fixation","","","1","4","","","","","","","","","",""
"","","","","","","","","","","","canvas-keyboard-response","94","554672","0.0-94.0","null","null","","","","","","","","","","","","","","stimulus","","","1","4","","","","","","","","","",""
"","","","","","","","","","","","canvas-button-response","95","556068","0.0-95.0","1393","elephant","","","","","","","","","","","","","","perceptual","","","1","4","","","","","84","elephant","6","","1",""
"","","","","","","","","","","","canvas-button-response","96","556920","0.0-96.0","850","7","","","","","","","","","","","","","","confidence","","","1","4","","","","","","","","","","3"
"","","","","","","","","","","","html-keyboard-response","97","557923","0.0-97.0","null","null","","","","","","","","","","","","","","feedback","Tue Oct 21 2025 15:47:18 GMT-0400 (Eastern Daylight Time)","19499","1","4","","","","","","","","","",""
"","","","","","","","","","","","preload","98","557925","0.0-98.0","","","","","true","","","","","","","","","","","preload","","","1","5","false","[]","[]","[]","","","","","",""
"","","","","","","","","","","","canvas-keyboard-response","99","558228","0.0-99.0","null","null","","","","","","","","","","","","","","fixation","","","1","5","","","","","","","","","",""
"","","","","","","","","","","","canvas-keyboard-response","100","558532","0.0-100.0","null","null","","","","","","","","","","","","","","stimulus","","","1","5","","","","","","","","","",""
"","","","","","","","","","","","canvas-button-response","101","561439","0.0-101.0","2904","flower","","","","","","","","","","","","","","perceptual","","","1","5","","","","","7","house","10","","0",""
"","","","","","","","","","","","canvas-button-response","102","562713","0.0-102.0","1272","3","","","","","","","","","","","","","","confidence","","","1","5","","","","","","","","","","3"
"","","","","","","","","","","","html-keyboard-response","103","563715","0.0-103.0","null","null","","","","","","","","","","","","","","feedback","Tue Oct 21 2025 15:47:24 GMT-0400 (Eastern Daylight Time)","19499","1","5","","","","","","","","","",""
"","","","","","","","","","","","preload","104","563717","0.0-104.0","","","","","true","","","","","","","","","","","preload","","","1","6","false","[]","[]","[]","","","","","",""
"","","","","","","","","","","","canvas-keyboard-response","105","564019","0.0-105.0","null","null","","","","","","","","","","","","","","fixation","","","1","6","","","","","","","","","",""
"","","","","","","","","","","","canvas-keyboard-response","106","564322","0.0-106.0","null","null","","","","","","","","","","","","","","stimulus","","","1","6","","","","","","","","","",""
"","","","","","","","","","","","canvas-button-response","107","568929","0.0-107.0","4604","cat","","","","","","","","","","","","","","perceptual","","","1","6","","","","","87","elephant","10","","0",""
"","","","","","","","","","","","canvas-button-response","108","570900","0.0-108.0","1969","3","","","","","","","","","","","","","","confidence","","","1","6","","","","","","","","","","3"
"","","","","","","","","","","","html-keyboard-response","109","571904","0.0-109.0","null","null","","","","","","","","","","","","","","feedback","Tue Oct 21 2025 15:47:32 GMT-0400 (Eastern Daylight Time)","19499","1","6","","","","","","","","","",""
"","","","","","","","","","","","preload","110","571906","0.0-110.0","","","","","true","","","","","","","","","","","preload","","","1","7","false","[]","[]","[]","","","","","",""
"","","","","","","","","","","","canvas-keyboard-response","111","572210","0.0-111.0","null","null","","","","","","","","","","","","","","fixation","","","1","7","","","","","","","","","",""
"","","","","","","","","","","","canvas-keyboard-response","112","572514","0.0-112.0","null","null","","","","","","","","","","","","","","stimulus","","","1","7","","","","","","","","","",""
"","","","","","","","","","","","canvas-button-response","113","576104","0.0-113.0","3587","bed","","","","","","","","","","","","","","perceptual","","","1","7","","","","","37","bed","10","","1",""
"","","","","","","","","","","","canvas-button-response","114","577756","0.0-114.0","1651","1","","","","","","","","","","","","","","confidence","","","1","7","","","","","","","","","","4"
"","","","","","","","","","","","html-keyboard-response","115","578759","0.0-115.0","null","null","","","","","","","","","","","","","","feedback","Tue Oct 21 2025 15:47:39 GMT-0400 (Eastern Daylight Time)","19499","1","7","","","","","","","","","",""
"","","","","","","","","","","","preload","116","578760","0.0-116.0","","","","","true","","","","","","","","","","","preload","","","1","8","false","[]","[]","[]","","","","","",""
"","","","","","","","","","","","canvas-keyboard-response","117","579064","0.0-117.0","null","null","","","","","","","","","","","","","","fixation","","","1","8","","","","","","","","","",""
"","","","","","","","","","","","canvas-keyboard-response","118","579368","0.0-118.0","null","null","","","","","","","","","","","","","","stimulus","","","1","8","","","","","","","","","",""
"","","","","","","","","","","","canvas-button-response","119","582989","0.0-119.0","3617","car","","","","","","","","","","","","","","perceptual","","","1","8","","","","","14","car","6","","1",""
"","","","","","","","","","","","canvas-button-response","120","584417","0.0-120.0","1426","1","","","","","","","","","","","","","","confidence","","","1","8","","","","","","","","","","5"
"","","","","","","","","","","","html-keyboard-response","121","585420","0.0-121.0","null","null","","","","","","","","","","","","","","feedback","Tue Oct 21 2025 15:47:45 GMT-0400 (Eastern Daylight Time)","19499","1","8","","","","","","","","","",""
"","","","","","","","","","","","preload","122","585421","0.0-122.0","","","","","true","","","","","","","","","","","preload","","","1","9","false","[]","[]","[]","","","","","",""
"","","","","","","","","","","","canvas-keyboard-response","123","585725","0.0-123.0","null","null","","","","","","","","","","","","","","fixation","","","1","9","","","","","","","","","",""
"","","","","","","","","","","","canvas-keyboard-response","124","586028","0.0-124.0","null","null","","","","","","","","","","","","","","stimulus","","","1","9","","","","","","","","","",""
"","","","","","","","","","","","canvas-button-response","125","587174","0.0-125.0","1143","bed","","","","","","","","","","","","","","perceptual","","","1","9","","","","","34","bed","6","","1",""
"","","","","","","","","","","","canvas-button-response","126","588114","0.0-126.0","938","10","","","","","","","","","","","","","","confidence","","","1","9","","","","","","","","","","6"
"","","","","","","","","","","","html-keyboard-response","127","589117","0.0-127.0","null","null","","","","","","","","","","","","","","feedback","Tue Oct 21 2025 15:47:49 GMT-0400 (Eastern Daylight Time)","19499","1","9","","","","","","","","","",""
"","","","","","","","","","","","preload","128","589119","0.0-128.0","","","","","true","","","","","","","","","","","preload","","","1","10","false","[]","[]","[]","","","","","",""
"","","","","","","","","","","","canvas-keyboard-response","129","589422","0.0-129.0","null","null","","","","","","","","","","","","","","fixation","","","1","10","","","","","","","","","",""
"","","","","","","","","","","","canvas-keyboard-response","130","589726","0.0-130.0","null","null","","","","","","","","","","","","","","stimulus","","","1","10","","","","","","","","","",""
"","","","","","","","","","","","canvas-button-response","131","591580","0.0-131.0","1851","phone","","","","","","","","","","","","","","perceptual","","","1","10","","","","","44","bridge","6","","0",""
"","","","","","","","","","","","canvas-button-response","132","592780","0.0-132.0","1198","3","","","","","","","","","","","","","","confidence","","","1","10","","","","","","","","","","6"
"","","","","","","","","","","","html-keyboard-response","133","593783","0.0-133.0","null","null","","","","","","","","","","","","","","feedback","Tue Oct 21 2025 15:47:54 GMT-0400 (Eastern Daylight Time)","19499","1","10","","","","","","","","","",""
"","","","","","","","","","","","preload","134","593784","0.0-134.0","","","","","true","","","","","","","","","","","preload","","","1","11","false","[]","[]","[]","","","","","",""
"","","","","","","","","","","","canvas-keyboard-response","135","594088","0.0-135.0","null","null","","","","","","","","","","","","","","fixation","","","1","11","","","","","","","","","",""
"","","","","","","","","","","","canvas-keyboard-response","136","594392","0.0-136.0","null","null","","","","","","","","","","","","","","stimulus","","","1","11","","","","","","","","","",""
"","","","","","","","","","","","canvas-button-response","137","596146","0.0-137.0","1751","house","","","","","","","","","","","","","","perceptual","","","1","11","","","","","4","house","6","","1",""
"","","","","","","","","","","","canvas-button-response","138","597397","0.0-138.0","1248","9","","","","","","","","","","","","","","confidence","","","1","11","","","","","","","","","","7"
"","","","","","","","","","","","html-keyboard-response","139","598400","0.0-139.0","null","null","","","","","","","","","","","","","","feedback","Tue Oct 21 2025 15:47:58 GMT-0400 (Eastern Daylight Time)","19499","1","11","","","","","","","","","",""
"","","","","","","","","","","","preload","140","598401","0.0-140.0","","","","","true","","","","","","","","","","","preload","","","1","12","false","[]","[]","[]","","","","","",""
"","","","","","","","","","","","canvas-keyboard-response","141","598705","0.0-141.0","null","null","","","","","","","","","","","","","","fixation","","","1","12","","","","","","","","","",""
"","","","","","","","","","","","canvas-keyboard-response","142","599008","0.0-142.0","null","null","","","","","","","","","","","","","","stimulus","","","1","12","","","","","","","","","",""
"","","","","","","","","","","","canvas-button-response","143","600267","0.0-143.0","1256","cat","","","","","","","","","","","","","","perceptual","","","1","12","","","","","74","cat","6","","1",""
"","","","","","","","","","","","canvas-button-response","144","600938","0.0-144.0","670","10","","","","","","","","","","","","","","confidence","","","1","12","","","","","","","","","","8"
"","","","","","","","","","","","html-keyboard-response","145","601942","0.0-145.0","null","null","","","","","","","","","","","","","","feedback","Tue Oct 21 2025 15:48:02 GMT-0400 (Eastern Daylight Time)","19499","1","12","","","","","","","","","",""
"","","","","","","","","","","","preload","146","601943","0.0-146.0","","","","","true","","","","","","","","","","","preload","","","1","13","false","[]","[]","[]","","","","","",""
"","","","","","","","","","","","canvas-keyboard-response","147","602247","0.0-147.0","null","null","","","","","","","","","","","","","","fixation","","","1","13","","","","","","","","","",""
"","","","","","","","","","","","canvas-keyboard-response","148","602550","0.0-148.0","null","null","","","","","","","","","","","","","","stimulus","","","1","13","","","","","","","","","",""
"","","","","","","","","","","","canvas-button-response","149","603888","0.0-149.0","1335","cat","","","","","","","","","","","","","","perceptual","","","1","13","","","","","77","cat","10","","1",""
"","","","","","","","","","","","canvas-button-response","150","605408","0.0-150.0","1518","8","","","","","","","","","","","","","","confidence","","","1","13","","","","","","","","","","9"
"","","","","","","","","","","","html-keyboard-response","151","606410","0.0-151.0","null","null","","","","","","","","","","","","","","feedback","Tue Oct 21 2025 15:48:06 GMT-0400 (Eastern Daylight Time)","19499","1","13","","","","","","","","","",""
"","","","","","","","","","","","preload","152","606412","0.0-152.0","","","","","true","","","","","","","","","","","preload","","","1","14","false","[]","[]","[]","","","","","",""
"","","","","","","","","","","","canvas-keyboard-response","153","606715","0.0-153.0","null","null","","","","","","","","","","","","","","fixation","","","1","14","","","","","","","","","",""
"","","","","","","","","","","","canvas-keyboard-response","154","607019","0.0-154.0","null","null","","","","","","","","","","","","","","stimulus","","","1","14","","","","","","","","","",""
"","","","","","","","","","","","canvas-button-response","155","615942","0.0-155.0","8920","train","","","","","","","","","","","","","","perceptual","","","1","14","","","","","94","knife","6","","0",""
"","","","","","","","","","","","canvas-button-response","156","617611","0.0-156.0","1666","4","","","","","","","","","","","","","","confidence","","","1","14","","","","","","","","","","9"
"","","","","","","","","","","","html-keyboard-response","157","618613","0.0-157.0","null","null","","","","","","","","","","","","","","feedback","Tue Oct 21 2025 15:48:19 GMT-0400 (Eastern Daylight Time)","19499","1","14","","","","","","","","","",""
"","","","","","","","","","","","preload","158","618615","0.0-158.0","","","","","true","","","","","","","","","","","preload","","","1","15","false","[]","[]","[]","","","","","",""
"","","","","","","","","","","","canvas-keyboard-response","159","618918","0.0-159.0","null","null","","","","","","","","","","","","","","fixation","","","1","15","","","","","","","","","",""
"","","","","","","","","","","","canvas-keyboard-response","160","619221","0.0-160.0","null","null","","","","","","","","","","","","","","stimulus","","","1","15","","","","","","","","","",""
"","","","","","","","","","","","canvas-button-response","161","620344","0.0-161.0","1120","train","","","","","","","","","","","","","","perceptual","","","1","15","","","","","64","train","6","","1",""
"","","","","","","","","","","","canvas-button-response","162","622034","0.0-162.0","1688","5","","","","","","","","","","","","","","confidence","","","1","15","","","","","","","","","","10"
"","","","","","","","","","","","html-keyboard-response","163","623038","0.0-163.0","null","null","","","","","","","","","","","","","","feedback","Tue Oct 21 2025 15:48:23 GMT-0400 (Eastern Daylight Time)","19499","1","15","","","","","","","","","",""
"","","","","","","","","","","","preload","164","623040","0.0-164.0","","","","","true","","","","","","","","","","","preload","","","1","16","false","[]","[]","[]","","","","","",""
"","","","","","","","","","","","canvas-keyboard-response","165","623343","0.0-165.0","null","null","","","","","","","","","","","","","","fixation","","","1","16","","","","","","","","","",""
"","","","","","","","","","","","canvas-keyboard-response","166","623646","0.0-166.0","null","null","","","","","","","","","","","","","","stimulus","","","1","16","","","","","","","","","",""
"","","","","","","","","","","","canvas-button-response","167","625396","0.0-167.0","1747","phone","","","","","","","","","","","","","","perceptual","","","1","16","","","","","24","phone","6","","1",""
"","","","","","","","","","","","canvas-button-response","168","626233","0.0-168.0","836","8","","","","","","","","","","","","","","confidence","","","1","16","","","","","","","","","","11"
"","","","","","","","","","","","html-keyboard-response","169","627236","0.0-169.0","null","null","","","","","","","","","","","","","","feedback","Tue Oct 21 2025 15:48:27 GMT-0400 (Eastern Daylight Time)","19499","1","16","","","","","","","","","",""
"","","","","","","","","","","","preload","170","627238","0.0-170.0","","","","","true","","","","","","","","","","","preload","","","1","17","false","[]","[]","[]","","","","","",""
"","","","","","","","","","","","canvas-keyboard-response","171","627542","0.0-171.0","null","null","","","","","","","","","","","","","","fixation","","","1","17","","","","","","","","","",""
"","","","","","","","","","","","canvas-keyboard-response","172","627845","0.0-172.0","null","null","","","","","","","","","","","","","","stimulus","","","1","17","","","","","","","","","",""
"","","","","","","","","","","","canvas-button-response","173","631833","0.0-173.0","3985","cat","","","","","","","","","","","","","","perceptual","","","1","17","","","","","27","phone","10","","0",""
"","","","","","","","","","","","canvas-button-response","174","633388","0.0-174.0","1553","4","","","","","","","","","","","","","","confidence","","","1","17","","","","","","","","","","11"
"","","","","","","","","","","","html-keyboard-response","175","634391","0.0-175.0","null","null","","","","","","","","","","","","","","feedback","Tue Oct 21 2025 15:48:34 GMT-0400 (Eastern Daylight Time)","19499","1","17","","","","","","","","","",""
"","","","","","","","","","","","preload","176","634392","0.0-176.0","","","","","true","","","","","","","","","","","preload","","","1","18","false","[]","[]","[]","","","","","",""
"","","","","","","","","","","","canvas-keyboard-response","177","634695","0.0-177.0","null","null","","","","","","","","","","","","","","fixation","","","1","18","","","","","","","","","",""
"","","","","","","","","","","","canvas-keyboard-response","178","634999","0.0-178.0","null","null","","","","","","","","","","","","","","stimulus","","","1","18","","","","","","","","","",""
"","","","","","","","","","","","canvas-button-response","179","637946","0.0-179.0","2943","house","","","","","","","","","","","","","","perceptual","","","1","18","","","","","67","train","10","","0",""
"","","","","","","","","","","","canvas-button-response","180","638710","0.0-180.0","761","1","","","","","","","","","","","","","","confidence","","","1","18","","","","","","","","","","11"
"","","","","","","","","","","","html-keyboard-response","181","639712","0.0-181.0","null","null","","","","","","","","","","","","","","feedback","Tue Oct 21 2025 15:48:40 GMT-0400 (Eastern Daylight Time)","19499","1","18","","","","","","","","","",""
"","","","","","","","","","","","preload","182","639714","0.0-182.0","","","","","true","","","","","","","","","","","preload","","","1","19","false","[]","[]","[]","","","","","",""
"","","","","","","","","","","","canvas-keyboard-response","183","640017","0.0-183.0","null","null","","","","","","","","","","","","","","fixation","","","1","19","","","","","","","","","",""
"","","","","","","","","","","","canvas-keyboard-response","184","640320","0.0-184.0","null","null","","","","","","","","","","","","","","stimulus","","","1","19","","","","","","","","","",""
"","","","","","","","","","","","canvas-button-response","185","641270","0.0-185.0","947","flower","","","","","","","","","","","","","","perceptual","","","1","19","","","","","54","flower","6","","1",""
"","","","","","","","","","","","canvas-button-response","186","642287","0.0-186.0","1014","8","","","","","","","","","","","","","","confidence","","","1","19","","","","","","","","","","12"
"","","","","","","","","","","","html-keyboard-response","187","643290","0.0-187.0","null","null","","","","","","","","","","","","","","feedback","Tue Oct 21 2025 15:48:43 GMT-0400 (Eastern Daylight Time)","19499","1","19","","","","","","","","","",""
"","","","","","","","","","","","html-button-response","188","652254","0.0-188.0","8961","0","","","","","","","","","","","","","","start experiment","Tue Oct 21 2025 15:48:44 GMT-0400 (Eastern Daylight Time)","19499","1","19","","","","","","","","","",""
"","","","","","","","","","","","preload","189","652255","0.0-189.0","","","","","true","","","","","","","","","","","preload","","","2","0","false","[]","[]","[]","","","","","",""
"","","","","","","","","","","","canvas-keyboard-response","190","652557","0.0-190.0","null","null","","","","","","","","","","","","","","fixation","","","2","0","","","","","","","","","",""
"","","","","","","","","","","","canvas-keyboard-response","191","652860","0.0-191.0","null","null","","","","","","","","","","","","","","stimulus","","","2","0","","","","","","","","","",""
"","","","","","","","","","","","canvas-button-response","192","653921","0.0-192.0","1058","knife","","","","","","","","","","","","","","perceptual","","","2","0","","","","","387","knife","10","0","1",""
"","","","","","","","","","","","canvas-button-response","193","654717","0.0-193.0","794","10","","","","","","","","","","","","","","confidence","","","2","0","","","","","","","","","","1"
"","","","","","","","","","","","preload","194","654718","0.0-194.0","","","","","true","","","","","","","","","","","preload","","","2","1","false","[]","[]","[]","","","","","",""
"","","","","","","","","","","","canvas-keyboard-response","195","655020","0.0-195.0","null","null","","","","","","","","","","","","","","fixation","","","2","1","","","","","","","","","",""
"","","","","","","","","","","","canvas-keyboard-response","196","655322","0.0-196.0","null","null","","","","","","","","","","","","","","stimulus","","","2","1","","","","","","","","","",""
"","","","","","","","","","","","canvas-button-response","197","657610","0.0-197.0","2285","phone","","","","","","","","","","","","","","perceptual","","","2","1","","","","","99","phone","6","0","1",""
"","","","","","","","","","","","canvas-button-response","198","660172","0.0-198.0","2560","7","","","","","","","","","","","","","","confidence","","","2","1","","","","","","","","","","2"
"","","","","","","","","","","","preload","199","660173","0.0-199.0","","","","","true","","","","","","","","","","","preload","","","2","2","false","[]","[]","[]","","","","","",""
"","","","","","","","","","","","canvas-keyboard-response","200","660476","0.0-200.0","null","null","","","","","","","","","","","","","","fixation","","","2","2","","","","","","","","","",""
"","","","","","","","","","","","canvas-keyboard-response","201","660780","0.0-201.0","null","null","","","","","","","","","","","","","","stimulus","","","2","2","","","","","","","","","",""
"","","","","","","","","","","","canvas-button-response","202","661714","0.0-202.0","931","cat","","","","","","","","","","","","","","perceptual","","","2","2","","","","","296","cat","6","0","1",""
"","","","","","","","","","","","canvas-button-response","203","662733","0.0-203.0","1018","10","","","","","","","","","","","","","","confidence","","","2","2","","","","","","","","","","3"
"","","","","","","","","","","","preload","204","662734","0.0-204.0","","","","","true","","","","","","","","","","","preload","","","2","3","false","[]","[]","[]","","","","","",""
"","","","","","","","","","","","canvas-keyboard-response","205","663037","0.0-205.0","null","null","","","","","","","","","","","","","","fixation","","","2","3","","","","","","","","","",""
"","","","","","","","","","","","canvas-keyboard-response","206","663340","0.0-206.0","null","null","","","","","","","","","","","","","","stimulus","","","2","3","","","","","","","","","",""
"","","","","","","","","","","","canvas-button-response","207","666467","0.0-207.0","3124","bridge","","","","","","","","","","","","","","perceptual","","","2","3","","","","","164","bridge","6","0","1",""
"","","","","","","","","","","","canvas-button-response","208","667405","0.0-208.0","937","8","","","","","","","","","","","","","","confidence","","","2","3","","","","","","","","","","4"
"","","","","","","","","","","","preload","209","667406","0.0-209.0","","","","","true","","","","","","","","","","","preload","","","2","4","false","[]","[]","[]","","","","","",""
"","","","","","","","","","","","canvas-keyboard-response","210","667709","0.0-210.0","null","null","","","","","","","","","","","","","","fixation","","","2","4","","","","","","","","","",""
"","","","","","","","","","","","canvas-keyboard-response","211","668013","0.0-211.0","null","null","","","","","","","","","","","","","","stimulus","","","2","4","","","","","","","","","",""
"","","","","","","","","","","","canvas-button-response","212","674484","0.0-212.0","6468","house","","","","","","","","","","","","","","perceptual","","","2","4","","","","","142","bed","10","0","0",""
"","","","","","","","","","","","canvas-button-response","213","676367","0.0-213.0","1881","2","","","","","","","","","","","","","","confidence","","","2","4","","","","","","","","","","4"
"","","","","","","","","","","","preload","214","676368","0.0-214.0","","","","","true","","","","","","","","","","","preload","","","2","5","false","[]","[]","[]","","","","","",""
"","","","","","","","","","","","canvas-keyboard-response","215","676670","0.0-215.0","null","null","","","","","","","","","","","","","","fixation","","","2","5","","","","","","","","","",""
"","","","","","","","","","","","canvas-keyboard-response","216","676974","0.0-216.0","null","null","","","","","","","","","","","","","","stimulus","","","2","5","","","","","","","","","",""
"","","","","","","","","","","","canvas-button-response","217","678321","0.0-217.0","1344","phone","","","","","","","","","","","","","","perceptual","","","2","5","","","","","377","knife","6","0","0",""
"","","","","","","","","","","","canvas-button-response","218","679490","0.0-218.0","1165","8","","","","","","","","","","","","","","confidence","","","2","5","","","","","","","","","","4"
"","","","","","","","","","","","preload","219","679491","0.0-219.0","","","","","true","","","","","","","","","","","preload","","","2","6","false","[]","[]","[]","","","","","",""
"","","","","","","","","","","","canvas-keyboard-response","220","679793","0.0-220.0","null","null","","","","","","","","","","","","","","fixation","","","2","6","","","","","","","","","",""
"","","","","","","","","","","","canvas-keyboard-response","221","680097","0.0-221.0","null","null","","","","","","","","","","","","","","stimulus","","","2","6","","","","","","","","","",""
"","","","","","","","","","","","canvas-button-response","222","681801","0.0-222.0","1701","bridge","","","","","","","","","","","","","","perceptual","","","2","6","","","","","178","bridge","6","0","1",""
"","","","","","","","","","","","canvas-button-response","223","683684","0.0-223.0","1881","6","","","","","","","","","","","","","","confidence","","","2","6","","","","","","","","","","5"
"","","","","","","","","","","","preload","224","683684","0.0-224.0","","","","","true","","","","","","","","","","","preload","","","2","7","false","[]","[]","[]","","","","","",""
"","","","","","","","","","","","canvas-keyboard-response","225","683988","0.0-225.0","null","null","","","","","","","","","","","","","","fixation","","","2","7","","","","","","","","","",""
"","","","","","","","","","","","canvas-keyboard-response","226","684291","0.0-226.0","null","null","","","","","","","","","","","","","","stimulus","","","2","7","","","","","","","","","",""
"","","","","","","","","","","","canvas-button-response","227","688619","0.0-227.0","4325","house","","","","","","","","","","","","","","perceptual","","","2","7","","","","","33","house","10","0","1",""
"","","","","","","","","","","","canvas-button-response","228","690788","0.0-228.0","2167","2","","","","","","","","","","","","","","confidence","","","2","7","","","","","","","","","","6"
"","","","","","","","","","","","preload","229","690789","0.0-229.0","","","","","true","","","","","","","","","","","preload","","","2","8","false","[]","[]","[]","","","","","",""
"","","","","","","","","","","","canvas-keyboard-response","230","691092","0.0-230.0","null","null","","","","","","","","","","","","","","fixation","","","2","8","","","","","","","","","",""
"","","","","","","","","","","","canvas-keyboard-response","231","691396","0.0-231.0","null","null","","","","","","","","","","","","","","stimulus","","","2","8","","","","","","","","","",""
"","","","","","","","","","","","canvas-button-response","232","692584","0.0-232.0","1185","elephant","","","","","","","","","","","","","","perceptual","","","2","8","","","","","341","elephant","10","0","1",""
"","","","","","","","","","","","canvas-button-response","233","693750","0.0-233.0","1165","10","","","","","","","","","","","","","","confidence","","","2","8","","","","","","","","","","7"
"","","","","","","","","","","","preload","234","693751","0.0-234.0","","","","","true","","","","","","","","","","","preload","","","2","9","false","[]","[]","[]","","","","","",""
"","","","","","","","","","","","canvas-keyboard-response","235","694054","0.0-235.0","null","null","","","","","","","","","","","","","","fixation","","","2","9","","","","","","","","","",""
"","","","","","","","","","","","canvas-keyboard-response","236","694358","0.0-236.0","null","null","","","","","","","","","","","","","","stimulus","","","2","9","","","","","","","","","",""
"","","","","","","","","","","","canvas-button-response","237","695609","0.0-237.0","1248","train","","","","","","","","","","","","","","perceptual","","","2","9","","","","","251","train","6","0","1",""
"","","","","","","","","","","","canvas-button-response","238","698291","0.0-238.0","2680","8","","","","","","","","","","","","","","confidence","","","2","9","","","","","","","","","","8"
"","","","","","","","","","","","preload","239","698292","0.0-239.0","","","","","true","","","","","","","","","","","preload","","","2","10","false","[]","[]","[]","","","","","",""
"","","","","","","","","","","","canvas-keyboard-response","240","698595","0.0-240.0","null","null","","","","","","","","","","","","","","fixation","","","2","10","","","","","","","","","",""
"","","","","","","","","","","","canvas-keyboard-response","241","698898","0.0-241.0","null","null","","","","","","","","","","","","","","stimulus","","","2","10","","","","","","","","","",""
"","","","","","","","","","","","canvas-button-response","242","700380","0.0-242.0","1479","knife","","","","","","","","","","","","","","perceptual","","","2","10","","","","","370","knife","6","0","1",""
"","","","","","","","","","","","canvas-button-response","243","701346","0.0-243.0","964","10","","","","","","","","","","","","","","confidence","","","2","10","","","","","","","","","","9"
"","","","","","","","","","","","preload","244","701346","0.0-244.0","","","","","true","","","","","","","","","","","preload","","","2","11","false","[]","[]","[]","","","","","",""
"","","","","","","","","","","","canvas-keyboard-response","245","701650","0.0-245.0","null","null","","","","","","","","","","","","","","fixation","","","2","11","","","","","","","","","",""
"","","","","","","","","","","","canvas-keyboard-response","246","701953","0.0-246.0","null","null","","","","","","","","","","","","","","stimulus","","","2","11","","","","","","","","","",""
"","","","","","","","","","","","canvas-button-response","247","703359","0.0-247.0","1403","train","","","","","","","","","","","","","","perceptual","","","2","11","","","","","240","train","6","0","1",""
"","","","","","","","","","","","canvas-button-response","248","704492","0.0-248.0","1131","7","","","","","","","","","","","","","","confidence","","","2","11","","","","","","","","","","10"
"","","","","","","","","","","","preload","249","704493","0.0-249.0","","","","","true","","","","","","","","","","","preload","","","2","12","false","[]","[]","[]","","","","","",""
"","","","","","","","","","","","canvas-keyboard-response","250","704796","0.0-250.0","null","null","","","","","","","","","","","","","","fixation","","","2","12","","","","","","","","","",""
"","","","","","","","","","","","canvas-keyboard-response","251","705100","0.0-251.0","null","null","","","","","","","","","","","","","","stimulus","","","2","12","","","","","","","","","",""
"","","","","","","","","","","","canvas-button-response","252","706350","0.0-252.0","1247","cat","","","","","","","","","","","","","","perceptual","","","2","12","","","","","282","cat","6","0","1",""
"","","","","","","","","","","","canvas-button-response","253","707484","0.0-253.0","1132","6","","","","","","","","","","","","","","confidence","","","2","12","","","","","","","","","","11"
"","","","","","","","","","","","preload","254","707485","0.0-254.0","","","","","true","","","","","","","","","","","preload","","","2","13","false","[]","[]","[]","","","","","",""
"","","","","","","","","","","","canvas-keyboard-response","255","707787","0.0-255.0","null","null","","","","","","","","","","","","","","fixation","","","2","13","","","","","","","","","",""
"","","","","","","","","","","","canvas-keyboard-response","256","708091","0.0-256.0","null","null","","","","","","","","","","","","","","stimulus","","","2","13","","","","","","","","","",""
"","","","","","","","","","","","canvas-button-response","257","710667","0.0-257.0","2573","car","","","","","","","","","","","","","","perceptual","","","2","13","","","","","104","phone","10","0","0",""
"","","","","","","","","","","","canvas-button-response","258","711910","0.0-258.0","1241","1","","","","","","","","","","","","","","confidence","","","2","13","","","","","","","","","","11"
"","","","","","","","","","","","preload","259","711911","0.0-259.0","","","","","true","","","","","","","","","","","preload","","","2","14","false","[]","[]","[]","","","","","",""
"","","","","","","","","","","","canvas-keyboard-response","260","712214","0.0-260.0","null","null","","","","","","","","","","","","","","fixation","","","2","14","","","","","","","","","",""
"","","","","","","","","","","","canvas-keyboard-response","261","712518","0.0-261.0","null","null","","","","","","","","","","","","","","stimulus","","","2","14","","","","","","","","","",""
"","","","","","","","","","","","canvas-button-response","262","713929","0.0-262.0","1408","car","","","","","","","","","","","","","","perceptual","","","2","14","","","","","53","car","6","0","1",""
"","","","","","","","","","","","canvas-button-response","263","715893","0.0-263.0","1962","5","","","","","","","","","","","","","","confidence","","","2","14","","","","","","","","","","12"
"","","","","","","","","","","","preload","264","715894","0.0-264.0","","","","","true","","","","","","","","","","","preload","","","2","15","false","[]","[]","[]","","","","","",""
"","","","","","","","","","","","canvas-keyboard-response","265","716196","0.0-265.0","null","null","","","","","","","","","","","","","","fixation","","","2","15","","","","","","","","","",""
"","","","","","","","","","","","canvas-keyboard-response","266","716500","0.0-266.0","null","null","","","","","","","","","","","","","","stimulus","","","2","15","","","","","","","","","",""
"","","","","","","","","","","","canvas-button-response","267","717739","0.0-267.0","1236","knife","","","","","","","","","","","","","","perceptual","","","2","15","","","","","379","knife","6","0","1",""
"","","","","","","","","","","","canvas-button-response","268","719378","0.0-268.0","1637","9","","","","","","","","","","","","","","confidence","","","2","15","","","","","","","","","","13"
"","","","","","","","","","","","preload","269","719379","0.0-269.0","","","","","true","","","","","","","","","","","preload","","","2","16","false","[]","[]","[]","","","","","",""
"","","","","","","","","","","","canvas-keyboard-response","270","719680","0.0-270.0","null","null","","","","","","","","","","","","","","fixation","","","2","16","","","","","","","","","",""
"","","","","","","","","","","","canvas-keyboard-response","271","719984","0.0-271.0","null","null","","","","","","","","","","","","","","stimulus","","","2","16","","","","","","","","","",""
"","","","","","","","","","","","canvas-button-response","272","727730","0.0-272.0","7743","flower","","","","","","","","","","","","","","perceptual","","","2","16","","","","","311","cat","10","0","0",""
"","","","","","","","","","","","canvas-button-response","273","728943","0.0-273.0","1212","0","","","","","","","","","","","","","","confidence","","","2","16","","","","","","","","","","13"
"","","","","","","","","","","","preload","274","728944","0.0-274.0","","","","","true","","","","","","","","","","","preload","","","2","17","false","[]","[]","[]","","","","","",""
"","","","","","","","","","","","canvas-keyboard-response","275","729245","0.0-275.0","null","null","","","","","","","","","","","","","","fixation","","","2","17","","","","","","","","","",""
"","","","","","","","","","","","canvas-keyboard-response","276","729547","0.0-276.0","null","null","","","","","","","","","","","","","","stimulus","","","2","17","","","","","","","","","",""
"","","","","","","","","","","","canvas-button-response","277","730926","0.0-277.0","1375","phone","","","","","","","","","","","","","","perceptual","","","2","17","","","","","96","phone","6","0","1",""
"","","","","","","","","","","","canvas-button-response","278","732542","0.0-278.0","1614","6","","","","","","","","","","","","","","confidence","","","2","17","","","","","","","","","","14"
"","","","","","","","","","","","preload","279","732543","0.0-279.0","","","","","true","","","","","","","","","","","preload","","","2","18","false","[]","[]","[]","","","","","",""
"","","","","","","","","","","","canvas-keyboard-response","280","732846","0.0-280.0","null","null","","","","","","","","","","","","","","fixation","","","2","18","","","","","","","","","",""
"","","","","","","","","","","","canvas-keyboard-response","281","733149","0.0-281.0","null","null","","","","","","","","","","","","","","stimulus","","","2","18","","","","","","","","","",""
"","","","","","","","","","","","canvas-button-response","282","739900","0.0-282.0","6748","car","","","","","","","","","","","","","","perceptual","","","2","18","","","","","357","elephant","10","0","0",""
"","","","","","","","","","","","canvas-button-response","283","740771","0.0-283.0","869","0","","","","","","","","","","","","","","confidence","","","2","18","","","","","","","","","","14"
"","","","","","","","","","","","preload","284","740772","0.0-284.0","","","","","true","","","","","","","","","","","preload","","","2","19","false","[]","[]","[]","","","","","",""
"","","","","","","","","","","","canvas-keyboard-response","285","741075","0.0-285.0","null","null","","","","","","","","","","","","","","fixation","","","2","19","","","","","","","","","",""
"","","","","","","","","","","","canvas-keyboard-response","286","741379","0.0-286.0","null","null","","","","","","","","","","","","","","stimulus","","","2","19","","","","","","","","","",""
"","","","","","","","","","","","canvas-button-response","287","748334","0.0-287.0","6952","bed","","","","","","","","","","","","","","perceptual","","","2","19","","","","","314","cat","10","0","0",""
"","","","","","","","","","","","canvas-button-response","288","749644","0.0-288.0","1307","1","","","","","","","","","","","","","","confidence","","","2","19","","","","","","","","","","14"
"","","","","","","","","","","","preload","289","749645","0.0-289.0","","","","","true","","","","","","","","","","","preload","","","2","20","false","[]","[]","[]","","","","","",""
"","","","","","","","","","","","canvas-keyboard-response","290","749947","0.0-290.0","null","null","","","","","","","","","","","","","","fixation","","","2","20","","","","","","","","","",""
"","","","","","","","","","","","canvas-keyboard-response","291","750251","0.0-291.0","null","null","","","","","","","","","","","","","","stimulus","","","2","20","","","","","","","","","",""
"","","","","","","","","","","","canvas-button-response","292","755989","0.0-292.0","5735","house","","","","","","","","","","","","","","perceptual","","","2","20","","","","","270","train","10","0","0",""
"","","","","","","","","","","","canvas-button-response","293","756984","0.0-293.0","993","3","","","","","","","","","","","","","","confidence","","","2","20","","","","","","","","","","14"
"","","","","","","","","","","","preload","294","756985","0.0-294.0","","","","","true","","","","","","","","","","","preload","","","2","21","false","[]","[]","[]","","","","","",""
"","","","","","","","","","","","canvas-keyboard-response","295","757288","0.0-295.0","null","null","","","","","","","","","","","","","","fixation","","","2","21","","","","","","","","","",""
"","","","","","","","","","","","canvas-keyboard-response","296","757590","0.0-296.0","null","null","","","","","","","","","","","","","","stimulus","","","2","21","","","","","","","","","",""
"","","","","","","","","","","","canvas-button-response","297","763339","0.0-297.0","5746","house","","","","","","","","","","","","","","perceptual","","","2","21","","","","","176","bridge","6","0","0",""
"","","","","","","","","","","","canvas-button-response","298","764388","0.0-298.0","1047","1","","","","","","","","","","","","","","confidence","","","2","21","","","","","","","","","","14"
"","","","","","","","","","","","preload","299","764388","0.0-299.0","","","","","true","","","","","","","","","","","preload","","","2","22","false","[]","[]","[]","","","","","",""
"","","","","","","","","","","","canvas-keyboard-response","300","764691","0.0-300.0","null","null","","","","","","","","","","","","","","fixation","","","2","22","","","","","","","","","",""
"","","","","","","","","","","","canvas-keyboard-response","301","764994","0.0-301.0","null","null","","","","","","","","","","","","","","stimulus","","","2","22","","","","","","","","","",""
"","","","","","","","","","","","canvas-button-response","302","766925","0.0-302.0","1928","phone","","","","","","","","","","","","","","perceptual","","","2","22","","","","","151","bed","10","0","0",""
"","","","","","","","","","","","canvas-button-response","303","768458","0.0-303.0","1531","4","","","","","","","","","","","","","","confidence","","","2","22","","","","","","","","","","14"
"","","","","","","","","","","","preload","304","768459","0.0-304.0","","","","","true","","","","","","","","","","","preload","","","2","23","false","[]","[]","[]","","","","","",""
"","","","","","","","","","","","canvas-keyboard-response","305","768762","0.0-305.0","null","null","","","","","","","","","","","","","","fixation","","","2","23","","","","","","","","","",""
"","","","","","","","","","","","canvas-keyboard-response","306","769066","0.0-306.0","null","null","","","","","","","","","","","","","","stimulus","","","2","23","","","","","","","","","",""
"","","","","","","","","","","","canvas-button-response","307","770201","0.0-307.0","1132","knife","","","","","","","","","","","","","","perceptual","","","2","23","","","","","385","knife","10","0","1",""
"","","","","","","","","","","","canvas-button-response","308","770968","0.0-308.0","765","9","","","","","","","","","","","","","","confidence","","","2","23","","","","","","","","","","15"
"","","","","","","","","","","","preload","309","770968","0.0-309.0","","","","","true","","","","","","","","","","","preload","","","2","24","false","[]","[]","[]","","","","","",""
"","","","","","","","","","","","canvas-keyboard-response","310","771270","0.0-310.0","null","null","","","","","","","","","","","","","","fixation","","","2","24","","","","","","","","","",""
"","","","","","","","","","","","canvas-keyboard-response","311","771573","0.0-311.0","null","null","","","","","","","","","","","","","","stimulus","","","2","24","","","","","","","","","",""
"","","","","","","","","","","","canvas-button-response","312","776687","0.0-312.0","5111","car","","","","","","","","","","","","","","perceptual","","","2","24","","","","","258","train","6","0","0",""
"","","","","","","","","","","","canvas-button-response","313","778755","0.0-313.0","2067","1","","","","","","","","","","","","","","confidence","","","2","24","","","","","","","","","","15"
"","","","","","","","","","","","preload","314","778756","0.0-314.0","","","","","true","","","","","","","","","","","preload","","","2","25","false","[]","[]","[]","","","","","",""
"","","","","","","","","","","","canvas-keyboard-response","315","779059","0.0-315.0","null","null","","","","","","","","","","","","","","fixation","","","2","25","","","","","","","","","",""
"","","","","","","","","","","","canvas-keyboard-response","316","779362","0.0-316.0","null","null","","","","","","","","","","","","","","stimulus","","","2","25","","","","","","","","","",""
"","","","","","","","","","","","canvas-button-response","317","784125","0.0-317.0","4760","bed","","","","","","","","","","","","","","perceptual","","","2","25","","","","","149","bed","10","0","1",""
"","","","","","","","","","","","canvas-button-response","318","785293","0.0-318.0","1166","1","","","","","","","","","","","","","","confidence","","","2","25","","","","","","","","","","16"
"","","","","","","","","","","","preload","319","785294","0.0-319.0","","","","","true","","","","","","","","","","","preload","","","2","26","false","[]","[]","[]","","","","","",""
"","","","","","","","","","","","canvas-keyboard-response","320","785597","0.0-320.0","null","null","","","","","","","","","","","","","","fixation","","","2","26","","","","","","","","","",""
"","","","","","","","","","","","canvas-keyboard-response","321","785901","0.0-321.0","null","null","","","","","","","","","","","","","","stimulus","","","2","26","","","","","","","","","",""
"","","","","","","","","","","","canvas-button-response","322","788758","0.0-322.0","2855","flower","","","","","","","","","","","","","","perceptual","","","2","26","","","","","190","bridge","10","0","0",""
"","","","","","","","","","","","canvas-button-response","323","790072","0.0-323.0","1312","1","","","","","","","","","","","","","","confidence","","","2","26","","","","","","","","","","16"
"","","","","","","","","","","","preload","324","790073","0.0-324.0","","","","","true","","","","","","","","","","","preload","","","2","27","false","[]","[]","[]","","","","","",""
"","","","","","","","","","","","canvas-keyboard-response","325","790375","0.0-325.0","null","null","","","","","","","","","","","","","","fixation","","","2","27","","","","","","","","","",""
"","","","","","","","","","","","canvas-keyboard-response","326","790683","0.0-326.0","null","null","","","","","","","","","","","","","","stimulus","","","2","27","","","","","","","","","",""
"","","","","","","","","","","","canvas-button-response","327","791677","0.0-327.0","991","cat","","","","","","","","","","","","","","perceptual","","","2","27","","","","","297","cat","6","0","1",""
"","","","","","","","","","","","canvas-button-response","328","792379","0.0-328.0","700","10","","","","","","","","","","","","","","confidence","","","2","27","","","","","","","","","","17"
"","","","","","","","","","","","preload","329","792380","0.0-329.0","","","","","true","","","","","","","","","","","preload","","","2","28","false","[]","[]","[]","","","","","",""
"","","","","","","","","","","","canvas-keyboard-response","330","792682","0.0-330.0","null","null","","","","","","","","","","","","","","fixation","","","2","28","","","","","","","","","",""
"","","","","","","","","","","","canvas-keyboard-response","331","792984","0.0-331.0","null","null","","","","","","","","","","","","","","stimulus","","","2","28","","","","","","","","","",""
"","","","","","","","","","","","canvas-button-response","332","798621","0.0-332.0","5634","train","","","","","","","","","","","","","","perceptual","","","2","28","","","","","27","house","10","0","0",""
"","","","","","","","","","","","canvas-button-response","333","800083","0.0-333.0","1460","1","","","","","","","","","","","","","","confidence","","","2","28","","","","","","","","","","17"
"","","","","","","","","","","","preload","334","800084","0.0-334.0","","","","","true","","","","","","","","","","","preload","","","2","29","false","[]","[]","[]","","","","","",""
"","","","","","","","","","","","canvas-keyboard-response","335","800387","0.0-335.0","null","null","","","","","","","","","","","","","","fixation","","","2","29","","","","","","","","","",""
"","","","","","","","","","","","canvas-keyboard-response","336","800690","0.0-336.0","null","null","","","","","","","","","","","","","","stimulus","","","2","29","","","","","","","","","",""
"","","","","","","","","","","","canvas-button-response","337","803822","0.0-337.0","3130","flower","","","","","","","","","","","","","","perceptual","","","2","29","","","","","153","bed","10","0","0",""
"","","","","","","","","","","","canvas-button-response","338","804695","0.0-338.0","871","0","","","","","","","","","","","","","","confidence","","","2","29","","","","","","","","","","17"
"","","","","","","","","","","","preload","339","804696","0.0-339.0","","","","","true","","","","","","","","","","","preload","","","2","30","false","[]","[]","[]","","","","","",""
"","","","","","","","","","","","canvas-keyboard-response","340","804999","0.0-340.0","null","null","","","","","","","","","","","","","","fixation","","","2","30","","","","","","","","","",""
"","","","","","","","","","","","canvas-keyboard-response","341","805303","0.0-341.0","null","null","","","","","","","","","","","","","","stimulus","","","2","30","","","","","","","","","",""
"","","","","","","","","","","","canvas-button-response","342","807812","0.0-342.0","2506","house","","","","","","","","","","","","","","perceptual","","","2","30","","","","","38","house","10","0","1",""
"","","","","","","","","","","","canvas-button-response","343","809846","0.0-343.0","2032","1","","","","","","","","","","","","","","confidence","","","2","30","","","","","","","","","","18"
"","","","","","","","","","","","preload","344","809847","0.0-344.0","","","","","true","","","","","","","","","","","preload","","","2","31","false","[]","[]","[]","","","","","",""
"","","","","","","","","","","","canvas-keyboard-response","345","810149","0.0-345.0","null","null","","","","","","","","","","","","","","fixation","","","2","31","","","","","","","","","",""
"","","","","","","","","","","","canvas-keyboard-response","346","810452","0.0-346.0","null","null","","","","","","","","","","","","","","stimulus","","","2","31","","","","","","","","","",""
"","","","","","","","","","","","canvas-button-response","347","811531","0.0-347.0","1076","knife","","","","","","","","","","","","","","perceptual","","","2","31","","","","","396","knife","10","0","1",""
"","","","","","","","","","","","canvas-button-response","348","812285","0.0-348.0","753","10","","","","","","","","","","","","","","confidence","","","2","31","","","","","","","","","","19"
"","","","","","","","","","","","preload","349","812286","0.0-349.0","","","","","true","","","","","","","","","","","preload","","","2","32","false","[]","[]","[]","","","","","",""
"","","","","","","","","","","","canvas-keyboard-response","350","812589","0.0-350.0","null","null","","","","","","","","","","","","","","fixation","","","2","32","","","","","","","","","",""
"","","","","","","","","","","","canvas-keyboard-response","351","812890","0.0-351.0","null","null","","","","","","","","","","","","","","stimulus","","","2","32","","","","","","","","","",""
"","","","","","","","","","","","canvas-button-response","352","813992","0.0-352.0","1099","flower","","","","","","","","","","","","","","perceptual","","","2","32","","","","","224","flower","10","0","1",""
"","","","","","","","","","","","canvas-button-response","353","815663","0.0-353.0","1669","7","","","","","","","","","","","","","","confidence","","","2","32","","","","","","","","","","20"
"","","","","","","","","","","","preload","354","815664","0.0-354.0","","","","","true","","","","","","","","","","","preload","","","2","33","false","[]","[]","[]","","","","","",""
"","","","","","","","","","","","canvas-keyboard-response","355","815967","0.0-355.0","null","null","","","","","","","","","","","","","","fixation","","","2","33","","","","","","","","","",""
"","","","","","","","","","","","canvas-keyboard-response","356","816270","0.0-356.0","null","null","","","","","","","","","","","","","","stimulus","","","2","33","","","","","","","","","",""
"","","","","","","","","","","","canvas-button-response","357","817305","0.0-357.0","1032","train","","","","","","","","","","","","","","perceptual","","","2","33","","","","","242","train","6","0","1",""
"","","","","","","","","","","","canvas-button-response","358","818042","0.0-358.0","735","10","","","","","","","","","","","","","","confidence","","","2","33","","","","","","","","","","21"
"","","","","","","","","","","","preload","359","818043","0.0-359.0","","","","","true","","","","","","","","","","","preload","","","2","34","false","[]","[]","[]","","","","","",""
"","","","","","","","","","","","canvas-keyboard-response","360","818345","0.0-360.0","null","null","","","","","","","","","","","","","","fixation","","","2","34","","","","","","","","","",""
"","","","","","","","","","","","canvas-keyboard-response","361","818646","0.0-361.0","null","null","","","","","","","","","","","","","","stimulus","","","2","34","","","","","","","","","",""
"","","","","","","","","","","","canvas-button-response","362","820301","0.0-362.0","1651","elephant","","","","","","","","","","","","","","perceptual","","","2","34","","","","","325","elephant","6","0","1",""
"","","","","","","","","","","","canvas-button-response","363","821222","0.0-363.0","920","8","","","","","","","","","","","","","","confidence","","","2","34","","","","","","","","","","22"
"","","","","","","","","","","","preload","364","821223","0.0-364.0","","","","","true","","","","","","","","","","","preload","","","2","35","false","[]","[]","[]","","","","","",""
"","","","","","","","","","","","canvas-keyboard-response","365","821526","0.0-365.0","null","null","","","","","","","","","","","","","","fixation","","","2","35","","","","","","","","","",""
"","","","","","","","","","","","canvas-keyboard-response","366","821829","0.0-366.0","null","null","","","","","","","","","","","","","","stimulus","","","2","35","","","","","","","","","",""
"","","","","","","","","","","","canvas-button-response","367","826385","0.0-367.0","4553","bridge","","","","","","","","","","","","","","perceptual","","","2","35","","","","","340","elephant","10","0","0",""
"","","","","","","","","","","","canvas-button-response","368","829459","0.0-368.0","3072","4","","","","","","","","","","","","","","confidence","","","2","35","","","","","","","","","","22"
"","","","","","","","","","","","preload","369","829460","0.0-369.0","","","","","true","","","","","","","","","","","preload","","","2","36","false","[]","[]","[]","","","","","",""
"","","","","","","","","","","","canvas-keyboard-response","370","829764","0.0-370.0","null","null","","","","","","","","","","","","","","fixation","","","2","36","","","","","","","","","",""
"","","","","","","","","","","","canvas-keyboard-response","371","830068","0.0-371.0","null","null","","","","","","","","","","","","","","stimulus","","","2","36","","","","","","","","","",""
"","","","","","","","","","","","canvas-button-response","372","831118","0.0-372.0","1047","elephant","","","","","","","","","","","","","","perceptual","","","2","36","","","","","335","elephant","6","0","1",""
"","","","","","","","","","","","canvas-button-response","373","832497","0.0-373.0","1377","8","","","","","","","","","","","","","","confidence","","","2","36","","","","","","","","","","23"
"","","","","","","","","","","","preload","374","832498","0.0-374.0","","","","","true","","","","","","","","","","","preload","","","2","37","false","[]","[]","[]","","","","","",""
"","","","","","","","","","","","canvas-keyboard-response","375","832800","0.0-375.0","null","null","","","","","","","","","","","","","","fixation","","","2","37","","","","","","","","","",""
"","","","","","","","","","","","canvas-keyboard-response","376","833104","0.0-376.0","null","null","","","","","","","","","","","","","","stimulus","","","2","37","","","","","","","","","",""
"","","","","","","","","","","","canvas-button-response","377","834411","0.0-377.0","1304","car","","","","","","","","","","","","","","perceptual","","","2","37","","","","","61","car","10","0","1",""
"","","","","","","","","","","","canvas-button-response","378","835279","0.0-378.0","867","9","","","","","","","","","","","","","","confidence","","","2","37","","","","","","","","","","24"
"","","","","","","","","","","","preload","379","835280","0.0-379.0","","","","","true","","","","","","","","","","","preload","","","2","38","false","[]","[]","[]","","","","","",""
"","","","","","","","","","","","canvas-keyboard-response","380","835583","0.0-380.0","null","null","","","","","","","","","","","","","","fixation","","","2","38","","","","","","","","","",""
"","","","","","","","","","","","canvas-keyboard-response","381","835887","0.0-381.0","null","null","","","","","","","","","","","","","","stimulus","","","2","38","","","","","","","","","",""
"","","","","","","","","","","","canvas-button-response","382","839309","0.0-382.0","3419","knife","","","","","","","","","","","","","","perceptual","","","2","38","","","","","198","bridge","10","0","0",""
"","","","","","","","","","","","canvas-button-response","383","840288","0.0-383.0","978","6","","","","","","","","","","","","","","confidence","","","2","38","","","","","","","","","","24"
"","","","","","","","","","","","preload","384","840289","0.0-384.0","","","","","true","","","","","","","","","","","preload","","","2","39","false","[]","[]","[]","","","","","",""
"","","","","","","","","","","","canvas-keyboard-response","385","840592","0.0-385.0","null","null","","","","","","","","","","","","","","fixation","","","2","39","","","","","","","","","",""
"","","","","","","","","","","","canvas-keyboard-response","386","840896","0.0-386.0","null","null","","","","","","","","","","","","","","stimulus","","","2","39","","","","","","","","","",""
"","","","","","","","","","","","canvas-button-response","387","842725","0.0-387.0","1827","train","","","","","","","","","","","","","","perceptual","","","2","39","","","","","245","train","6","0","1",""
"","","","","","","","","","","","canvas-button-response","388","843793","0.0-388.0","1065","9","","","","","","","","","","","","","","confidence","","","2","39","","","","","","","","","","25"
"","","","","","","","","","","","preload","389","843793","0.0-389.0","","","","","true","","","","","","","","","","","preload","","","2","40","false","[]","[]","[]","","","","","",""
"","","","","","","","","","","","canvas-keyboard-response","390","844096","0.0-390.0","null","null","","","","","","","","","","","","","","fixation","","","2","40","","","","","","","","","",""
"","","","","","","","","","","","canvas-keyboard-response","391","844400","0.0-391.0","null","null","","","","","","","","","","","","","","stimulus","","","2","40","","","","","","","","","",""
"","","","","","","","","","","","canvas-button-response","392","847710","0.0-392.0","3306","cat","","","","","","","","","","","","","","perceptual","","","2","40","","","","","272","train","10","0","0",""
"","","","","","","","","","","","canvas-button-response","393","850464","0.0-393.0","2752","3","","","","","","","","","","","","","","confidence","","","2","40","","","","","","","","","","25"
"","","","","","","","","","","","preload","394","850465","0.0-394.0","","","","","true","","","","","","","","","","","preload","","","2","41","false","[]","[]","[]","","","","","",""
"","","","","","","","","","","","canvas-keyboard-response","395","850768","0.0-395.0","null","null","","","","","","","","","","","","","","fixation","","","2","41","","","","","","","","","",""
"","","","","","","","","","","","canvas-keyboard-response","396","851071","0.0-396.0","null","null","","","","","","","","","","","","","","stimulus","","","2","41","","","","","","","","","",""
"","","","","","","","","","","","canvas-button-response","397","853788","0.0-397.0","2714","house","","","","","","","","","","","","","","perceptual","","","2","41","","","","","150","bed","10","0","0",""
"","","","","","","","","","","","canvas-button-response","398","855108","0.0-398.0","1318","0","","","","","","","","","","","","","","confidence","","","2","41","","","","","","","","","","25"
"","","","","","","","","","","","preload","399","855109","0.0-399.0","","","","","true","","","","","","","","","","","preload","","","2","42","false","[]","[]","[]","","","","","",""
"","","","","","","","","","","","canvas-keyboard-response","400","855411","0.0-400.0","null","null","","","","","","","","","","","","","","fixation","","","2","42","","","","","","","","","",""
"","","","","","","","","","","","canvas-keyboard-response","401","855714","0.0-401.0","null","null","","","","","","","","","","","","","","stimulus","","","2","42","","","","","","","","","",""
"","","","","","","","","","","","canvas-button-response","402","856810","0.0-402.0","1093","elephant","","","","","","","","","","","","","","perceptual","","","2","42","","","","","356","elephant","10","0","1",""
"","","","","","","","","","","","canvas-button-response","403","857746","0.0-403.0","935","8","","","","","","","","","","","","","","confidence","","","2","42","","","","","","","","","","26"
"","","","","","","","","","","","preload","404","857747","0.0-404.0","","","","","true","","","","","","","","","","","preload","","","2","43","false","[]","[]","[]","","","","","",""
"","","","","","","","","","","","canvas-keyboard-response","405","858050","0.0-405.0","null","null","","","","","","","","","","","","","","fixation","","","2","43","","","","","","","","","",""
"","","","","","","","","","","","canvas-keyboard-response","406","858353","0.0-406.0","null","null","","","","","","","","","","","","","","stimulus","","","2","43","","","","","","","","","",""
"","","","","","","","","","","","canvas-button-response","407","859472","0.0-407.0","1116","car","","","","","","","","","","","","","","perceptual","","","2","43","","","","","56","car","6","0","1",""
"","","","","","","","","","","","canvas-button-response","408","860276","0.0-408.0","802","10","","","","","","","","","","","","","","confidence","","","2","43","","","","","","","","","","27"
"","","","","","","","","","","","preload","409","860276","0.0-409.0","","","","","true","","","","","","","","","","","preload","","","2","44","false","[]","[]","[]","","","","","",""
"","","","","","","","","","","","canvas-keyboard-response","410","860579","0.0-410.0","null","null","","","","","","","","","","","","","","fixation","","","2","44","","","","","","","","","",""
"","","","","","","","","","","","canvas-keyboard-response","411","860883","0.0-411.0","null","null","","","","","","","","","","","","","","stimulus","","","2","44","","","","","","","","","",""
"","","","","","","","","","","","canvas-button-response","412","862238","0.0-412.0","1352","cat","","","","","","","","","","","","","","perceptual","","","2","44","","","","","305","cat","10","0","1",""
"","","","","","","","","","","","canvas-button-response","413","863134","0.0-413.0","894","3","","","","","","","","","","","","","","confidence","","","2","44","","","","","","","","","","28"
"","","","","","","","","","","","preload","414","863135","0.0-414.0","","","","","true","","","","","","","","","","","preload","","","2","45","false","[]","[]","[]","","","","","",""
"","","","","","","","","","","","canvas-keyboard-response","415","863437","0.0-415.0","null","null","","","","","","","","","","","","","","fixation","","","2","45","","","","","","","","","",""
"","","","","","","","","","","","canvas-keyboard-response","416","863741","0.0-416.0","null","null","","","","","","","","","","","","","","stimulus","","","2","45","","","","","","","","","",""
"","","","","","","","","","","","canvas-button-response","417","867913","0.0-417.0","4169","cat","","","","","","","","","","","","","","perceptual","","","2","45","","","","","118","phone","10","0","0",""
"","","","","","","","","","","","canvas-button-response","418","869143","0.0-418.0","1228","3","","","","","","","","","","","","","","confidence","","","2","45","","","","","","","","","","28"
"","","","","","","","","","","","preload","419","869144","0.0-419.0","","","","","true","","","","","","","","","","","preload","","","2","46","false","[]","[]","[]","","","","","",""
"","","","","","","","","","","","canvas-keyboard-response","420","869447","0.0-420.0","null","null","","","","","","","","","","","","","","fixation","","","2","46","","","","","","","","","",""
"","","","","","","","","","","","canvas-keyboard-response","421","869750","0.0-421.0","null","null","","","","","","","","","","","","","","stimulus","","","2","46","","","","","","","","","",""
"","","","","","","","","","","","canvas-button-response","422","872254","0.0-422.0","2500","knife","","","","","","","","","","","","","","perceptual","","","2","46","","","","","179","bridge","6","0","0",""
"","","","","","","","","","","","canvas-button-response","423","873077","0.0-423.0","821","0","","","","","","","","","","","","","","confidence","","","2","46","","","","","","","","","","28"
"","","","","","","","","","","","preload","424","873077","0.0-424.0","","","","","true","","","","","","","","","","","preload","","","2","47","false","[]","[]","[]","","","","","",""
"","","","","","","","","","","","canvas-keyboard-response","425","873380","0.0-425.0","null","null","","","","","","","","","","","","","","fixation","","","2","47","","","","","","","","","",""
"","","","","","","","","","","","canvas-keyboard-response","426","873684","0.0-426.0","null","null","","","","","","","","","","","","","","stimulus","","","2","47","","","","","","","","","",""
"","","","","","","","","","","","canvas-button-response","427","874646","0.0-427.0","960","flower","","","","","","","","","","","","","","perceptual","","","2","47","","","","","223","flower","10","0","1",""
"","","","","","","","","","","","canvas-button-response","428","876338","0.0-428.0","1690","7","","","","","","","","","","","","","","confidence","","","2","47","","","","","","","","","","29"
"","","","","","","","","","","","preload","429","876339","0.0-429.0","","","","","true","","","","","","","","","","","preload","","","2","48","false","[]","[]","[]","","","","","",""
"","","","","","","","","","","","canvas-keyboard-response","430","876642","0.0-430.0","null","null","","","","","","","","","","","","","","fixation","","","2","48","","","","","","","","","",""
"","","","","","","","","","","","canvas-keyboard-response","431","876946","0.0-431.0","null","null","","","","","","","","","","","","","","stimulus","","","2","48","","","","","","","","","",""
"","","","","","","","","","","","canvas-button-response","432","880109","0.0-432.0","3161","cat","","","","","","","","","","","","","","perceptual","","","2","48","","","","","31","house","10","0","0",""
"","","","","","","","","","","","canvas-button-response","433","882071","0.0-433.0","1960","1","","","","","","","","","","","","","","confidence","","","2","48","","","","","","","","","","29"
"","","","","","","","","","","","preload","434","882072","0.0-434.0","","","","","true","","","","","","","","","","","preload","","","2","49","false","[]","[]","[]","","","","","",""
"","","","","","","","","","","","canvas-keyboard-response","435","882375","0.0-435.0","null","null","","","","","","","","","","","","","","fixation","","","2","49","","","","","","","","","",""
"","","","","","","","","","","","canvas-keyboard-response","436","882678","0.0-436.0","null","null","","","","","","","","","","","","","","stimulus","","","2","49","","","","","","","","","",""
"","","","","","","","","","","","canvas-button-response","437","885259","0.0-437.0","2579","elephant","","","","","","","","","","","","","","perceptual","","","2","49","","","","","39","house","10","0","0",""
"","","","","","","","","","","","canvas-button-response","438","886427","0.0-438.0","1166","2","","","","","","","","","","","","","","confidence","","","2","49","","","","","","","","","","29"
"","","","","","","","","","","","html-button-response","439","1355506","0.0-439.0","469074","0","","","","","","","","","","","","","","<p style=""font-size:20px;color:#000000"">You got 29 out of 50 trials correct in this block.<br><br>You have completed 6% of the experiment.<br><br>Take a short break.<br><br>When you are ready, click Continue to proceed.","","","2","49","","","","","","","","","",""
"","","","","","","","","","","","html-keyboard-response","440","1356509","0.0-440.0","null","null","","","","","","","","","","","","","","<p style=""font-size:32px;color:#000000""><br><br> RUN: &nbsp 1/4 <br><br> BLOCK: 2/4 ","","","2","49","","","","","","","","","",""
"","","","","","","","","","","","preload","441","1356510","0.0-441.0","","","","","true","","","","","","","","","","","preload","","","2","50","false","[]","[]","[]","","","","","",""
"","","","","","","","","","","","canvas-keyboard-response","442","1356814","0.0-442.0","null","null","","","","","","","","","","","","","","fixation","","","2","50","","","","","","","","","",""
"","","","","","","","","","","","canvas-keyboard-response","443","1357118","0.0-443.0","null","null","","","","","","","","","","","","","","stimulus","","","2","50","","","","","","","","","",""
"","","","","","","","","","","","canvas-button-response","444","1359469","0.0-444.0","2348","knife","","","","","","","","","","","","","","perceptual","","","2","50","","","","","319","cat","10","0","0",""
"","","","","","","","","","","","canvas-button-response","445","1360201","0.0-445.0","731","0","","","","","","","","","","","","","","confidence","","","2","50","","","","","","","","","","0"
"","","","","","","","","","","","preload","446","1360202","0.0-446.0","","","","","true","","","","","","","","","","","preload","","","2","51","false","[]","[]","[]","","","","","",""
"","","","","","","","","","","","canvas-keyboard-response","447","1360505","0.0-447.0","null","null","","","","","","","","","","","","","","fixation","","","2","51","","","","","","","","","",""
"","","","","","","","","","","","canvas-keyboard-response","448","1360808","0.0-448.0","null","null","","","","","","","","","","","","","","stimulus","","","2","51","","","","","","","","","",""
"","","","","","","","","","","","canvas-button-response","449","1364570","0.0-449.0","3758","train","","","","","","","","","","","","","","perceptual","","","2","51","","","","","180","bridge","10","0","0",""
"","","","","","","","","","","","canvas-button-response","450","1366003","0.0-450.0","1432","2","","","","","","","","","","","","","","confidence","","","2","51","","","","","","","","","","0"
"","","","","","","","","","","","preload","451","1366004","0.0-451.0","","","","","true","","","","","","","","","","","preload","","","2","52","false","[]","[]","[]","","","","","",""
"","","","","","","","","","","","canvas-keyboard-response","452","1366307","0.0-452.0","null","null","","","","","","","","","","","","","","fixation","","","2","52","","","","","","","","","",""
"","","","","","","","","","","","canvas-keyboard-response","453","1366611","0.0-453.0","null","null","","","","","","","","","","","","","","stimulus","","","2","52","","","","","","","","","",""
"","","","","","","","","","","","canvas-button-response","454","1368919","0.0-454.0","2304","knife","","","","","","","","","","","","","","perceptual","","","2","52","","","","","397","knife","10","0","1",""
"","","","","","","","","","","","canvas-button-response","455","1370814","0.0-455.0","1894","1","","","","","","","","","","","","","","confidence","","","2","52","","","","","","","","","","1"
"","","","","","","","","","","","preload","456","1370815","0.0-456.0","","","","","true","","","","","","","","","","","preload","","","2","53","false","[]","[]","[]","","","","","",""
"","","","","","","","","","","","canvas-keyboard-response","457","1371118","0.0-457.0","null","null","","","","","","","","","","","","","","fixation","","","2","53","","","","","","","","","",""
"","","","","","","","","","","","canvas-keyboard-response","458","1371422","0.0-458.0","null","null","","","","","","","","","","","","","","stimulus","","","2","53","","","","","","","","","",""
"","","","","","","","","","","","canvas-button-response","459","1372498","0.0-459.0","1073","cat","","","","","","","","","","","","","","perceptual","","","2","53","","","","","281","cat","6","0","1",""
"","","","","","","","","","","","canvas-button-response","460","1373523","0.0-460.0","1023","9","","","","","","","","","","","","","","confidence","","","2","53","","","","","","","","","","2"
"","","","","","","","","","","","preload","461","1373523","0.0-461.0","","","","","true","","","","","","","","","","","preload","","","2","54","false","[]","[]","[]","","","","","",""
"","","","","","","","","","","","canvas-keyboard-response","462","1373826","0.0-462.0","null","null","","","","","","","","","","","","","","fixation","","","2","54","","","","","","","","","",""
"","","","","","","","","","","","canvas-keyboard-response","463","1374129","0.0-463.0","null","null","","","","","","","","","","","","","","stimulus","","","2","54","","","","","","","","","",""
"","","","","","","","","","","","canvas-button-response","464","1375557","0.0-464.0","1424","house","","","","","","","","","","","","","","perceptual","","","2","54","","","","","3","house","6","0","1",""
"","","","","","","","","","","","canvas-button-response","465","1376370","0.0-465.0","811","7","","","","","","","","","","","","","","confidence","","","2","54","","","","","","","","","","3"
"","","","","","","","","","","","preload","466","1376371","0.0-466.0","","","","","true","","","","","","","","","","","preload","","","2","55","false","[]","[]","[]","","","","","",""
"","","","","","","","","","","","canvas-keyboard-response","467","1376673","0.0-467.0","null","null","","","","","","","","","","","","","","fixation","","","2","55","","","","","","","","","",""
"","","","","","","","","","","","canvas-keyboard-response","468","1376976","0.0-468.0","null","null","","","","","","","","","","","","","","stimulus","","","2","55","","","","","","","","","",""
"","","","","","","","","","","","canvas-button-response","469","1378153","0.0-469.0","1173","elephant","","","","","","","","","","","","","","perceptual","","","2","55","","","","","333","elephant","6","0","1",""
"","","","","","","","","","","","canvas-button-response","470","1380303","0.0-470.0","2148","9","","","","","","","","","","","","","","confidence","","","2","55","","","","","","","","","","4"
"","","","","","","","","","","","preload","471","1380304","0.0-471.0","","","","","true","","","","","","","","","","","preload","","","2","56","false","[]","[]","[]","","","","","",""
"","","","","","","","","","","","canvas-keyboard-response","472","1380606","0.0-472.0","null","null","","","","","","","","","","","","","","fixation","","","2","56","","","","","","","","","",""
"","","","","","","","","","","","canvas-keyboard-response","473","1380909","0.0-473.0","null","null","","","","","","","","","","","","","","stimulus","","","2","56","","","","","","","","","",""
"","","","","","","","","","","","canvas-button-response","474","1382102","0.0-474.0","1190","knife","","","","","","","","","","","","","","perceptual","","","2","56","","","","","360","knife","6","0","1",""
"","","","","","","","","","","","canvas-button-response","475","1382822","0.0-475.0","718","10","","","","","","","","","","","","","","confidence","","","2","56","","","","","","","","","","5"
"","","","","","","","","","","","preload","476","1382823","0.0-476.0","","","","","true","","","","","","","","","","","preload","","","2","57","false","[]","[]","[]","","","","","",""
"","","","","","","","","","","","canvas-keyboard-response","477","1383125","0.0-477.0","null","null","","","","","","","","","","","","","","fixation","","","2","57","","","","","","","","","",""
"","","","","","","","","","","","canvas-keyboard-response","478","1383429","0.0-478.0","null","null","","","","","","","","","","","","","","stimulus","","","2","57","","","","","","","","","",""
"","","","","","","","","","","","canvas-button-response","479","1391750","0.0-479.0","8319","bed","","","","","","","","","","","","","","perceptual","","","2","57","","","","","124","bed","6","0","1",""
"","","","","","","","","","","","canvas-button-response","480","1400199","0.0-480.0","8446","2","","","","","","","","","","","","","","confidence","","","2","57","","","","","","","","","","6"
"","","","","","","","","","","","preload","481","1400200","0.0-481.0","","","","","true","","","","","","","","","","","preload","","","2","58","false","[]","[]","[]","","","","","",""
"","","","","","","","","","","","canvas-keyboard-response","482","1400502","0.0-482.0","null","null","","","","","","","","","","","","","","fixation","","","2","58","","","","","","","","","",""
"","","","","","","","","","","","canvas-keyboard-response","483","1400806","0.0-483.0","null","null","","","","","","","","","","","","","","stimulus","","","2","58","","","","","","","","","",""
"","","","","","","","","","","","canvas-button-response","484","1402957","0.0-484.0","2148","train","","","","","","","","","","","","","","perceptual","","","2","58","","","","","273","train","10","0","1",""
"","","","","","","","","","","","canvas-button-response","485","1404172","0.0-485.0","1214","5","","","","","","","","","","","","","","confidence","","","2","58","","","","","","","","","","7"
"","","","","","","","","","","","preload","486","1404173","0.0-486.0","","","","","true","","","","","","","","","","","preload","","","2","59","false","[]","[]","[]","","","","","",""
"","","","","","","","","","","","canvas-keyboard-response","487","1404475","0.0-487.0","null","null","","","","","","","","","","","","","","fixation","","","2","59","","","","","","","","","",""
"","","","","","","","","","","","canvas-keyboard-response","488","1404778","0.0-488.0","null","null","","","","","","","","","","","","","","stimulus","","","2","59","","","","","","","","","",""
"","","","","","","","","","","","canvas-button-response","489","1406405","0.0-489.0","1625","car","","","","","","","","","","","","","","perceptual","","","2","59","","","","","78","car","10","0","1",""
"","","","","","","","","","","","canvas-button-response","490","1407903","0.0-490.0","1496","10","","","","","","","","","","","","","","confidence","","","2","59","","","","","","","","","","8"
"","","","","","","","","","","","preload","491","1407904","0.0-491.0","","","","","true","","","","","","","","","","","preload","","","2","60","false","[]","[]","[]","","","","","",""
