"width","height","webaudio","browser","browser_version","mobile","os","fullscreen","vsync_rate","webcam","microphone","trial_type","trial_index","time_elapsed","internal_node_id","rt","response","accuracy","view_history","success","item_width_mm","item_height_mm","item_width_px","px2mm","view_dist_mm","item_width_deg","px2deg","scale_factor","win_width_deg","win_height_deg","stimulus","datetime","subjectID","curr_triallist","trial_no","timeout","failed_images","failed_audio","failed_video","image_index","category","blur","reps","correct","running_score"
"1826","1606","true","chrome","141.0.0","false","Mac OS","true","120.55","true","true","browser-check","0","501","0.0-0.0","","","","","","","","","","","","","","","","","","","","","","","","","","","","","",""
"","","","","","","","","","","","survey","1","49362","0.0-1.0","48831","{""P0_Q0"":""903864698"",""P0_Q1"":""20"",""P1_Q0"":""Female"",""P1_Q1"":""Not Hispanic or Latino"",""P1_Q2"":""Asian"",""P1_Q3"":""Corrected-to-Normal (using glasses/contacts)"",""P1_Q4"":""Right-Handed""}","[]","","","","","","","","","","","","","","","","","","","","","","","","","","",""
"","","","","","","","","","","","instructions","2","64012","0.0-2.0","14649","","","[{""page_index"":0,""viewing_time"":2617},{""page_index"":1,""viewing_time"":4589},{""page_index"":2,""viewing_time"":6170},{""page_index"":3,""viewing_time"":1272}]","","","","","","","","","","","","","","","","","","","","","","","","","",""
"","","","","","","","","","","","fullscreen","3","67469","0.0-3.0","2453","","","","true","","","","","","","","","","","","","","","","","","","","","","","","",""
"","","","","","","","","","","","virtual-chinrest","4","109684","0.0-4.0","42212","","","","","85.6","53.98","138.96487623217203","1.6218096534017215","1058.22","4.632162541072401","30","3.0151503844753287","50.4","31.5","","","","","","","","","","","","","","",""
"","","","","","","","","","","","instructions","5","140932","0.0-5.0","31246","","","[{""page_index"":0,""viewing_time"":6350},{""page_index"":1,""viewing_time"":3116},{""page_index"":2,""viewing_time"":4334},{""page_index"":3,""viewing_time"":4435},{""page_index"":4,""viewing_time"":3266},{""page_index"":5,""viewing_time"":7378},{""page_index"":6,""viewing_time"":2367}]","","","","","","","","","","","","","","","","","","","","","","","","","",""
"","","","","","","","","","","","html-button-response","6","145872","0.0-6.0","4936","0","","","","","","","","","","","","","","start_practice","Tue Oct 21 2025 14:35:07 GMT-0400 (Eastern Daylight Time)","23364","","","","","","","","","","","",""
"","","","","","","","","","","","preload","7","145873","0.0-7.0","","","","","true","","","","","","","","","","","preload","","","0","0","false","[]","[]","[]","","","","","",""
"","","","","","","","","","","","canvas-keyboard-response","8","146178","0.0-8.0","null","null","","","","","","","","","","","","","","fixation","","","0","0","","","","","","","","","",""
"","","","","","","","","","","","canvas-keyboard-response","9","146482","0.0-9.0","null","null","","","","","","","","","","","","","","stimulus","","","0","0","","","","","","","","","",""
"","","","","","","","","","","","canvas-button-response","10","153256","0.0-10.0","6770","house","","","","","","","","","","","","","","perceptual","","","0","0","","","","","52","flower","1","","0",""
"","","","","","","","","","","","canvas-button-response","11","155835","0.0-11.0","2575","6","","","","","","","","","","","","","","confidence","","","0","0","","","","","","","","","","0"
"","","","","","","","","","","","html-keyboard-response","12","156839","0.0-12.0","null","null","","","","","","","","","","","","","","feedback","Tue Oct 21 2025 14:35:22 GMT-0400 (Eastern Daylight Time)","23364","0","0","","","","","","","","","",""
"","","","","","","","","","","","preload","13","156841","0.0-13.0","","","","","true","","","","","","","","","","","preload","","","0","1","false","[]","[]","[]","","","","","",""
"","","","","","","","","","","","canvas-keyboard-response","14","157144","0.0-14.0","null","null","","","","","","","","","","","","","","fixation","","","0","1","","","","","","","","","",""
"","","","","","","","","","","","canvas-keyboard-response","15","157447","0.0-15.0","null","null","","","","","","","","","","","","","","stimulus","","","0","1","","","","","","","","","",""
"","","","","","","","","","","","canvas-button-response","16","159174","0.0-16.0","1724","phone","","","","","","","","","","","","","","perceptual","","","0","1","","","","","22","phone","1","","1",""
"","","","","","","","","","","","canvas-button-response","17","160342","0.0-17.0","1164","10","","","","","","","","","","","","","","confidence","","","0","1","","","","","","","","","","1"
"","","","","","","","","","","","html-keyboard-response","18","161345","0.0-18.0","null","null","","","","","","","","","","","","","","feedback","Tue Oct 21 2025 14:35:26 GMT-0400 (Eastern Daylight Time)","23364","0","1","","","","","","","","","",""
"","","","","","","","","","","","preload","19","161346","0.0-19.0","","","","","true","","","","","","","","","","","preload","","","0","2","false","[]","[]","[]","","","","","",""
"","","","","","","","","","","","canvas-keyboard-response","20","161650","0.0-20.0","null","null","","","","","","","","","","","","","","fixation","","","0","2","","","","","","","","","",""
"","","","","","","","","","","","canvas-keyboard-response","21","161953","0.0-21.0","null","null","","","","","","","","","","","","","","stimulus","","","0","2","","","","","","","","","",""
"","","","","","","","","","","","canvas-button-response","22","163365","0.0-22.0","1409","cat","","","","","","","","","","","","","","perceptual","","","0","2","","","","","72","cat","1","","1",""
"","","","","","","","","","","","canvas-button-response","23","212401","0.0-23.0","49032","10","","","","","","","","","","","","","","confidence","","","0","2","","","","","","","","","","2"
"","","","","","","","","","","","html-keyboard-response","24","213404","0.0-24.0","null","null","","","","","","","","","","","","","","feedback","Tue Oct 21 2025 14:36:18 GMT-0400 (Eastern Daylight Time)","23364","0","2","","","","","","","","","",""
"","","","","","","","","","","","preload","25","213405","0.0-25.0","","","","","true","","","","","","","","","","","preload","","","0","3","false","[]","[]","[]","","","","","",""
"","","","","","","","","","","","canvas-keyboard-response","26","213708","0.0-26.0","null","null","","","","","","","","","","","","","","fixation","","","0","3","","","","","","","","","",""
"","","","","","","","","","","","canvas-keyboard-response","27","214012","0.0-27.0","null","null","","","","","","","","","","","","","","stimulus","","","0","3","","","","","","","","","",""
"","","","","","","","","","","","canvas-button-response","28","216180","0.0-28.0","2165","knife","","","","","","","","","","","","","","perceptual","","","0","3","","","","","92","knife","1","","1",""
"","","","","","","","","","","","canvas-button-response","29","217259","0.0-29.0","1076","10","","","","","","","","","","","","","","confidence","","","0","3","","","","","","","","","","3"
"","","","","","","","","","","","html-keyboard-response","30","218263","0.0-30.0","null","null","","","","","","","","","","","","","","feedback","Tue Oct 21 2025 14:36:23 GMT-0400 (Eastern Daylight Time)","23364","0","3","","","","","","","","","",""
"","","","","","","","","","","","preload","31","218264","0.0-31.0","","","","","true","","","","","","","","","","","preload","","","0","4","false","[]","[]","[]","","","","","",""
"","","","","","","","","","","","canvas-keyboard-response","32","218567","0.0-32.0","null","null","","","","","","","","","","","","","","fixation","","","0","4","","","","","","","","","",""
"","","","","","","","","","","","canvas-keyboard-response","33","218870","0.0-33.0","null","null","","","","","","","","","","","","","","stimulus","","","0","4","","","","","","","","","",""
"","","","","","","","","","","","canvas-button-response","34","221273","0.0-34.0","2399","train","","","","","","","","","","","","","","perceptual","","","0","4","","","","","62","train","1","","1",""
"","","","","","","","","","","","canvas-button-response","35","222156","0.0-35.0","880","10","","","","","","","","","","","","","","confidence","","","0","4","","","","","","","","","","4"
"","","","","","","","","","","","html-keyboard-response","36","223160","0.0-36.0","null","null","","","","","","","","","","","","","","feedback","Tue Oct 21 2025 14:36:28 GMT-0400 (Eastern Daylight Time)","23364","0","4","","","","","","","","","",""
"","","","","","","","","","","","preload","37","223161","0.0-37.0","","","","","true","","","","","","","","","","","preload","","","0","5","false","[]","[]","[]","","","","","",""
"","","","","","","","","","","","canvas-keyboard-response","38","223465","0.0-38.0","null","null","","","","","","","","","","","","","","fixation","","","0","5","","","","","","","","","",""
"","","","","","","","","","","","canvas-keyboard-response","39","223767","0.0-39.0","null","null","","","","","","","","","","","","","","stimulus","","","0","5","","","","","","","","","",""
"","","","","","","","","","","","canvas-button-response","40","225149","0.0-40.0","1378","house","","","","","","","","","","","","","","perceptual","","","0","5","","","","","2","house","1","","1",""
"","","","","","","","","","","","canvas-button-response","41","226092","0.0-41.0","941","10","","","","","","","","","","","","","","confidence","","","0","5","","","","","","","","","","5"
"","","","","","","","","","","","html-keyboard-response","42","227096","0.0-42.0","null","null","","","","","","","","","","","","","","feedback","Tue Oct 21 2025 14:36:32 GMT-0400 (Eastern Daylight Time)","23364","0","5","","","","","","","","","",""
"","","","","","","","","","","","preload","43","227097","0.0-43.0","","","","","true","","","","","","","","","","","preload","","","0","6","false","[]","[]","[]","","","","","",""
"","","","","","","","","","","","canvas-keyboard-response","44","227400","0.0-44.0","null","null","","","","","","","","","","","","","","fixation","","","0","6","","","","","","","","","",""
"","","","","","","","","","","","canvas-keyboard-response","45","227703","0.0-45.0","null","null","","","","","","","","","","","","","","stimulus","","","0","6","","","","","","","","","",""
"","","","","","","","","","","","canvas-button-response","46","229269","0.0-46.0","1563","bed","","","","","","","","","","","","","","perceptual","","","0","6","","","","","32","bed","1","","1",""
"","","","","","","","","","","","canvas-button-response","47","230086","0.0-47.0","814","10","","","","","","","","","","","","","","confidence","","","0","6","","","","","","","","","","6"
"","","","","","","","","","","","html-keyboard-response","48","231090","0.0-48.0","null","null","","","","","","","","","","","","","","feedback","Tue Oct 21 2025 14:36:36 GMT-0400 (Eastern Daylight Time)","23364","0","6","","","","","","","","","",""
"","","","","","","","","","","","preload","49","231091","0.0-49.0","","","","","true","","","","","","","","","","","preload","","","0","7","false","[]","[]","[]","","","","","",""
"","","","","","","","","","","","canvas-keyboard-response","50","231394","0.0-50.0","null","null","","","","","","","","","","","","","","fixation","","","0","7","","","","","","","","","",""
"","","","","","","","","","","","canvas-keyboard-response","51","231697","0.0-51.0","null","null","","","","","","","","","","","","","","stimulus","","","0","7","","","","","","","","","",""
"","","","","","","","","","","","canvas-button-response","52","243064","0.0-52.0","11363","elephant","","","","","","","","","","","","","","perceptual","","","0","7","","","","","82","elephant","1","","1",""
"","","","","","","","","","","","canvas-button-response","53","244469","0.0-53.0","1403","7","","","","","","","","","","","","","","confidence","","","0","7","","","","","","","","","","7"
"","","","","","","","","","","","html-keyboard-response","54","245473","0.0-54.0","null","null","","","","","","","","","","","","","","feedback","Tue Oct 21 2025 14:36:50 GMT-0400 (Eastern Daylight Time)","23364","0","7","","","","","","","","","",""
"","","","","","","","","","","","preload","55","245474","0.0-55.0","","","","","true","","","","","","","","","","","preload","","","0","8","false","[]","[]","[]","","","","","",""
"","","","","","","","","","","","canvas-keyboard-response","56","245777","0.0-56.0","null","null","","","","","","","","","","","","","","fixation","","","0","8","","","","","","","","","",""
"","","","","","","","","","","","canvas-keyboard-response","57","246080","0.0-57.0","null","null","","","","","","","","","","","","","","stimulus","","","0","8","","","","","","","","","",""
"","","","","","","","","","","","canvas-button-response","58","247334","0.0-58.0","1251","bridge","","","","","","","","","","","","","","perceptual","","","0","8","","","","","42","bridge","1","","1",""
"","","","","","","","","","","","canvas-button-response","59","248367","0.0-59.0","1030","10","","","","","","","","","","","","","","confidence","","","0","8","","","","","","","","","","8"
"","","","","","","","","","","","html-keyboard-response","60","249371","0.0-60.0","null","null","","","","","","","","","","","","","","feedback","Tue Oct 21 2025 14:36:54 GMT-0400 (Eastern Daylight Time)","23364","0","8","","","","","","","","","",""
"","","","","","","","","","","","preload","61","249372","0.0-61.0","","","","","true","","","","","","","","","","","preload","","","0","9","false","[]","[]","[]","","","","","",""
"","","","","","","","","","","","canvas-keyboard-response","62","249675","0.0-62.0","null","null","","","","","","","","","","","","","","fixation","","","0","9","","","","","","","","","",""
"","","","","","","","","","","","canvas-keyboard-response","63","249979","0.0-63.0","null","null","","","","","","","","","","","","","","stimulus","","","0","9","","","","","","","","","",""
"","","","","","","","","","","","canvas-button-response","64","251176","0.0-64.0","1194","car","","","","","","","","","","","","","","perceptual","","","0","9","","","","","12","car","1","","1",""
"","","","","","","","","","","","canvas-button-response","65","252656","0.0-65.0","1477","10","","","","","","","","","","","","","","confidence","","","0","9","","","","","","","","","","9"
"","","","","","","","","","","","html-keyboard-response","66","253660","0.0-66.0","null","null","","","","","","","","","","","","","","feedback","Tue Oct 21 2025 14:36:58 GMT-0400 (Eastern Daylight Time)","23364","0","9","","","","","","","","","",""
"","","","","","","","","","","","html-button-response","67","313195","0.0-67.0","59532","0","","","","","","","","","","","","","","start_practice","Tue Oct 21 2025 14:36:59 GMT-0400 (Eastern Daylight Time)","23364","0","9","","","","","","","","","",""
"","","","","","","","","","","","preload","68","313197","0.0-68.0","","","","","true","","","","","","","","","","","preload","","","1","0","false","[]","[]","[]","","","","","",""
"","","","","","","","","","","","canvas-keyboard-response","69","313500","0.0-69.0","null","null","","","","","","","","","","","","","","fixation","","","1","0","","","","","","","","","",""
"","","","","","","","","","","","canvas-keyboard-response","70","313803","0.0-70.0","null","null","","","","","","","","","","","","","","stimulus","","","1","0","","","","","","","","","",""
"","","","","","","","","","","","canvas-button-response","71","319581","0.0-71.0","5775","cat","","","","","","","","","","","","","","perceptual","","","1","0","","","","","77","cat","10","","1",""
"","","","","","","","","","","","canvas-button-response","72","321219","0.0-72.0","1635","3","","","","","","","","","","","","","","confidence","","","1","0","","","","","","","","","","1"
"","","","","","","","","","","","html-keyboard-response","73","322222","0.0-73.0","null","null","","","","","","","","","","","","","","feedback","Tue Oct 21 2025 14:38:07 GMT-0400 (Eastern Daylight Time)","23364","1","0","","","","","","","","","",""
"","","","","","","","","","","","preload","74","322223","0.0-74.0","","","","","true","","","","","","","","","","","preload","","","1","1","false","[]","[]","[]","","","","","",""
"","","","","","","","","","","","canvas-keyboard-response","75","322526","0.0-75.0","null","null","","","","","","","","","","","","","","fixation","","","1","1","","","","","","","","","",""
"","","","","","","","","","","","canvas-keyboard-response","76","322828","0.0-76.0","null","null","","","","","","","","","","","","","","stimulus","","","1","1","","","","","","","","","",""
"","","","","","","","","","","","canvas-button-response","77","323847","0.0-77.0","1015","house","","","","","","","","","","","","","","perceptual","","","1","1","","","","","4","house","6","","1",""
"","","","","","","","","","","","canvas-button-response","78","327162","0.0-78.0","3312","10","","","","","","","","","","","","","","confidence","","","1","1","","","","","","","","","","2"
"","","","","","","","","","","","html-keyboard-response","79","328165","0.0-79.0","null","null","","","","","","","","","","","","","","feedback","Tue Oct 21 2025 14:38:13 GMT-0400 (Eastern Daylight Time)","23364","1","1","","","","","","","","","",""
"","","","","","","","","","","","preload","80","328166","0.0-80.0","","","","","true","","","","","","","","","","","preload","","","1","2","false","[]","[]","[]","","","","","",""
"","","","","","","","","","","","canvas-keyboard-response","81","328469","0.0-81.0","null","null","","","","","","","","","","","","","","fixation","","","1","2","","","","","","","","","",""
"","","","","","","","","","","","canvas-keyboard-response","82","328772","0.0-82.0","null","null","","","","","","","","","","","","","","stimulus","","","1","2","","","","","","","","","",""
"","","","","","","","","","","","canvas-button-response","83","330969","0.0-83.0","2194","knife","","","","","","","","","","","","","","perceptual","","","1","2","","","","","97","knife","10","","1",""
"","","","","","","","","","","","canvas-button-response","84","331941","0.0-84.0","969","8","","","","","","","","","","","","","","confidence","","","1","2","","","","","","","","","","3"
"","","","","","","","","","","","html-keyboard-response","85","332944","0.0-85.0","null","null","","","","","","","","","","","","","","feedback","Tue Oct 21 2025 14:38:18 GMT-0400 (Eastern Daylight Time)","23364","1","2","","","","","","","","","",""
"","","","","","","","","","","","preload","86","332945","0.0-86.0","","","","","true","","","","","","","","","","","preload","","","1","3","false","[]","[]","[]","","","","","",""
"","","","","","","","","","","","canvas-keyboard-response","87","333249","0.0-87.0","null","null","","","","","","","","","","","","","","fixation","","","1","3","","","","","","","","","",""
"","","","","","","","","","","","canvas-keyboard-response","88","333552","0.0-88.0","null","null","","","","","","","","","","","","","","stimulus","","","1","3","","","","","","","","","",""
"","","","","","","","","","","","canvas-button-response","89","337248","0.0-89.0","3693","phone","","","","","","","","","","","","","","perceptual","","","1","3","","","","","27","phone","10","","1",""
"","","","","","","","","","","","canvas-button-response","90","338187","0.0-90.0","936","2","","","","","","","","","","","","","","confidence","","","1","3","","","","","","","","","","4"
"","","","","","","","","","","","html-keyboard-response","91","339190","0.0-91.0","null","null","","","","","","","","","","","","","","feedback","Tue Oct 21 2025 14:38:24 GMT-0400 (Eastern Daylight Time)","23364","1","3","","","","","","","","","",""
"","","","","","","","","","","","preload","92","339192","0.0-92.0","","","","","true","","","","","","","","","","","preload","","","1","4","false","[]","[]","[]","","","","","",""
"","","","","","","","","","","","canvas-keyboard-response","93","339495","0.0-93.0","null","null","","","","","","","","","","","","","","fixation","","","1","4","","","","","","","","","",""
"","","","","","","","","","","","canvas-keyboard-response","94","339798","0.0-94.0","null","null","","","","","","","","","","","","","","stimulus","","","1","4","","","","","","","","","",""
"","","","","","","","","","","","canvas-button-response","95","342249","0.0-95.0","2448","flower","","","","","","","","","","","","","","perceptual","","","1","4","","","","","87","elephant","10","","0",""
"","","","","","","","","","","","canvas-button-response","96","344047","0.0-96.0","1795","8","","","","","","","","","","","","","","confidence","","","1","4","","","","","","","","","","4"
"","","","","","","","","","","","html-keyboard-response","97","345050","0.0-97.0","null","null","","","","","","","","","","","","","","feedback","Tue Oct 21 2025 14:38:30 GMT-0400 (Eastern Daylight Time)","23364","1","4","","","","","","","","","",""
"","","","","","","","","","","","preload","98","345052","0.0-98.0","","","","","true","","","","","","","","","","","preload","","","1","5","false","[]","[]","[]","","","","","",""
"","","","","","","","","","","","canvas-keyboard-response","99","345354","0.0-99.0","null","null","","","","","","","","","","","","","","fixation","","","1","5","","","","","","","","","",""
"","","","","","","","","","","","canvas-keyboard-response","100","345658","0.0-100.0","null","null","","","","","","","","","","","","","","stimulus","","","1","5","","","","","","","","","",""
"","","","","","","","","","","","canvas-button-response","101","347449","0.0-101.0","1789","car","","","","","","","","","","","","","","perceptual","","","1","5","","","","","17","car","10","","1",""
"","","","","","","","","","","","canvas-button-response","102","348210","0.0-102.0","758","9","","","","","","","","","","","","","","confidence","","","1","5","","","","","","","","","","5"
"","","","","","","","","","","","html-keyboard-response","103","349213","0.0-103.0","null","null","","","","","","","","","","","","","","feedback","Tue Oct 21 2025 14:38:34 GMT-0400 (Eastern Daylight Time)","23364","1","5","","","","","","","","","",""
"","","","","","","","","","","","preload","104","349214","0.0-104.0","","","","","true","","","","","","","","","","","preload","","","1","6","false","[]","[]","[]","","","","","",""
"","","","","","","","","","","","canvas-keyboard-response","105","349517","0.0-105.0","null","null","","","","","","","","","","","","","","fixation","","","1","6","","","","","","","","","",""
"","","","","","","","","","","","canvas-keyboard-response","106","349821","0.0-106.0","null","null","","","","","","","","","","","","","","stimulus","","","1","6","","","","","","","","","",""
"","","","","","","","","","","","canvas-button-response","107","352931","0.0-107.0","3107","knife","","","","","","","","","","","","","","perceptual","","","1","6","","","","","67","train","10","","0",""
"","","","","","","","","","","","canvas-button-response","108","353842","0.0-108.0","909","7","","","","","","","","","","","","","","confidence","","","1","6","","","","","","","","","","5"
"","","","","","","","","","","","html-keyboard-response","109","354845","0.0-109.0","null","null","","","","","","","","","","","","","","feedback","Tue Oct 21 2025 14:38:40 GMT-0400 (Eastern Daylight Time)","23364","1","6","","","","","","","","","",""
"","","","","","","","","","","","preload","110","354846","0.0-110.0","","","","","true","","","","","","","","","","","preload","","","1","7","false","[]","[]","[]","","","","","",""
"","","","","","","","","","","","canvas-keyboard-response","111","355150","0.0-111.0","null","null","","","","","","","","","","","","","","fixation","","","1","7","","","","","","","","","",""
"","","","","","","","","","","","canvas-keyboard-response","112","355453","0.0-112.0","null","null","","","","","","","","","","","","","","stimulus","","","1","7","","","","","","","","","",""
"","","","","","","","","","","","canvas-button-response","113","357317","0.0-113.0","1861","flower","","","","","","","","","","","","","","perceptual","","","1","7","","","","","54","flower","6","","1",""
"","","","","","","","","","","","canvas-button-response","114","358192","0.0-114.0","872","9","","","","","","","","","","","","","","confidence","","","1","7","","","","","","","","","","6"
"","","","","","","","","","","","html-keyboard-response","115","359196","0.0-115.0","null","null","","","","","","","","","","","","","","feedback","Tue Oct 21 2025 14:38:44 GMT-0400 (Eastern Daylight Time)","23364","1","7","","","","","","","","","",""
"","","","","","","","","","","","preload","116","359197","0.0-116.0","","","","","true","","","","","","","","","","","preload","","","1","8","false","[]","[]","[]","","","","","",""
"","","","","","","","","","","","canvas-keyboard-response","117","359499","0.0-117.0","null","null","","","","","","","","","","","","","","fixation","","","1","8","","","","","","","","","",""
"","","","","","","","","","","","canvas-keyboard-response","118","359802","0.0-118.0","null","null","","","","","","","","","","","","","","stimulus","","","1","8","","","","","","","","","",""
"","","","","","","","","","","","canvas-button-response","119","362869","0.0-119.0","3064","elephant","","","","","","","","","","","","","","perceptual","","","1","8","","","","","84","elephant","6","","1",""
"","","","","","","","","","","","canvas-button-response","120","363817","0.0-120.0","946","9","","","","","","","","","","","","","","confidence","","","1","8","","","","","","","","","","7"
"","","","","","","","","","","","html-keyboard-response","121","364820","0.0-121.0","null","null","","","","","","","","","","","","","","feedback","Tue Oct 21 2025 14:38:50 GMT-0400 (Eastern Daylight Time)","23364","1","8","","","","","","","","","",""
"","","","","","","","","","","","preload","122","364821","0.0-122.0","","","","","true","","","","","","","","","","","preload","","","1","9","false","[]","[]","[]","","","","","",""
"","","","","","","","","","","","canvas-keyboard-response","123","365123","0.0-123.0","null","null","","","","","","","","","","","","","","fixation","","","1","9","","","","","","","","","",""
"","","","","","","","","","","","canvas-keyboard-response","124","365426","0.0-124.0","null","null","","","","","","","","","","","","","","stimulus","","","1","9","","","","","","","","","",""
"","","","","","","","","","","","canvas-button-response","125","366913","0.0-125.0","1484","cat","","","","","","","","","","","","","","perceptual","","","1","9","","","","","74","cat","6","","1",""
"","","","","","","","","","","","canvas-button-response","126","367559","0.0-126.0","644","7","","","","","","","","","","","","","","confidence","","","1","9","","","","","","","","","","8"
"","","","","","","","","","","","html-keyboard-response","127","368562","0.0-127.0","null","null","","","","","","","","","","","","","","feedback","Tue Oct 21 2025 14:38:53 GMT-0400 (Eastern Daylight Time)","23364","1","9","","","","","","","","","",""
"","","","","","","","","","","","preload","128","368563","0.0-128.0","","","","","true","","","","","","","","","","","preload","","","1","10","false","[]","[]","[]","","","","","",""
"","","","","","","","","","","","canvas-keyboard-response","129","368866","0.0-129.0","null","null","","","","","","","","","","","","","","fixation","","","1","10","","","","","","","","","",""
"","","","","","","","","","","","canvas-keyboard-response","130","369170","0.0-130.0","null","null","","","","","","","","","","","","","","stimulus","","","1","10","","","","","","","","","",""
"","","","","","","","","","","","canvas-button-response","131","371239","0.0-131.0","2067","train","","","","","","","","","","","","","","perceptual","","","1","10","","","","","64","train","6","","1",""
"","","","","","","","","","","","canvas-button-response","132","371830","0.0-132.0","588","10","","","","","","","","","","","","","","confidence","","","1","10","","","","","","","","","","9"
"","","","","","","","","","","","html-keyboard-response","133","372834","0.0-133.0","null","null","","","","","","","","","","","","","","feedback","Tue Oct 21 2025 14:38:58 GMT-0400 (Eastern Daylight Time)","23364","1","10","","","","","","","","","",""
"","","","","","","","","","","","preload","134","372835","0.0-134.0","","","","","true","","","","","","","","","","","preload","","","1","11","false","[]","[]","[]","","","","","",""
"","","","","","","","","","","","canvas-keyboard-response","135","373138","0.0-135.0","null","null","","","","","","","","","","","","","","fixation","","","1","11","","","","","","","","","",""
"","","","","","","","","","","","canvas-keyboard-response","136","373441","0.0-136.0","null","null","","","","","","","","","","","","","","stimulus","","","1","11","","","","","","","","","",""
"","","","","","","","","","","","canvas-button-response","137","374758","0.0-137.0","1314","phone","","","","","","","","","","","","","","perceptual","","","1","11","","","","","14","car","6","","0",""
"","","","","","","","","","","","canvas-button-response","138","376124","0.0-138.0","1363","6","","","","","","","","","","","","","","confidence","","","1","11","","","","","","","","","","9"
"","","","","","","","","","","","html-keyboard-response","139","377127","0.0-139.0","null","null","","","","","","","","","","","","","","feedback","Tue Oct 21 2025 14:39:02 GMT-0400 (Eastern Daylight Time)","23364","1","11","","","","","","","","","",""
"","","","","","","","","","","","preload","140","377128","0.0-140.0","","","","","true","","","","","","","","","","","preload","","","1","12","false","[]","[]","[]","","","","","",""
"","","","","","","","","","","","canvas-keyboard-response","141","377431","0.0-141.0","null","null","","","","","","","","","","","","","","fixation","","","1","12","","","","","","","","","",""
"","","","","","","","","","","","canvas-keyboard-response","142","377734","0.0-142.0","null","null","","","","","","","","","","","","","","stimulus","","","1","12","","","","","","","","","",""
"","","","","","","","","","","","canvas-button-response","143","379376","0.0-143.0","1639","flower","","","","","","","","","","","","","","perceptual","","","1","12","","","","","57","flower","10","","1",""
"","","","","","","","","","","","canvas-button-response","144","380091","0.0-144.0","712","8","","","","","","","","","","","","","","confidence","","","1","12","","","","","","","","","","10"
"","","","","","","","","","","","html-keyboard-response","145","381095","0.0-145.0","null","null","","","","","","","","","","","","","","feedback","Tue Oct 21 2025 14:39:06 GMT-0400 (Eastern Daylight Time)","23364","1","12","","","","","","","","","",""
"","","","","","","","","","","","preload","146","381096","0.0-146.0","","","","","true","","","","","","","","","","","preload","","","1","13","false","[]","[]","[]","","","","","",""
"","","","","","","","","","","","canvas-keyboard-response","147","381400","0.0-147.0","null","null","","","","","","","","","","","","","","fixation","","","1","13","","","","","","","","","",""
"","","","","","","","","","","","canvas-keyboard-response","148","381703","0.0-148.0","null","null","","","","","","","","","","","","","","stimulus","","","1","13","","","","","","","","","",""
"","","","","","","","","","","","canvas-button-response","149","384996","0.0-149.0","3290","phone","","","","","","","","","","","","","","perceptual","","","1","13","","","","","24","phone","6","","1",""
"","","","","","","","","","","","canvas-button-response","150","385642","0.0-150.0","644","8","","","","","","","","","","","","","","confidence","","","1","13","","","","","","","","","","11"
"","","","","","","","","","","","html-keyboard-response","151","386646","0.0-151.0","null","null","","","","","","","","","","","","","","feedback","Tue Oct 21 2025 14:39:11 GMT-0400 (Eastern Daylight Time)","23364","1","13","","","","","","","","","",""
"","","","","","","","","","","","preload","152","386647","0.0-152.0","","","","","true","","","","","","","","","","","preload","","","1","14","false","[]","[]","[]","","","","","",""
"","","","","","","","","","","","canvas-keyboard-response","153","386949","0.0-153.0","null","null","","","","","","","","","","","","","","fixation","","","1","14","","","","","","","","","",""
"","","","","","","","","","","","canvas-keyboard-response","154","387252","0.0-154.0","null","null","","","","","","","","","","","","","","stimulus","","","1","14","","","","","","","","","",""
"","","","","","","","","","","","canvas-button-response","155","389177","0.0-155.0","1922","car","","","","","","","","","","","","","","perceptual","","","1","14","","","","","37","bed","10","","0",""
"","","","","","","","","","","","canvas-button-response","156","389990","0.0-156.0","811","9","","","","","","","","","","","","","","confidence","","","1","14","","","","","","","","","","11"
"","","","","","","","","","","","html-keyboard-response","157","390993","0.0-157.0","null","null","","","","","","","","","","","","","","feedback","Tue Oct 21 2025 14:39:16 GMT-0400 (Eastern Daylight Time)","23364","1","14","","","","","","","","","",""
"","","","","","","","","","","","preload","158","390994","0.0-158.0","","","","","true","","","","","","","","","","","preload","","","1","15","false","[]","[]","[]","","","","","",""
"","","","","","","","","","","","canvas-keyboard-response","159","391297","0.0-159.0","null","null","","","","","","","","","","","","","","fixation","","","1","15","","","","","","","","","",""
"","","","","","","","","","","","canvas-keyboard-response","160","391601","0.0-160.0","null","null","","","","","","","","","","","","","","stimulus","","","1","15","","","","","","","","","",""
"","","","","","","","","","","","canvas-button-response","161","393065","0.0-161.0","1462","bed","","","","","","","","","","","","","","perceptual","","","1","15","","","","","34","bed","6","","1",""
"","","","","","","","","","","","canvas-button-response","162","393788","0.0-162.0","720","10","","","","","","","","","","","","","","confidence","","","1","15","","","","","","","","","","12"
"","","","","","","","","","","","html-keyboard-response","163","394790","0.0-163.0","null","null","","","","","","","","","","","","","","feedback","Tue Oct 21 2025 14:39:20 GMT-0400 (Eastern Daylight Time)","23364","1","15","","","","","","","","","",""
"","","","","","","","","","","","preload","164","394791","0.0-164.0","","","","","true","","","","","","","","","","","preload","","","1","16","false","[]","[]","[]","","","","","",""
"","","","","","","","","","","","canvas-keyboard-response","165","395094","0.0-165.0","null","null","","","","","","","","","","","","","","fixation","","","1","16","","","","","","","","","",""
"","","","","","","","","","","","canvas-keyboard-response","166","395396","0.0-166.0","null","null","","","","","","","","","","","","","","stimulus","","","1","16","","","","","","","","","",""
"","","","","","","","","","","","canvas-button-response","167","398779","0.0-167.0","3381","phone","","","","","","","","","","","","","","perceptual","","","1","16","","","","","47","bridge","10","","0",""
"","","","","","","","","","","","canvas-button-response","168","399547","0.0-168.0","765","7","","","","","","","","","","","","","","confidence","","","1","16","","","","","","","","","","12"
"","","","","","","","","","","","html-keyboard-response","169","400550","0.0-169.0","null","null","","","","","","","","","","","","","","feedback","Tue Oct 21 2025 14:39:25 GMT-0400 (Eastern Daylight Time)","23364","1","16","","","","","","","","","",""
"","","","","","","","","","","","preload","170","400551","0.0-170.0","","","","","true","","","","","","","","","","","preload","","","1","17","false","[]","[]","[]","","","","","",""
"","","","","","","","","","","","canvas-keyboard-response","171","400854","0.0-171.0","null","null","","","","","","","","","","","","","","fixation","","","1","17","","","","","","","","","",""
"","","","","","","","","","","","canvas-keyboard-response","172","401158","0.0-172.0","null","null","","","","","","","","","","","","","","stimulus","","","1","17","","","","","","","","","",""
"","","","","","","","","","","","canvas-button-response","173","404486","0.0-173.0","3324","bridge","","","","","","","","","","","","","","perceptual","","","1","17","","","","","44","bridge","6","","1",""
"","","","","","","","","","","","canvas-button-response","174","405091","0.0-174.0","603","7","","","","","","","","","","","","","","confidence","","","1","17","","","","","","","","","","13"
"","","","","","","","","","","","html-keyboard-response","175","406094","0.0-175.0","null","null","","","","","","","","","","","","","","feedback","Tue Oct 21 2025 14:39:31 GMT-0400 (Eastern Daylight Time)","23364","1","17","","","","","","","","","",""
"","","","","","","","","","","","preload","176","406095","0.0-176.0","","","","","true","","","","","","","","","","","preload","","","1","18","false","[]","[]","[]","","","","","",""
"","","","","","","","","","","","canvas-keyboard-response","177","406398","0.0-177.0","null","null","","","","","","","","","","","","","","fixation","","","1","18","","","","","","","","","",""
"","","","","","","","","","","","canvas-keyboard-response","178","406701","0.0-178.0","null","null","","","","","","","","","","","","","","stimulus","","","1","18","","","","","","","","","",""
"","","","","","","","","","","","canvas-button-response","179","411403","0.0-179.0","4698","phone","","","","","","","","","","","","","","perceptual","","","1","18","","","","","94","knife","6","","0",""
"","","","","","","","","","","","canvas-button-response","180","411968","0.0-180.0","562","7","","","","","","","","","","","","","","confidence","","","1","18","","","","","","","","","","13"
"","","","","","","","","","","","html-keyboard-response","181","412971","0.0-181.0","null","null","","","","","","","","","","","","","","feedback","Tue Oct 21 2025 14:39:38 GMT-0400 (Eastern Daylight Time)","23364","1","18","","","","","","","","","",""
"","","","","","","","","","","","preload","182","412972","0.0-182.0","","","","","true","","","","","","","","","","","preload","","","1","19","false","[]","[]","[]","","","","","",""
"","","","","","","","","","","","canvas-keyboard-response","183","413275","0.0-183.0","null","null","","","","","","","","","","","","","","fixation","","","1","19","","","","","","","","","",""
"","","","","","","","","","","","canvas-keyboard-response","184","413579","0.0-184.0","null","null","","","","","","","","","","","","","","stimulus","","","1","19","","","","","","","","","",""
"","","","","","","","","","","","canvas-button-response","185","414706","0.0-185.0","1124","house","","","","","","","","","","","","","","perceptual","","","1","19","","","","","7","house","10","","1",""
"","","","","","","","","","","","canvas-button-response","186","415580","0.0-186.0","871","9","","","","","","","","","","","","","","confidence","","","1","19","","","","","","","","","","14"
"","","","","","","","","","","","html-keyboard-response","187","416583","0.0-187.0","null","null","","","","","","","","","","","","","","feedback","Tue Oct 21 2025 14:39:41 GMT-0400 (Eastern Daylight Time)","23364","1","19","","","","","","","","","",""
"","","","","","","","","","","","html-button-response","188","426290","0.0-188.0","9703","0","","","","","","","","","","","","","","start experiment","Tue Oct 21 2025 14:39:42 GMT-0400 (Eastern Daylight Time)","23364","1","19","","","","","","","","","",""
"","","","","","","","","","","","preload","189","426291","0.0-189.0","","","","","true","","","","","","","","","","","preload","","","2","0","false","[]","[]","[]","","","","","",""
"","","","","","","","","","","","canvas-keyboard-response","190","426594","0.0-190.0","null","null","","","","","","","","","","","","","","fixation","","","2","0","","","","","","","","","",""
"","","","","","","","","","","","canvas-keyboard-response","191","426897","0.0-191.0","null","null","","","","","","","","","","","","","","stimulus","","","2","0","","","","","","","","","",""
"","","","","","","","","","","","canvas-button-response","192","428982","0.0-192.0","2082","car","","","","","","","","","","","","","","perceptual","","","2","0","","","","","44","car","6","0","1",""
"","","","","","","","","","","","canvas-button-response","193","430023","0.0-193.0","1038","10","","","","","","","","","","","","","","confidence","","","2","0","","","","","","","","","","1"
"","","","","","","","","","","","preload","194","430024","0.0-194.0","","","","","true","","","","","","","","","","","preload","","","2","1","false","[]","[]","[]","","","","","",""
"","","","","","","","","","","","canvas-keyboard-response","195","430327","0.0-195.0","null","null","","","","","","","","","","","","","","fixation","","","2","1","","","","","","","","","",""
"","","","","","","","","","","","canvas-keyboard-response","196","430630","0.0-196.0","null","null","","","","","","","","","","","","","","stimulus","","","2","1","","","","","","","","","",""
"","","","","","","","","","","","canvas-button-response","197","432487","0.0-197.0","1854","house","","","","","","","","","","","","","","perceptual","","","2","1","","","","","13","house","6","0","1",""
"","","","","","","","","","","","canvas-button-response","198","434110","0.0-198.0","1620","7","","","","","","","","","","","","","","confidence","","","2","1","","","","","","","","","","2"
"","","","","","","","","","","","preload","199","434111","0.0-199.0","","","","","true","","","","","","","","","","","preload","","","2","2","false","[]","[]","[]","","","","","",""
"","","","","","","","","","","","canvas-keyboard-response","200","434414","0.0-200.0","null","null","","","","","","","","","","","","","","fixation","","","2","2","","","","","","","","","",""
"","","","","","","","","","","","canvas-keyboard-response","201","434717","0.0-201.0","null","null","","","","","","","","","","","","","","stimulus","","","2","2","","","","","","","","","",""
"","","","","","","","","","","","canvas-button-response","202","440690","0.0-202.0","5971","car","","","","","","","","","","","","","","perceptual","","","2","2","","","","","112","phone","10","0","0",""
"","","","","","","","","","","","canvas-button-response","203","441736","0.0-203.0","1043","6","","","","","","","","","","","","","","confidence","","","2","2","","","","","","","","","","2"
"","","","","","","","","","","","preload","204","441737","0.0-204.0","","","","","true","","","","","","","","","","","preload","","","2","3","false","[]","[]","[]","","","","","",""
"","","","","","","","","","","","canvas-keyboard-response","205","442040","0.0-205.0","null","null","","","","","","","","","","","","","","fixation","","","2","3","","","","","","","","","",""
"","","","","","","","","","","","canvas-keyboard-response","206","442343","0.0-206.0","null","null","","","","","","","","","","","","","","stimulus","","","2","3","","","","","","","","","",""
"","","","","","","","","","","","canvas-button-response","207","445501","0.0-207.0","3155","flower","","","","","","","","","","","","","","perceptual","","","2","3","","","","","212","flower","6","0","1",""
"","","","","","","","","","","","canvas-button-response","208","446889","0.0-208.0","1385","8","","","","","","","","","","","","","","confidence","","","2","3","","","","","","","","","","3"
"","","","","","","","","","","","preload","209","446890","0.0-209.0","","","","","true","","","","","","","","","","","preload","","","2","4","false","[]","[]","[]","","","","","",""
"","","","","","","","","","","","canvas-keyboard-response","210","447194","0.0-210.0","null","null","","","","","","","","","","","","","","fixation","","","2","4","","","","","","","","","",""
"","","","","","","","","","","","canvas-keyboard-response","211","447496","0.0-211.0","null","null","","","","","","","","","","","","","","stimulus","","","2","4","","","","","","","","","",""
"","","","","","","","","","","","canvas-button-response","212","452034","0.0-212.0","4535","phone","","","","","","","","","","","","","","perceptual","","","2","4","","","","","305","cat","10","0","0",""
"","","","","","","","","","","","canvas-button-response","213","452757","0.0-213.0","720","7","","","","","","","","","","","","","","confidence","","","2","4","","","","","","","","","","3"
"","","","","","","","","","","","preload","214","452758","0.0-214.0","","","","","true","","","","","","","","","","","preload","","","2","5","false","[]","[]","[]","","","","","",""
"","","","","","","","","","","","canvas-keyboard-response","215","453060","0.0-215.0","null","null","","","","","","","","","","","","","","fixation","","","2","5","","","","","","","","","",""
"","","","","","","","","","","","canvas-keyboard-response","216","453362","0.0-216.0","null","null","","","","","","","","","","","","","","stimulus","","","2","5","","","","","","","","","",""
"","","","","","","","","","","","canvas-button-response","217","455581","0.0-217.0","2217","train","","","","","","","","","","","","","","perceptual","","","2","5","","","","","271","train","10","0","1",""
"","","","","","","","","","","","canvas-button-response","218","456194","0.0-218.0","610","9","","","","","","","","","","","","","","confidence","","","2","5","","","","","","","","","","4"
"","","","","","","","","","","","preload","219","456195","0.0-219.0","","","","","true","","","","","","","","","","","preload","","","2","6","false","[]","[]","[]","","","","","",""
"","","","","","","","","","","","canvas-keyboard-response","220","456496","0.0-220.0","null","null","","","","","","","","","","","","","","fixation","","","2","6","","","","","","","","","",""
"","","","","","","","","","","","canvas-keyboard-response","221","456799","0.0-221.0","null","null","","","","","","","","","","","","","","stimulus","","","2","6","","","","","","","","","",""
"","","","","","","","","","","","canvas-button-response","222","457897","0.0-222.0","1096","car","","","","","","","","","","","","","","perceptual","","","2","6","","","","","66","car","10","0","1",""
"","","","","","","","","","","","canvas-button-response","223","458976","0.0-223.0","1076","10","","","","","","","","","","","","","","confidence","","","2","6","","","","","","","","","","5"
"","","","","","","","","","","","preload","224","458977","0.0-224.0","","","","","true","","","","","","","","","","","preload","","","2","7","false","[]","[]","[]","","","","","",""
"","","","","","","","","","","","canvas-keyboard-response","225","459279","0.0-225.0","null","null","","","","","","","","","","","","","","fixation","","","2","7","","","","","","","","","",""
"","","","","","","","","","","","canvas-keyboard-response","226","459582","0.0-226.0","null","null","","","","","","","","","","","","","","stimulus","","","2","7","","","","","","","","","",""
"","","","","","","","","","","","canvas-button-response","227","460573","0.0-227.0","989","car","","","","","","","","","","","","","","perceptual","","","2","7","","","","","74","car","10","0","1",""
"","","","","","","","","","","","canvas-button-response","228","461468","0.0-228.0","892","10","","","","","","","","","","","","","","confidence","","","2","7","","","","","","","","","","6"
"","","","","","","","","","","","preload","229","461469","0.0-229.0","","","","","true","","","","","","","","","","","preload","","","2","8","false","[]","[]","[]","","","","","",""
"","","","","","","","","","","","canvas-keyboard-response","230","461770","0.0-230.0","null","null","","","","","","","","","","","","","","fixation","","","2","8","","","","","","","","","",""
"","","","","","","","","","","","canvas-keyboard-response","231","462073","0.0-231.0","null","null","","","","","","","","","","","","","","stimulus","","","2","8","","","","","","","","","",""
"","","","","","","","","","","","canvas-button-response","232","465231","0.0-232.0","3155","bridge","","","","","","","","","","","","","","perceptual","","","2","8","","","","","83","phone","6","0","0",""
"","","","","","","","","","","","canvas-button-response","233","466132","0.0-233.0","898","5","","","","","","","","","","","","","","confidence","","","2","8","","","","","","","","","","6"
"","","","","","","","","","","","preload","234","466133","0.0-234.0","","","","","true","","","","","","","","","","","preload","","","2","9","false","[]","[]","[]","","","","","",""
"","","","","","","","","","","","canvas-keyboard-response","235","466436","0.0-235.0","null","null","","","","","","","","","","","","","","fixation","","","2","9","","","","","","","","","",""
"","","","","","","","","","","","canvas-keyboard-response","236","466739","0.0-236.0","null","null","","","","","","","","","","","","","","stimulus","","","2","9","","","","","","","","","",""
"","","","","","","","","","","","canvas-button-response","237","470676","0.0-237.0","3934","bed","","","","","","","","","","","","","","perceptual","","","2","9","","","","","218","flower","6","0","0",""
"","","","","","","","","","","","canvas-button-response","238","471563","0.0-238.0","884","7","","","","","","","","","","","","","","confidence","","","2","9","","","","","","","","","","6"
"","","","","","","","","","","","preload","239","471564","0.0-239.0","","","","","true","","","","","","","","","","","preload","","","2","10","false","[]","[]","[]","","","","","",""
"","","","","","","","","","","","canvas-keyboard-response","240","471866","0.0-240.0","null","null","","","","","","","","","","","","","","fixation","","","2","10","","","","","","","","","",""
"","","","","","","","","","","","canvas-keyboard-response","241","472168","0.0-241.0","null","null","","","","","","","","","","","","","","stimulus","","","2","10","","","","","","","","","",""
"","","","","","","","","","","","canvas-button-response","242","481115","0.0-242.0","8943","flower","","","","","","","","","","","","","","perceptual","","","2","10","","","","","9","house","6","0","0",""
"","","","","","","","","","","","canvas-button-response","243","482206","0.0-243.0","1088","9","","","","","","","","","","","","","","confidence","","","2","10","","","","","","","","","","6"
"","","","","","","","","","","","preload","244","482207","0.0-244.0","","","","","true","","","","","","","","","","","preload","","","2","11","false","[]","[]","[]","","","","","",""
"","","","","","","","","","","","canvas-keyboard-response","245","482508","0.0-245.0","null","null","","","","","","","","","","","","","","fixation","","","2","11","","","","","","","","","",""
"","","","","","","","","","","","canvas-keyboard-response","246","482811","0.0-246.0","null","null","","","","","","","","","","","","","","stimulus","","","2","11","","","","","","","","","",""
"","","","","","","","","","","","canvas-button-response","247","484154","0.0-247.0","1340","car","","","","","","","","","","","","","","perceptual","","","2","11","","","","","65","car","10","0","1",""
"","","","","","","","","","","","canvas-button-response","248","484939","0.0-248.0","782","10","","","","","","","","","","","","","","confidence","","","2","11","","","","","","","","","","7"
"","","","","","","","","","","","preload","249","484940","0.0-249.0","","","","","true","","","","","","","","","","","preload","","","2","12","false","[]","[]","[]","","","","","",""
"","","","","","","","","","","","canvas-keyboard-response","250","485243","0.0-250.0","null","null","","","","","","","","","","","","","","fixation","","","2","12","","","","","","","","","",""
"","","","","","","","","","","","canvas-keyboard-response","251","485546","0.0-251.0","null","null","","","","","","","","","","","","","","stimulus","","","2","12","","","","","","","","","",""
"","","","","","","","","","","","canvas-button-response","252","487768","0.0-252.0","2221","house","","","","","","","","","","","","","","perceptual","","","2","12","","","","","233","flower","10","0","0",""
"","","","","","","","","","","","canvas-button-response","253","489859","0.0-253.0","2088","6","","","","","","","","","","","","","","confidence","","","2","12","","","","","","","","","","7"
"","","","","","","","","","","","preload","254","489861","0.0-254.0","","","","","true","","","","","","","","","","","preload","","","2","13","false","[]","[]","[]","","","","","",""
"","","","","","","","","","","","canvas-keyboard-response","255","490163","0.0-255.0","null","null","","","","","","","","","","","","","","fixation","","","2","13","","","","","","","","","",""
"","","","","","","","","","","","canvas-keyboard-response","256","490465","0.0-256.0","null","null","","","","","","","","","","","","","","stimulus","","","2","13","","","","","","","","","",""
"","","","","","","","","","","","canvas-button-response","257","492226","0.0-257.0","1758","train","","","","","","","","","","","","","","perceptual","","","2","13","","","","","343","elephant","10","0","0",""
"","","","","","","","","","","","canvas-button-response","258","493087","0.0-258.0","858","7","","","","","","","","","","","","","","confidence","","","2","13","","","","","","","","","","7"
"","","","","","","","","","","","preload","259","493088","0.0-259.0","","","","","true","","","","","","","","","","","preload","","","2","14","false","[]","[]","[]","","","","","",""
"","","","","","","","","","","","canvas-keyboard-response","260","493391","0.0-260.0","null","null","","","","","","","","","","","","","","fixation","","","2","14","","","","","","","","","",""
"","","","","","","","","","","","canvas-keyboard-response","261","493694","0.0-261.0","null","null","","","","","","","","","","","","","","stimulus","","","2","14","","","","","","","","","",""
"","","","","","","","","","","","canvas-button-response","262","497304","0.0-262.0","3607","bridge","","","","","","","","","","","","","","perceptual","","","2","14","","","","","377","knife","6","0","0",""
"","","","","","","","","","","","canvas-button-response","263","498539","0.0-263.0","1232","3","","","","","","","","","","","","","","confidence","","","2","14","","","","","","","","","","7"
"","","","","","","","","","","","preload","264","498539","0.0-264.0","","","","","true","","","","","","","","","","","preload","","","2","15","false","[]","[]","[]","","","","","",""
"","","","","","","","","","","","canvas-keyboard-response","265","498841","0.0-265.0","null","null","","","","","","","","","","","","","","fixation","","","2","15","","","","","","","","","",""
"","","","","","","","","","","","canvas-keyboard-response","266","499144","0.0-266.0","null","null","","","","","","","","","","","","","","stimulus","","","2","15","","","","","","","","","",""
"","","","","","","","","","","","canvas-button-response","267","500204","0.0-267.0","1057","car","","","","","","","","","","","","","","perceptual","","","2","15","","","","","59","car","6","0","1",""
"","","","","","","","","","","","canvas-button-response","268","501445","0.0-268.0","1238","9","","","","","","","","","","","","","","confidence","","","2","15","","","","","","","","","","8"
"","","","","","","","","","","","preload","269","501446","0.0-269.0","","","","","true","","","","","","","","","","","preload","","","2","16","false","[]","[]","[]","","","","","",""
"","","","","","","","","","","","canvas-keyboard-response","270","501748","0.0-270.0","null","null","","","","","","","","","","","","","","fixation","","","2","16","","","","","","","","","",""
"","","","","","","","","","","","canvas-keyboard-response","271","502051","0.0-271.0","null","null","","","","","","","","","","","","","","stimulus","","","2","16","","","","","","","","","",""
"","","","","","","","","","","","canvas-button-response","272","506840","0.0-272.0","4787","bed","","","","","","","","","","","","","","perceptual","","","2","16","","","","","332","elephant","6","0","0",""
"","","","","","","","","","","","canvas-button-response","273","507775","0.0-273.0","932","7","","","","","","","","","","","","","","confidence","","","2","16","","","","","","","","","","8"
"","","","","","","","","","","","preload","274","507776","0.0-274.0","","","","","true","","","","","","","","","","","preload","","","2","17","false","[]","[]","[]","","","","","",""
"","","","","","","","","","","","canvas-keyboard-response","275","508079","0.0-275.0","null","null","","","","","","","","","","","","","","fixation","","","2","17","","","","","","","","","",""
"","","","","","","","","","","","canvas-keyboard-response","276","508382","0.0-276.0","null","null","","","","","","","","","","","","","","stimulus","","","2","17","","","","","","","","","",""
"","","","","","","","","","","","canvas-button-response","277","509593","0.0-277.0","1209","flower","","","","","","","","","","","","","","perceptual","","","2","17","","","","","236","flower","10","0","1",""
"","","","","","","","","","","","canvas-button-response","278","510309","0.0-278.0","713","10","","","","","","","","","","","","","","confidence","","","2","17","","","","","","","","","","9"
"","","","","","","","","","","","preload","279","510310","0.0-279.0","","","","","true","","","","","","","","","","","preload","","","2","18","false","[]","[]","[]","","","","","",""
"","","","","","","","","","","","canvas-keyboard-response","280","510612","0.0-280.0","null","null","","","","","","","","","","","","","","fixation","","","2","18","","","","","","","","","",""
"","","","","","","","","","","","canvas-keyboard-response","281","510915","0.0-281.0","null","null","","","","","","","","","","","","","","stimulus","","","2","18","","","","","","","","","",""
"","","","","","","","","","","","canvas-button-response","282","513930","0.0-282.0","3012","cat","","","","","","","","","","","","","","perceptual","","","2","18","","","","","314","cat","10","0","1",""
"","","","","","","","","","","","canvas-button-response","283","514727","0.0-283.0","794","9","","","","","","","","","","","","","","confidence","","","2","18","","","","","","","","","","10"
"","","","","","","","","","","","preload","284","514728","0.0-284.0","","","","","true","","","","","","","","","","","preload","","","2","19","false","[]","[]","[]","","","","","",""
"","","","","","","","","","","","canvas-keyboard-response","285","515031","0.0-285.0","null","null","","","","","","","","","","","","","","fixation","","","2","19","","","","","","","","","",""
"","","","","","","","","","","","canvas-keyboard-response","286","515334","0.0-286.0","null","null","","","","","","","","","","","","","","stimulus","","","2","19","","","","","","","","","",""
"","","","","","","","","","","","canvas-button-response","287","517646","0.0-287.0","2310","cat","","","","","","","","","","","","","","perceptual","","","2","19","","","","","295","cat","6","0","1",""
"","","","","","","","","","","","canvas-button-response","288","518513","0.0-288.0","864","10","","","","","","","","","","","","","","confidence","","","2","19","","","","","","","","","","11"
"","","","","","","","","","","","preload","289","518514","0.0-289.0","","","","","true","","","","","","","","","","","preload","","","2","20","false","[]","[]","[]","","","","","",""
"","","","","","","","","","","","canvas-keyboard-response","290","518817","0.0-290.0","null","null","","","","","","","","","","","","","","fixation","","","2","20","","","","","","","","","",""
"","","","","","","","","","","","canvas-keyboard-response","291","519119","0.0-291.0","null","null","","","","","","","","","","","","","","stimulus","","","2","20","","","","","","","","","",""
"","","","","","","","","","","","canvas-button-response","292","522495","0.0-292.0","3373","house","","","","","","","","","","","","","","perceptual","","","2","20","","","","","140","bed","10","0","0",""
"","","","","","","","","","","","canvas-button-response","293","523466","0.0-293.0","968","8","","","","","","","","","","","","","","confidence","","","2","20","","","","","","","","","","11"
"","","","","","","","","","","","preload","294","523467","0.0-294.0","","","","","true","","","","","","","","","","","preload","","","2","21","false","[]","[]","[]","","","","","",""
"","","","","","","","","","","","canvas-keyboard-response","295","523769","0.0-295.0","null","null","","","","","","","","","","","","","","fixation","","","2","21","","","","","","","","","",""
"","","","","","","","","","","","canvas-keyboard-response","296","524073","0.0-296.0","null","null","","","","","","","","","","","","","","stimulus","","","2","21","","","","","","","","","",""
"","","","","","","","","","","","canvas-button-response","297","525085","0.0-297.0","1009","car","","","","","","","","","","","","","","perceptual","","","2","21","","","","","191","bridge","10","0","0",""
"","","","","","","","","","","","canvas-button-response","298","525787","0.0-298.0","700","9","","","","","","","","","","","","","","confidence","","","2","21","","","","","","","","","","11"
"","","","","","","","","","","","preload","299","525788","0.0-299.0","","","","","true","","","","","","","","","","","preload","","","2","22","false","[]","[]","[]","","","","","",""
"","","","","","","","","","","","canvas-keyboard-response","300","526090","0.0-300.0","null","null","","","","","","","","","","","","","","fixation","","","2","22","","","","","","","","","",""
"","","","","","","","","","","","canvas-keyboard-response","301","526393","0.0-301.0","null","null","","","","","","","","","","","","","","stimulus","","","2","22","","","","","","","","","",""
"","","","","","","","","","","","canvas-button-response","302","527366","0.0-302.0","971","flower","","","","","","","","","","","","","","perceptual","","","2","22","","","","","232","flower","10","0","1",""
"","","","","","","","","","","","canvas-button-response","303","528130","0.0-303.0","761","10","","","","","","","","","","","","","","confidence","","","2","22","","","","","","","","","","12"
"","","","","","","","","","","","preload","304","528131","0.0-304.0","","","","","true","","","","","","","","","","","preload","","","2","23","false","[]","[]","[]","","","","","",""
"","","","","","","","","","","","canvas-keyboard-response","305","528433","0.0-305.0","null","null","","","","","","","","","","","","","","fixation","","","2","23","","","","","","","","","",""
"","","","","","","","","","","","canvas-keyboard-response","306","528736","0.0-306.0","null","null","","","","","","","","","","","","","","stimulus","","","2","23","","","","","","","","","",""
"","","","","","","","","","","","canvas-button-response","307","531530","0.0-307.0","2791","house","","","","","","","","","","","","","","perceptual","","","2","23","","","","","139","bed","6","0","0",""
"","","","","","","","","","","","canvas-button-response","308","532896","0.0-308.0","1364","3","","","","","","","","","","","","","","confidence","","","2","23","","","","","","","","","","12"
"","","","","","","","","","","","preload","309","532897","0.0-309.0","","","","","true","","","","","","","","","","","preload","","","2","24","false","[]","[]","[]","","","","","",""
"","","","","","","","","","","","canvas-keyboard-response","310","533200","0.0-310.0","null","null","","","","","","","","","","","","","","fixation","","","2","24","","","","","","","","","",""
"","","","","","","","","","","","canvas-keyboard-response","311","533502","0.0-311.0","null","null","","","","","","","","","","","","","","stimulus","","","2","24","","","","","","","","","",""
"","","","","","","","","","","","canvas-button-response","312","534693","0.0-312.0","1188","train","","","","","","","","","","","","","","perceptual","","","2","24","","","","","255","train","6","0","1",""
"","","","","","","","","","","","canvas-button-response","313","535332","0.0-313.0","636","10","","","","","","","","","","","","","","confidence","","","2","24","","","","","","","","","","13"
"","","","","","","","","","","","preload","314","535333","0.0-314.0","","","","","true","","","","","","","","","","","preload","","","2","25","false","[]","[]","[]","","","","","",""
"","","","","","","","","","","","canvas-keyboard-response","315","535635","0.0-315.0","null","null","","","","","","","","","","","","","","fixation","","","2","25","","","","","","","","","",""
"","","","","","","","","","","","canvas-keyboard-response","316","535938","0.0-316.0","null","null","","","","","","","","","","","","","","stimulus","","","2","25","","","","","","","","","",""
"","","","","","","","","","","","canvas-button-response","317","536902","0.0-317.0","962","elephant","","","","","","","","","","","","","","perceptual","","","2","25","","","","","339","elephant","6","0","1",""
"","","","","","","","","","","","canvas-button-response","318","537560","0.0-318.0","655","10","","","","","","","","","","","","","","confidence","","","2","25","","","","","","","","","","14"
"","","","","","","","","","","","preload","319","537561","0.0-319.0","","","","","true","","","","","","","","","","","preload","","","2","26","false","[]","[]","[]","","","","","",""
"","","","","","","","","","","","canvas-keyboard-response","320","537863","0.0-320.0","null","null","","","","","","","","","","","","","","fixation","","","2","26","","","","","","","","","",""
"","","","","","","","","","","","canvas-keyboard-response","321","538166","0.0-321.0","null","null","","","","","","","","","","","","","","stimulus","","","2","26","","","","","","","","","",""
"","","","","","","","","","","","canvas-button-response","322","540096","0.0-322.0","1927","car","","","","","","","","","","","","","","perceptual","","","2","26","","","","","92","phone","6","0","0",""
"","","","","","","","","","","","canvas-button-response","323","540944","0.0-323.0","845","9","","","","","","","","","","","","","","confidence","","","2","26","","","","","","","","","","14"
"","","","","","","","","","","","preload","324","540945","0.0-324.0","","","","","true","","","","","","","","","","","preload","","","2","27","false","[]","[]","[]","","","","","",""
"","","","","","","","","","","","canvas-keyboard-response","325","541248","0.0-325.0","null","null","","","","","","","","","","","","","","fixation","","","2","27","","","","","","","","","",""
"","","","","","","","","","","","canvas-keyboard-response","326","541551","0.0-326.0","null","null","","","","","","","","","","","","","","stimulus","","","2","27","","","","","","","","","",""
"","","","","","","","","","","","canvas-button-response","327","543026","0.0-327.0","1472","cat","","","","","","","","","","","","","","perceptual","","","2","27","","","","","328","elephant","6","0","0",""
"","","","","","","","","","","","canvas-button-response","328","543703","0.0-328.0","674","9","","","","","","","","","","","","","","confidence","","","2","27","","","","","","","","","","14"
"","","","","","","","","","","","preload","329","543704","0.0-329.0","","","","","true","","","","","","","","","","","preload","","","2","28","false","[]","[]","[]","","","","","",""
"","","","","","","","","","","","canvas-keyboard-response","330","544006","0.0-330.0","null","null","","","","","","","","","","","","","","fixation","","","2","28","","","","","","","","","",""
"","","","","","","","","","","","canvas-keyboard-response","331","544308","0.0-331.0","null","null","","","","","","","","","","","","","","stimulus","","","2","28","","","","","","","","","",""
"","","","","","","","","","","","canvas-button-response","332","545234","0.0-332.0","924","elephant","","","","","","","","","","","","","","perceptual","","","2","28","","","","","338","elephant","6","0","1",""
"","","","","","","","","","","","canvas-button-response","333","546044","0.0-333.0","807","10","","","","","","","","","","","","","","confidence","","","2","28","","","","","","","","","","15"
"","","","","","","","","","","","preload","334","546045","0.0-334.0","","","","","true","","","","","","","","","","","preload","","","2","29","false","[]","[]","[]","","","","","",""
"","","","","","","","","","","","canvas-keyboard-response","335","546347","0.0-335.0","null","null","","","","","","","","","","","","","","fixation","","","2","29","","","","","","","","","",""
"","","","","","","","","","","","canvas-keyboard-response","336","546651","0.0-336.0","null","null","","","","","","","","","","","","","","stimulus","","","2","29","","","","","","","","","",""
"","","","","","","","","","","","canvas-button-response","337","547757","0.0-337.0","1103","train","","","","","","","","","","","","","","perceptual","","","2","29","","","","","248","train","6","0","1",""
"","","","","","","","","","","","canvas-button-response","338","548419","0.0-338.0","659","10","","","","","","","","","","","","","","confidence","","","2","29","","","","","","","","","","16"
"","","","","","","","","","","","preload","339","548420","0.0-339.0","","","","","true","","","","","","","","","","","preload","","","2","30","false","[]","[]","[]","","","","","",""
"","","","","","","","","","","","canvas-keyboard-response","340","548722","0.0-340.0","null","null","","","","","","","","","","","","","","fixation","","","2","30","","","","","","","","","",""
"","","","","","","","","","","","canvas-keyboard-response","341","549025","0.0-341.0","null","null","","","","","","","","","","","","","","stimulus","","","2","30","","","","","","","","","",""
"","","","","","","","","","","","canvas-button-response","342","549887","0.0-342.0","859","train","","","","","","","","","","","","","","perceptual","","","2","30","","","","","252","train","6","0","1",""
"","","","","","","","","","","","canvas-button-response","343","550444","0.0-343.0","554","10","","","","","","","","","","","","","","confidence","","","2","30","","","","","","","","","","17"
"","","","","","","","","","","","preload","344","550445","0.0-344.0","","","","","true","","","","","","","","","","","preload","","","2","31","false","[]","[]","[]","","","","","",""
"","","","","","","","","","","","canvas-keyboard-response","345","550748","0.0-345.0","null","null","","","","","","","","","","","","","","fixation","","","2","31","","","","","","","","","",""
"","","","","","","","","","","","canvas-keyboard-response","346","551050","0.0-346.0","null","null","","","","","","","","","","","","","","stimulus","","","2","31","","","","","","","","","",""
"","","","","","","","","","","","canvas-button-response","347","552320","0.0-347.0","1267","flower","","","","","","","","","","","","","","perceptual","","","2","31","","","","","224","flower","10","0","1",""
"","","","","","","","","","","","canvas-button-response","348","553162","0.0-348.0","839","7","","","","","","","","","","","","","","confidence","","","2","31","","","","","","","","","","18"
"","","","","","","","","","","","preload","349","553163","0.0-349.0","","","","","true","","","","","","","","","","","preload","","","2","32","false","[]","[]","[]","","","","","",""
"","","","","","","","","","","","canvas-keyboard-response","350","553465","0.0-350.0","null","null","","","","","","","","","","","","","","fixation","","","2","32","","","","","","","","","",""
"","","","","","","","","","","","canvas-keyboard-response","351","553769","0.0-351.0","null","null","","","","","","","","","","","","","","stimulus","","","2","32","","","","","","","","","",""
"","","","","","","","","","","","canvas-button-response","352","555516","0.0-352.0","1744","bed","","","","","","","","","","","","","","perceptual","","","2","32","","","","","155","bed","10","0","1",""
"","","","","","","","","","","","canvas-button-response","353","556200","0.0-353.0","681","5","","","","","","","","","","","","","","confidence","","","2","32","","","","","","","","","","19"
"","","","","","","","","","","","preload","354","556201","0.0-354.0","","","","","true","","","","","","","","","","","preload","","","2","33","false","[]","[]","[]","","","","","",""
"","","","","","","","","","","","canvas-keyboard-response","355","556503","0.0-355.0","null","null","","","","","","","","","","","","","","fixation","","","2","33","","","","","","","","","",""
"","","","","","","","","","","","canvas-keyboard-response","356","556807","0.0-356.0","null","null","","","","","","","","","","","","","","stimulus","","","2","33","","","","","","","","","",""
"","","","","","","","","","","","canvas-button-response","357","558148","0.0-357.0","1338","house","","","","","","","","","","","","","","perceptual","","","2","33","","","","","12","house","6","0","1",""
"","","","","","","","","","","","canvas-button-response","358","559318","0.0-358.0","1167","5","","","","","","","","","","","","","","confidence","","","2","33","","","","","","","","","","20"
"","","","","","","","","","","","preload","359","559319","0.0-359.0","","","","","true","","","","","","","","","","","preload","","","2","34","false","[]","[]","[]","","","","","",""
"","","","","","","","","","","","canvas-keyboard-response","360","559622","0.0-360.0","null","null","","","","","","","","","","","","","","fixation","","","2","34","","","","","","","","","",""
"","","","","","","","","","","","canvas-keyboard-response","361","559924","0.0-361.0","null","null","","","","","","","","","","","","","","stimulus","","","2","34","","","","","","","","","",""
"","","","","","","","","","","","canvas-button-response","362","561787","0.0-362.0","1860","phone","","","","","","","","","","","","","","perceptual","","","2","34","","","","","196","bridge","10","0","0",""
"","","","","","","","","","","","canvas-button-response","363","562641","0.0-363.0","851","5","","","","","","","","","","","","","","confidence","","","2","34","","","","","","","","","","20"
"","","","","","","","","","","","preload","364","562642","0.0-364.0","","","","","true","","","","","","","","","","","preload","","","2","35","false","[]","[]","[]","","","","","",""
"","","","","","","","","","","","canvas-keyboard-response","365","562945","0.0-365.0","null","null","","","","","","","","","","","","","","fixation","","","2","35","","","","","","","","","",""
"","","","","","","","","","","","canvas-keyboard-response","366","563249","0.0-366.0","null","null","","","","","","","","","","","","","","stimulus","","","2","35","","","","","","","","","",""
"","","","","","","","","","","","canvas-button-response","367","564462","0.0-367.0","1210","train","","","","","","","","","","","","","","perceptual","","","2","35","","","","","28","house","10","0","0",""
"","","","","","","","","","","","canvas-button-response","368","565252","0.0-368.0","787","6","","","","","","","","","","","","","","confidence","","","2","35","","","","","","","","","","20"
"","","","","","","","","","","","preload","369","565254","0.0-369.0","","","","","true","","","","","","","","","","","preload","","","2","36","false","[]","[]","[]","","","","","",""
"","","","","","","","","","","","canvas-keyboard-response","370","565557","0.0-370.0","null","null","","","","","","","","","","","","","","fixation","","","2","36","","","","","","","","","",""
"","","","","","","","","","","","canvas-keyboard-response","371","565859","0.0-371.0","null","null","","","","","","","","","","","","","","stimulus","","","2","36","","","","","","","","","",""
"","","","","","","","","","","","canvas-button-response","372","567666","0.0-372.0","1804","bridge","","","","","","","","","","","","","","perceptual","","","2","36","","","","","161","bridge","6","0","1",""
"","","","","","","","","","","","canvas-button-response","373","568256","0.0-373.0","587","6","","","","","","","","","","","","","","confidence","","","2","36","","","","","","","","","","21"
"","","","","","","","","","","","preload","374","568257","0.0-374.0","","","","","true","","","","","","","","","","","preload","","","2","37","false","[]","[]","[]","","","","","",""
"","","","","","","","","","","","canvas-keyboard-response","375","568560","0.0-375.0","null","null","","","","","","","","","","","","","","fixation","","","2","37","","","","","","","","","",""
"","","","","","","","","","","","canvas-keyboard-response","376","568863","0.0-376.0","null","null","","","","","","","","","","","","","","stimulus","","","2","37","","","","","","","","","",""
"","","","","","","","","","","","canvas-button-response","377","569994","0.0-377.0","1128","bridge","","","","","","","","","","","","","","perceptual","","","2","37","","","","","162","bridge","6","0","1",""
"","","","","","","","","","","","canvas-button-response","378","570542","0.0-378.0","545","6","","","","","","","","","","","","","","confidence","","","2","37","","","","","","","","","","22"
"","","","","","","","","","","","preload","379","570543","0.0-379.0","","","","","true","","","","","","","","","","","preload","","","2","38","false","[]","[]","[]","","","","","",""
"","","","","","","","","","","","canvas-keyboard-response","380","570846","0.0-380.0","null","null","","","","","","","","","","","","","","fixation","","","2","38","","","","","","","","","",""
"","","","","","","","","","","","canvas-keyboard-response","381","571149","0.0-381.0","null","null","","","","","","","","","","","","","","stimulus","","","2","38","","","","","","","","","",""
"","","","","","","","","","","","canvas-button-response","382","572212","0.0-382.0","1060","knife","","","","","","","","","","","","","","perceptual","","","2","38","","","","","381","knife","10","0","1",""
"","","","","","","","","","","","canvas-button-response","383","573173","0.0-383.0","960","4","","","","","","","","","","","","","","confidence","","","2","38","","","","","","","","","","23"
"","","","","","","","","","","","preload","384","573174","0.0-384.0","","","","","true","","","","","","","","","","","preload","","","2","39","false","[]","[]","[]","","","","","",""
"","","","","","","","","","","","canvas-keyboard-response","385","573477","0.0-385.0","null","null","","","","","","","","","","","","","","fixation","","","2","39","","","","","","","","","",""
"","","","","","","","","","","","canvas-keyboard-response","386","573780","0.0-386.0","null","null","","","","","","","","","","","","","","stimulus","","","2","39","","","","","","","","","",""
"","","","","","","","","","","","canvas-button-response","387","575656","0.0-387.0","1874","elephant","","","","","","","","","","","","","","perceptual","","","2","39","","","","","354","elephant","10","0","1",""
"","","","","","","","","","","","canvas-button-response","388","576772","0.0-388.0","1114","7","","","","","","","","","","","","","","confidence","","","2","39","","","","","","","","","","24"
"","","","","","","","","","","","preload","389","576774","0.0-389.0","","","","","true","","","","","","","","","","","preload","","","2","40","false","[]","[]","[]","","","","","",""
"","","","","","","","","","","","canvas-keyboard-response","390","577076","0.0-390.0","null","null","","","","","","","","","","","","","","fixation","","","2","40","","","","","","","","","",""
"","","","","","","","","","","","canvas-keyboard-response","391","577379","0.0-391.0","null","null","","","","","","","","","","","","","","stimulus","","","2","40","","","","","","","","","",""
"","","","","","","","","","","","canvas-button-response","392","578290","0.0-392.0","908","knife","","","","","","","","","","","","","","perceptual","","","2","40","","","","","375","knife","6","0","1",""
"","","","","","","","","","","","canvas-button-response","393","579111","0.0-393.0","818","9","","","","","","","","","","","","","","confidence","","","2","40","","","","","","","","","","25"
"","","","","","","","","","","","preload","394","579112","0.0-394.0","","","","","true","","","","","","","","","","","preload","","","2","41","false","[]","[]","[]","","","","","",""
"","","","","","","","","","","","canvas-keyboard-response","395","579414","0.0-395.0","null","null","","","","","","","","","","","","","","fixation","","","2","41","","","","","","","","","",""
"","","","","","","","","","","","canvas-keyboard-response","396","579717","0.0-396.0","null","null","","","","","","","","","","","","","","stimulus","","","2","41","","","","","","","","","",""
"","","","","","","","","","","","canvas-button-response","397","580685","0.0-397.0","965","car","","","","","","","","","","","","","","perceptual","","","2","41","","","","","42","car","6","0","1",""
"","","","","","","","","","","","canvas-button-response","398","581438","0.0-398.0","750","9","","","","","","","","","","","","","","confidence","","","2","41","","","","","","","","","","26"
"","","","","","","","","","","","preload","399","581439","0.0-399.0","","","","","true","","","","","","","","","","","preload","","","2","42","false","[]","[]","[]","","","","","",""
"","","","","","","","","","","","canvas-keyboard-response","400","581741","0.0-400.0","null","null","","","","","","","","","","","","","","fixation","","","2","42","","","","","","","","","",""
"","","","","","","","","","","","canvas-keyboard-response","401","582044","0.0-401.0","null","null","","","","","","","","","","","","","","stimulus","","","2","42","","","","","","","","","",""
"","","","","","","","","","","","canvas-button-response","402","583401","0.0-402.0","1354","bridge","","","","","","","","","","","","","","perceptual","","","2","42","","","","","181","bridge","10","0","1",""
"","","","","","","","","","","","canvas-button-response","403","584307","0.0-403.0","904","3","","","","","","","","","","","","","","confidence","","","2","42","","","","","","","","","","27"
"","","","","","","","","","","","preload","404","584308","0.0-404.0","","","","","true","","","","","","","","","","","preload","","","2","43","false","[]","[]","[]","","","","","",""
"","","","","","","","","","","","canvas-keyboard-response","405","584610","0.0-405.0","null","null","","","","","","","","","","","","","","fixation","","","2","43","","","","","","","","","",""
"","","","","","","","","","","","canvas-keyboard-response","406","584914","0.0-406.0","null","null","","","","","","","","","","","","","","stimulus","","","2","43","","","","","","","","","",""
"","","","","","","","","","","","canvas-button-response","407","587247","0.0-407.0","2331","phone","","","","","","","","","","","","","","perceptual","","","2","43","","","","","118","phone","10","0","1",""
"","","","","","","","","","","","canvas-button-response","408","588322","0.0-408.0","1072","3","","","","","","","","","","","","","","confidence","","","2","43","","","","","","","","","","28"
"","","","","","","","","","","","preload","409","588323","0.0-409.0","","","","","true","","","","","","","","","","","preload","","","2","44","false","[]","[]","[]","","","","","",""
"","","","","","","","","","","","canvas-keyboard-response","410","588626","0.0-410.0","null","null","","","","","","","","","","","","","","fixation","","","2","44","","","","","","","","","",""
"","","","","","","","","","","","canvas-keyboard-response","411","588929","0.0-411.0","null","null","","","","","","","","","","","","","","stimulus","","","2","44","","","","","","","","","",""
"","","","","","","","","","","","canvas-button-response","412","590140","0.0-412.0","1207","car","","","","","","","","","","","","","","perceptual","","","2","44","","","","","270","train","10","0","0",""
"","","","","","","","","","","","canvas-button-response","413","591046","0.0-413.0","904","2","","","","","","","","","","","","","","confidence","","","2","44","","","","","","","","","","28"
"","","","","","","","","","","","preload","414","591047","0.0-414.0","","","","","true","","","","","","","","","","","preload","","","2","45","false","[]","[]","[]","","","","","",""
"","","","","","","","","","","","canvas-keyboard-response","415","591349","0.0-415.0","null","null","","","","","","","","","","","","","","fixation","","","2","45","","","","","","","","","",""
"","","","","","","","","","","","canvas-keyboard-response","416","591652","0.0-416.0","null","null","","","","","","","","","","","","","","stimulus","","","2","45","","","","","","","","","",""
"","","","","","","","","","","","canvas-button-response","417","593194","0.0-417.0","1539","phone","","","","","","","","","","","","","","perceptual","","","2","45","","","","","86","phone","6","0","1",""
"","","","","","","","","","","","canvas-button-response","418","593959","0.0-418.0","761","10","","","","","","","","","","","","","","confidence","","","2","45","","","","","","","","","","29"
"","","","","","","","","","","","preload","419","593960","0.0-419.0","","","","","true","","","","","","","","","","","preload","","","2","46","false","[]","[]","[]","","","","","",""
"","","","","","","","","","","","canvas-keyboard-response","420","594263","0.0-420.0","null","null","","","","","","","","","","","","","","fixation","","","2","46","","","","","","","","","",""
"","","","","","","","","","","","canvas-keyboard-response","421","594565","0.0-421.0","null","null","","","","","","","","","","","","","","stimulus","","","2","46","","","","","","","","","",""
"","","","","","","","","","","","canvas-button-response","422","595524","0.0-422.0","956","cat","","","","","","","","","","","","","","perceptual","","","2","46","","","","","299","cat","6","0","1",""
"","","","","","","","","","","","canvas-button-response","423","596259","0.0-423.0","732","10","","","","","","","","","","","","","","confidence","","","2","46","","","","","","","","","","30"
"","","","","","","","","","","","preload","424","596260","0.0-424.0","","","","","true","","","","","","","","","","","preload","","","2","47","false","[]","[]","[]","","","","","",""
"","","","","","","","","","","","canvas-keyboard-response","425","596563","0.0-425.0","null","null","","","","","","","","","","","","","","fixation","","","2","47","","","","","","","","","",""
"","","","","","","","","","","","canvas-keyboard-response","426","596866","0.0-426.0","null","null","","","","","","","","","","","","","","stimulus","","","2","47","","","","","","","","","",""
"","","","","","","","","","","","canvas-button-response","427","598121","0.0-427.0","1253","train","","","","","","","","","","","","","","perceptual","","","2","47","","","","","258","train","6","0","1",""
"","","","","","","","","","","","canvas-button-response","428","598952","0.0-428.0","828","5","","","","","","","","","","","","","","confidence","","","2","47","","","","","","","","","","31"
"","","","","","","","","","","","preload","429","598953","0.0-429.0","","","","","true","","","","","","","","","","","preload","","","2","48","false","[]","[]","[]","","","","","",""
"","","","","","","","","","","","canvas-keyboard-response","430","599256","0.0-430.0","null","null","","","","","","","","","","","","","","fixation","","","2","48","","","","","","","","","",""
"","","","","","","","","","","","canvas-keyboard-response","431","599559","0.0-431.0","null","null","","","","","","","","","","","","","","stimulus","","","2","48","","","","","","","","","",""
"","","","","","","","","","","","canvas-button-response","432","600951","0.0-432.0","1389","bed","","","","","","","","","","","","","","perceptual","","","2","48","","","","","148","bed","10","0","1",""
"","","","","","","","","","","","canvas-button-response","433","603271","0.0-433.0","2317","0","","","","","","","","","","","","","","confidence","","","2","48","","","","","","","","","","32"
"","","","","","","","","","","","preload","434","603272","0.0-434.0","","","","","true","","","","","","","","","","","preload","","","2","49","false","[]","[]","[]","","","","","",""
"","","","","","","","","","","","canvas-keyboard-response","435","603574","0.0-435.0","null","null","","","","","","","","","","","","","","fixation","","","2","49","","","","","","","","","",""
"","","","","","","","","","","","canvas-keyboard-response","436","603877","0.0-436.0","null","null","","","","","","","","","","","","","","stimulus","","","2","49","","","","","","","","","",""
"","","","","","","","","","","","canvas-button-response","437","604825","0.0-437.0","945","flower","","","","","","","","","","","","","","perceptual","","","2","49","","","","","226","flower","10","0","1",""
"","","","","","","","","","","","canvas-button-response","438","605898","0.0-438.0","1071","8","","","","","","","","","","","","","","confidence","","","2","49","","","","","","","","","","33"
"","","","","","","","","","","","html-button-response","439","1955908","0.0-439.0","1350032","0","","","","","","","","","","","","","","<p style=""font-size:20px;color:#000000"">You got 33 out of 50 trials correct in this block.<br><br>You have completed 6% of the experiment.<br><br>Take a short break.<br><br>When you are ready, click Continue to proceed.","","","2","49","","","","","","","","","",""
"","","","","","","","","","","","html-keyboard-response","440","1956912","0.0-440.0","null","null","","","","","","","","","","","","","","<p style=""font-size:32px;color:#000000""><br><br> RUN: &nbsp 1/4 <br><br> BLOCK: 2/4 ","","","2","49","","","","","","","","","",""
"","","","","","","","","","","","preload","441","1956913","0.0-441.0","","","","","true","","","","","","","","","","","preload","","","2","50","false","[]","[]","[]","","","","","",""
"","","","","","","","","","","","canvas-keyboard-response","442","1957217","0.0-442.0","null","null","","","","","","","","","","","","","","fixation","","","2","50","","","","","","","","","",""
"","","","","","","","","","","","canvas-keyboard-response","443","1957520","0.0-443.0","null","null","","","","","","","","","","","","","","stimulus","","","2","50","","","","","","","","","",""
"","","","","","","","","","","","canvas-button-response","444","1960793","0.0-444.0","3269","car","","","","","","","","","","","","","","perceptual","","","2","50","","","","","188","bridge","10","0","0",""
"","","","","","","","","","","","canvas-button-response","445","1961845","0.0-445.0","1050","0","","","","","","","","","","","","","","confidence","","","2","50","","","","","","","","","","0"
"","","","","","","","","","","","preload","446","1961846","0.0-446.0","","","","","true","","","","","","","","","","","preload","","","2","51","false","[]","[]","[]","","","","","",""
"","","","","","","","","","","","canvas-keyboard-response","447","1962149","0.0-447.0","null","null","","","","","","","","","","","","","","fixation","","","2","51","","","","","","","","","",""
"","","","","","","","","","","","canvas-keyboard-response","448","1962452","0.0-448.0","null","null","","","","","","","","","","","","","","stimulus","","","2","51","","","","","","","","","",""
"","","","","","","","","","","","canvas-button-response","449","1965029","0.0-449.0","2574","car","","","","","","","","","","","","","","perceptual","","","2","51","","","","","55","car","6","0","1",""
"","","","","","","","","","","","canvas-button-response","450","1967031","0.0-450.0","2000","6","","","","","","","","","","","","","","confidence","","","2","51","","","","","","","","","","1"
"","","","","","","","","","","","preload","451","1967032","0.0-451.0","","","","","true","","","","","","","","","","","preload","","","2","52","false","[]","[]","[]","","","","","",""
"","","","","","","","","","","","canvas-keyboard-response","452","1967335","0.0-452.0","null","null","","","","","","","","","","","","","","fixation","","","2","52","","","","","","","","","",""
"","","","","","","","","","","","canvas-keyboard-response","453","1967638","0.0-453.0","null","null","","","","","","","","","","","","","","stimulus","","","2","52","","","","","","","","","",""
"","","","","","","","","","","","canvas-button-response","454","1969941","0.0-454.0","2301","phone","","","","","","","","","","","","","","perceptual","","","2","52","","","","","111","phone","10","0","1",""
"","","","","","","","","","","","canvas-button-response","455","1970887","0.0-455.0","944","0","","","","","","","","","","","","","","confidence","","","2","52","","","","","","","","","","2"
"","","","","","","","","","","","preload","456","1970888","0.0-456.0","","","","","true","","","","","","","","","","","preload","","","2","53","false","[]","[]","[]","","","","","",""
"","","","","","","","","","","","canvas-keyboard-response","457","1971191","0.0-457.0","null","null","","","","","","","","","","","","","","fixation","","","2","53","","","","","","","","","",""
"","","","","","","","","","","","canvas-keyboard-response","458","1971494","0.0-458.0","null","null","","","","","","","","","","","","","","stimulus","","","2","53","","","","","","","","","",""
"","","","","","","","","","","","canvas-button-response","459","1973722","0.0-459.0","2225","cat","","","","","","","","","","","","","","perceptual","","","2","53","","","","","71","car","10","0","0",""
"","","","","","","","","","","","canvas-button-response","460","1974990","0.0-460.0","1266","1","","","","","","","","","","","","","","confidence","","","2","53","","","","","","","","","","2"
"","","","","","","","","","","","preload","461","1974992","0.0-461.0","","","","","true","","","","","","","","","","","preload","","","2","54","false","[]","[]","[]","","","","","",""
"","","","","","","","","","","","canvas-keyboard-response","462","1975294","0.0-462.0","null","null","","","","","","","","","","","","","","fixation","","","2","54","","","","","","","","","",""
"","","","","","","","","","","","canvas-keyboard-response","463","1975598","0.0-463.0","null","null","","","","","","","","","","","","","","stimulus","","","2","54","","","","","","","","","",""
"","","","","","","","","","","","canvas-button-response","464","1976799","0.0-464.0","1199","train","","","","","","","","","","","","","","perceptual","","","2","54","","","","","246","train","6","0","1",""
"","","","","","","","","","","","canvas-button-response","465","1977381","0.0-465.0","579","10","","","","","","","","","","","","","","confidence","","","2","54","","","","","","","","","","3"
"","","","","","","","","","","","preload","466","1977382","0.0-466.0","","","","","true","","","","","","","","","","","preload","","","2","55","false","[]","[]","[]","","","","","",""
"","","","","","","","","","","","canvas-keyboard-response","467","1977683","0.0-467.0","null","null","","","","","","","","","","","","","","fixation","","","2","55","","","","","","","","","",""
"","","","","","","","","","","","canvas-keyboard-response","468","1977987","0.0-468.0","null","null","","","","","","","","","","","","","","stimulus","","","2","55","","","","","","","","","",""
"","","","","","","","","","","","canvas-button-response","469","1980282","0.0-469.0","2292","bridge","","","","","","","","","","","","","","perceptual","","","2","55","","","","","172","bridge","6","0","1",""
"","","","","","","","","","","","canvas-button-response","470","1981690","0.0-470.0","1405","8","","","","","","","","","","","","","","confidence","","","2","55","","","","","","","","","","4"
"","","","","","","","","","","","preload","471","1981691","0.0-471.0","","","","","true","","","","","","","","","","","preload","","","2","56","false","[]","[]","[]","","","","","",""
"","","","","","","","","","","","canvas-keyboard-response","472","1981994","0.0-472.0","null","null","","","","","","","","","","","","","","fixation","","","2","56","","","","","","","","","",""
"","","","","","","","","","","","canvas-keyboard-response","473","1982297","0.0-473.0","null","null","","","","","","","","","","","","","","stimulus","","","2","56","","","","","","","","","",""
"","","","","","","","","","","","canvas-button-response","474","1985920","0.0-474.0","3620","phone","","","","","","","","","","","","","","perceptual","","","2","56","","","","","34","house","10","0","0",""
"","","","","","","","","","","","canvas-button-response","475","1987257","0.0-475.0","1335","5","","","","","","","","","","","","","","confidence","","","2","56","","","","","","","","","","4"
"","","","","","","","","","","","preload","476","1987259","0.0-476.0","","","","","true","","","","","","","","","","","preload","","","2","57","false","[]","[]","[]","","","","","",""
"","","","","","","","","","","","canvas-keyboard-response","477","1987561","0.0-477.0","null","null","","","","","","","","","","","","","","fixation","","","2","57","","","","","","","","","",""
"","","","","","","","","","","","canvas-keyboard-response","478","1987865","0.0-478.0","null","null","","","","","","","","","","","","","","stimulus","","","2","57","","","","","","","","","",""
"","","","","","","","","","","","canvas-button-response","479","1988999","0.0-479.0","1131","car","","","","","","","","","","","","","","perceptual","","","2","57","","","","","58","car","6","0","1",""
"","","","","","","","","","","","canvas-button-response","480","1989782","0.0-480.0","781","10","","","","","","","","","","","","","","confidence","","","2","57","","","","","","","","","","5"
"","","","","","","","","","","","preload","481","1989783","0.0-481.0","","","","","true","","","","","","","","","","","preload","","","2","58","false","[]","[]","[]","","","","","",""
"","","","","","","","","","","","canvas-keyboard-response","482","1990086","0.0-482.0","null","null","","","","","","","","","","","","","","fixation","","","2","58","","","","","","","","","",""
"","","","","","","","","","","","canvas-keyboard-response","483","1990389","0.0-483.0","null","null","","","","","","","","","","","","","","stimulus","","","2","58","","","","","","","","","",""
"","","","","","","","","","","","canvas-button-response","484","1991374","0.0-484.0","982","cat","","","","","","","","","","","","","","perceptual","","","2","58","","","","","297","cat","6","0","1",""
"","","","","","","","","","","","canvas-button-response","485","1992089","0.0-485.0","712","10","","","","","","","","","","","","","","confidence","","","2","58","","","","","","","","","","6"
"","","","","","","","","","","","preload","486","1992090","0.0-486.0","","","","","true","","","","","","","","","","","preload","","","2","59","false","[]","[]","[]","","","","","",""
"","","","","","","","","","","","canvas-keyboard-response","487","1992391","0.0-487.0","null","null","","","","","","","","","","","","","","fixation","","","2","59","","","","","","","","","",""
"","","","","","","","","","","","canvas-keyboard-response","488","1992694","0.0-488.0","null","null","","","","","","","","","","","","","","stimulus","","","2","59","","","","","","","","","",""
"","","","","","","","","","","","canvas-button-response","489","1993746","0.0-489.0","1050","car","","","","","","","","","","","","","","perceptual","","","2","59","","","","","62","car","10","0","1",""
"","","","","","","","","","","","canvas-button-response","490","1994457","0.0-490.0","709","10","","","","","","","","","","","","","","confidence","","","2","59","","","","","","","","","","7"
"","","","","","","","","","","","preload","491","1994458","0.0-491.0","","","","","true","","","","","","","","","","","preload","","","2","60","false","[]","[]","[]","","","","","",""
