"width","height","webaudio","browser","browser_version","mobile","os","fullscreen","vsync_rate","webcam","microphone","trial_type","trial_index","time_elapsed","internal_node_id","rt","response","accuracy","view_history","success","item_width_mm","item_height_mm","item_width_px","px2mm","view_dist_mm","item_width_deg","px2deg","scale_factor","win_width_deg","win_height_deg","stimulus","datetime","subjectID","curr_triallist","trial_no","timeout","failed_images","failed_audio","failed_video","image_index","category","blur","reps","correct","running_score"
"2301","2205","true","chrome","141.0.0","false","Windows 10","true","60.86","true","true","browser-check","0","1000","0.0-0.0","","","","","","","","","","","","","","","","","","","","","","","","","","","","","",""
"","","","","","","","","","","","survey","1","53711","0.0-1.0","52594","{""P0_Q0"":""903925389"",""P0_Q1"":""21"",""P1_Q0"":""Male"",""P1_Q1"":""Not Hispanic or Latino"",""P1_Q2"":""Asian"",""P1_Q3"":""Corrected-to-Normal (using glasses/contacts)"",""P1_Q4"":""Right-Handed""}","[]","","","","","","","","","","","","","","","","","","","","","","","","","","",""
"","","","","","","","","","","","instructions","2","58398","0.0-2.0","4685","","","[{""page_index"":0,""viewing_time"":1529},{""page_index"":1,""viewing_time"":1142},{""page_index"":2,""viewing_time"":980},{""page_index"":3,""viewing_time"":1035}]","","","","","","","","","","","","","","","","","","","","","","","","","",""
"","","","","","","","","","","","fullscreen","3","61357","0.0-3.0","1951","","","","true","","","","","","","","","","","","","","","","","","","","","","","","",""
"","","","","","","","","","","","virtual-chinrest","4","103083","0.0-4.0","41722","","","","","85.6","53.98","80.96845865998478","0.9457115971486222","1816.86","2.6989486219994925","30","3.0876220708342554","51.2","28.8","","","","","","","","","","","","","","",""
"","","","","","","","","","","","instructions","5","119045","0.0-5.0","15961","","","[{""page_index"":0,""viewing_time"":2266},{""page_index"":1,""viewing_time"":8431},{""page_index"":2,""viewing_time"":246},{""page_index"":3,""viewing_time"":181},{""page_index"":4,""viewing_time"":2247},{""page_index"":5,""viewing_time"":1337},{""page_index"":6,""viewing_time"":1253}]","","","","","","","","","","","","","","","","","","","","","","","","","",""
"","","","","","","","","","","","html-button-response","6","120436","0.0-6.0","1385","0","","","","","","","","","","","","","","start_practice","Fri Oct 24 2025 17:14:42 GMT-0400 (Eastern Daylight Time)","27001","","","","","","","","","","","",""
"","","","","","","","","","","","preload","7","120439","0.0-7.0","","","","","true","","","","","","","","","","","preload","","","0","0","false","[]","[]","[]","","","","","",""
"","","","","","","","","","","","canvas-keyboard-response","8","120752","0.0-8.0","null","null","","","","","","","","","","","","","","fixation","","","0","0","","","","","","","","","",""
"","","","","","","","","","","","canvas-keyboard-response","9","121055","0.0-9.0","null","null","","","","","","","","","","","","","","stimulus","","","0","0","","","","","","","","","",""
"","","","","","","","","","","","canvas-button-response","10","124042","0.0-10.0","2982","cat","","","","","","","","","","","","","","perceptual","","","0","0","","","","","2","house","1","","0",""
"","","","","","","","","","","","canvas-button-response","11","127661","0.0-11.0","3615","1","","","","","","","","","","","","","","confidence","","","0","0","","","","","","","","","","0"
"","","","","","","","","","","","html-keyboard-response","12","128675","0.0-12.0","null","null","","","","","","","","","","","","","","feedback","Fri Oct 24 2025 17:14:51 GMT-0400 (Eastern Daylight Time)","27001","0","0","","","","","","","","","",""
"","","","","","","","","","","","preload","13","128677","0.0-13.0","","","","","true","","","","","","","","","","","preload","","","0","1","false","[]","[]","[]","","","","","",""
"","","","","","","","","","","","canvas-keyboard-response","14","128980","0.0-14.0","null","null","","","","","","","","","","","","","","fixation","","","0","1","","","","","","","","","",""
"","","","","","","","","","","","canvas-keyboard-response","15","129285","0.0-15.0","null","null","","","","","","","","","","","","","","stimulus","","","0","1","","","","","","","","","",""
"","","","","","","","","","","","canvas-button-response","16","130674","0.0-16.0","1386","bridge","","","","","","","","","","","","","","perceptual","","","0","1","","","","","42","bridge","1","","1",""
"","","","","","","","","","","","canvas-button-response","17","131681","0.0-17.0","1003","10","","","","","","","","","","","","","","confidence","","","0","1","","","","","","","","","","1"
"","","","","","","","","","","","html-keyboard-response","18","132684","0.0-18.0","null","null","","","","","","","","","","","","","","feedback","Fri Oct 24 2025 17:14:55 GMT-0400 (Eastern Daylight Time)","27001","0","1","","","","","","","","","",""
"","","","","","","","","","","","preload","19","132685","0.0-19.0","","","","","true","","","","","","","","","","","preload","","","0","2","false","[]","[]","[]","","","","","",""
"","","","","","","","","","","","canvas-keyboard-response","20","132988","0.0-20.0","null","null","","","","","","","","","","","","","","fixation","","","0","2","","","","","","","","","",""
"","","","","","","","","","","","canvas-keyboard-response","21","133294","0.0-21.0","null","null","","","","","","","","","","","","","","stimulus","","","0","2","","","","","","","","","",""
"","","","","","","","","","","","canvas-button-response","22","138655","0.0-22.0","5358","elephant","","","","","","","","","","","","","","perceptual","","","0","2","","","","","82","elephant","1","","1",""
"","","","","","","","","","","","canvas-button-response","23","141146","0.0-23.0","2487","5","","","","","","","","","","","","","","confidence","","","0","2","","","","","","","","","","2"
"","","","","","","","","","","","html-keyboard-response","24","142160","0.0-24.0","null","null","","","","","","","","","","","","","","feedback","Fri Oct 24 2025 17:15:04 GMT-0400 (Eastern Daylight Time)","27001","0","2","","","","","","","","","",""
"","","","","","","","","","","","preload","25","142161","0.0-25.0","","","","","true","","","","","","","","","","","preload","","","0","3","false","[]","[]","[]","","","","","",""
"","","","","","","","","","","","canvas-keyboard-response","26","142465","0.0-26.0","null","null","","","","","","","","","","","","","","fixation","","","0","3","","","","","","","","","",""
"","","","","","","","","","","","canvas-keyboard-response","27","142771","0.0-27.0","null","null","","","","","","","","","","","","","","stimulus","","","0","3","","","","","","","","","",""
"","","","","","","","","","","","canvas-button-response","28","145721","0.0-28.0","2947","phone","","","","","","","","","","","","","","perceptual","","","0","3","","","","","22","phone","1","","1",""
"","","","","","","","","","","","canvas-button-response","29","146850","0.0-29.0","1124","10","","","","","","","","","","","","","","confidence","","","0","3","","","","","","","","","","3"
"","","","","","","","","","","","html-keyboard-response","30","147854","0.0-30.0","null","null","","","","","","","","","","","","","","feedback","Fri Oct 24 2025 17:15:10 GMT-0400 (Eastern Daylight Time)","27001","0","3","","","","","","","","","",""
"","","","","","","","","","","","preload","31","147855","0.0-31.0","","","","","true","","","","","","","","","","","preload","","","0","4","false","[]","[]","[]","","","","","",""
"","","","","","","","","","","","canvas-keyboard-response","32","148159","0.0-32.0","null","null","","","","","","","","","","","","","","fixation","","","0","4","","","","","","","","","",""
"","","","","","","","","","","","canvas-keyboard-response","33","148465","0.0-33.0","null","null","","","","","","","","","","","","","","stimulus","","","0","4","","","","","","","","","",""
"","","","","","","","","","","","canvas-button-response","34","151780","0.0-34.0","3312","train","","","","","","","","","","","","","","perceptual","","","0","4","","","","","62","train","1","","1",""
"","","","","","","","","","","","canvas-button-response","35","152744","0.0-35.0","960","10","","","","","","","","","","","","","","confidence","","","0","4","","","","","","","","","","4"
"","","","","","","","","","","","html-keyboard-response","36","153760","0.0-36.0","null","null","","","","","","","","","","","","","","feedback","Fri Oct 24 2025 17:15:16 GMT-0400 (Eastern Daylight Time)","27001","0","4","","","","","","","","","",""
"","","","","","","","","","","","preload","37","153761","0.0-37.0","","","","","true","","","","","","","","","","","preload","","","0","5","false","[]","[]","[]","","","","","",""
"","","","","","","","","","","","canvas-keyboard-response","38","154064","0.0-38.0","null","null","","","","","","","","","","","","","","fixation","","","0","5","","","","","","","","","",""
"","","","","","","","","","","","canvas-keyboard-response","39","154370","0.0-39.0","null","null","","","","","","","","","","","","","","stimulus","","","0","5","","","","","","","","","",""
"","","","","","","","","","","","canvas-button-response","40","155822","0.0-40.0","1448","car","","","","","","","","","","","","","","perceptual","","","0","5","","","","","12","car","1","","1",""
"","","","","","","","","","","","canvas-button-response","41","156812","0.0-41.0","987","10","","","","","","","","","","","","","","confidence","","","0","5","","","","","","","","","","5"
"","","","","","","","","","","","html-keyboard-response","42","157817","0.0-42.0","null","null","","","","","","","","","","","","","","feedback","Fri Oct 24 2025 17:15:20 GMT-0400 (Eastern Daylight Time)","27001","0","5","","","","","","","","","",""
"","","","","","","","","","","","preload","43","157818","0.0-43.0","","","","","true","","","","","","","","","","","preload","","","0","6","false","[]","[]","[]","","","","","",""
"","","","","","","","","","","","canvas-keyboard-response","44","158123","0.0-44.0","null","null","","","","","","","","","","","","","","fixation","","","0","6","","","","","","","","","",""
"","","","","","","","","","","","canvas-keyboard-response","45","158429","0.0-45.0","null","null","","","","","","","","","","","","","","stimulus","","","0","6","","","","","","","","","",""
"","","","","","","","","","","","canvas-button-response","46","160096","0.0-46.0","1665","cat","","","","","","","","","","","","","","perceptual","","","0","6","","","","","72","cat","1","","1",""
"","","","","","","","","","","","canvas-button-response","47","161087","0.0-47.0","987","10","","","","","","","","","","","","","","confidence","","","0","6","","","","","","","","","","6"
"","","","","","","","","","","","html-keyboard-response","48","162090","0.0-48.0","null","null","","","","","","","","","","","","","","feedback","Fri Oct 24 2025 17:15:24 GMT-0400 (Eastern Daylight Time)","27001","0","6","","","","","","","","","",""
"","","","","","","","","","","","preload","49","162092","0.0-49.0","","","","","true","","","","","","","","","","","preload","","","0","7","false","[]","[]","[]","","","","","",""
"","","","","","","","","","","","canvas-keyboard-response","50","162396","0.0-50.0","null","null","","","","","","","","","","","","","","fixation","","","0","7","","","","","","","","","",""
"","","","","","","","","","","","canvas-keyboard-response","51","162702","0.0-51.0","null","null","","","","","","","","","","","","","","stimulus","","","0","7","","","","","","","","","",""
"","","","","","","","","","","","canvas-button-response","52","164446","0.0-52.0","1742","bed","","","","","","","","","","","","","","perceptual","","","0","7","","","","","32","bed","1","","1",""
"","","","","","","","","","","","canvas-button-response","53","165443","0.0-53.0","993","10","","","","","","","","","","","","","","confidence","","","0","7","","","","","","","","","","7"
"","","","","","","","","","","","html-keyboard-response","54","166447","0.0-54.0","null","null","","","","","","","","","","","","","","feedback","Fri Oct 24 2025 17:15:29 GMT-0400 (Eastern Daylight Time)","27001","0","7","","","","","","","","","",""
"","","","","","","","","","","","preload","55","166448","0.0-55.0","","","","","true","","","","","","","","","","","preload","","","0","8","false","[]","[]","[]","","","","","",""
"","","","","","","","","","","","canvas-keyboard-response","56","166752","0.0-56.0","null","null","","","","","","","","","","","","","","fixation","","","0","8","","","","","","","","","",""
"","","","","","","","","","","","canvas-keyboard-response","57","167059","0.0-57.0","null","null","","","","","","","","","","","","","","stimulus","","","0","8","","","","","","","","","",""
"","","","","","","","","","","","canvas-button-response","58","169124","0.0-58.0","2062","knife","","","","","","","","","","","","","","perceptual","","","0","8","","","","","92","knife","1","","1",""
"","","","","","","","","","","","canvas-button-response","59","170223","0.0-59.0","1096","10","","","","","","","","","","","","","","confidence","","","0","8","","","","","","","","","","8"
"","","","","","","","","","","","html-keyboard-response","60","171241","0.0-60.0","null","null","","","","","","","","","","","","","","feedback","Fri Oct 24 2025 17:15:33 GMT-0400 (Eastern Daylight Time)","27001","0","8","","","","","","","","","",""
"","","","","","","","","","","","preload","61","171242","0.0-61.0","","","","","true","","","","","","","","","","","preload","","","0","9","false","[]","[]","[]","","","","","",""
"","","","","","","","","","","","canvas-keyboard-response","62","171547","0.0-62.0","null","null","","","","","","","","","","","","","","fixation","","","0","9","","","","","","","","","",""
"","","","","","","","","","","","canvas-keyboard-response","63","171851","0.0-63.0","null","null","","","","","","","","","","","","","","stimulus","","","0","9","","","","","","","","","",""
"","","","","","","","","","","","canvas-button-response","64","174109","0.0-64.0","2254","flower","","","","","","","","","","","","","","perceptual","","","0","9","","","","","52","flower","1","","1",""
"","","","","","","","","","","","canvas-button-response","65","175345","0.0-65.0","1233","10","","","","","","","","","","","","","","confidence","","","0","9","","","","","","","","","","9"
"","","","","","","","","","","","html-keyboard-response","66","176349","0.0-66.0","null","null","","","","","","","","","","","","","","feedback","Fri Oct 24 2025 17:15:39 GMT-0400 (Eastern Daylight Time)","27001","0","9","","","","","","","","","",""
"","","","","","","","","","","","html-button-response","67","178018","0.0-67.0","1663","0","","","","","","","","","","","","","","start_practice","Fri Oct 24 2025 17:15:40 GMT-0400 (Eastern Daylight Time)","27001","0","9","","","","","","","","","",""
"","","","","","","","","","","","preload","68","178019","0.0-68.0","","","","","true","","","","","","","","","","","preload","","","1","0","false","[]","[]","[]","","","","","",""
"","","","","","","","","","","","canvas-keyboard-response","69","178335","0.0-69.0","null","null","","","","","","","","","","","","","","fixation","","","1","0","","","","","","","","","",""
"","","","","","","","","","","","canvas-keyboard-response","70","178640","0.0-70.0","null","null","","","","","","","","","","","","","","stimulus","","","1","0","","","","","","","","","",""
"","","","","","","","","","","","canvas-button-response","71","183322","0.0-71.0","4678","bridge","","","","","","","","","","","","","","perceptual","","","1","0","","","","","14","car","6","","0",""
"","","","","","","","","","","","canvas-button-response","72","184835","0.0-72.0","1510","1","","","","","","","","","","","","","","confidence","","","1","0","","","","","","","","","","0"
"","","","","","","","","","","","html-keyboard-response","73","185852","0.0-73.0","null","null","","","","","","","","","","","","","","feedback","Fri Oct 24 2025 17:15:48 GMT-0400 (Eastern Daylight Time)","27001","1","0","","","","","","","","","",""
"","","","","","","","","","","","preload","74","185854","0.0-74.0","","","","","true","","","","","","","","","","","preload","","","1","1","false","[]","[]","[]","","","","","",""
"","","","","","","","","","","","canvas-keyboard-response","75","186158","0.0-75.0","null","null","","","","","","","","","","","","","","fixation","","","1","1","","","","","","","","","",""
"","","","","","","","","","","","canvas-keyboard-response","76","186464","0.0-76.0","null","null","","","","","","","","","","","","","","stimulus","","","1","1","","","","","","","","","",""
"","","","","","","","","","","","canvas-button-response","77","187900","0.0-77.0","1433","flower","","","","","","","","","","","","","","perceptual","","","1","1","","","","","57","flower","10","","1",""
"","","","","","","","","","","","canvas-button-response","78","189520","0.0-78.0","1616","10","","","","","","","","","","","","","","confidence","","","1","1","","","","","","","","","","1"
"","","","","","","","","","","","html-keyboard-response","79","190523","0.0-79.0","null","null","","","","","","","","","","","","","","feedback","Fri Oct 24 2025 17:15:53 GMT-0400 (Eastern Daylight Time)","27001","1","1","","","","","","","","","",""
"","","","","","","","","","","","preload","80","190524","0.0-80.0","","","","","true","","","","","","","","","","","preload","","","1","2","false","[]","[]","[]","","","","","",""
"","","","","","","","","","","","canvas-keyboard-response","81","190828","0.0-81.0","null","null","","","","","","","","","","","","","","fixation","","","1","2","","","","","","","","","",""
"","","","","","","","","","","","canvas-keyboard-response","82","191136","0.0-82.0","null","null","","","","","","","","","","","","","","stimulus","","","1","2","","","","","","","","","",""
"","","","","","","","","","","","canvas-button-response","83","197620","0.0-83.0","6481","bridge","","","","","","","","","","","","","","perceptual","","","1","2","","","","","47","bridge","10","","1",""
"","","","","","","","","","","","canvas-button-response","84","199041","0.0-84.0","1418","2","","","","","","","","","","","","","","confidence","","","1","2","","","","","","","","","","2"
"","","","","","","","","","","","html-keyboard-response","85","200052","0.0-85.0","null","null","","","","","","","","","","","","","","feedback","Fri Oct 24 2025 17:16:02 GMT-0400 (Eastern Daylight Time)","27001","1","2","","","","","","","","","",""
"","","","","","","","","","","","preload","86","200053","0.0-86.0","","","","","true","","","","","","","","","","","preload","","","1","3","false","[]","[]","[]","","","","","",""
"","","","","","","","","","","","canvas-keyboard-response","87","200357","0.0-87.0","null","null","","","","","","","","","","","","","","fixation","","","1","3","","","","","","","","","",""
"","","","","","","","","","","","canvas-keyboard-response","88","200663","0.0-88.0","null","null","","","","","","","","","","","","","","stimulus","","","1","3","","","","","","","","","",""
"","","","","","","","","","","","canvas-button-response","89","202272","0.0-89.0","1605","house","","","","","","","","","","","","","","perceptual","","","1","3","","","","","4","house","6","","1",""
"","","","","","","","","","","","canvas-button-response","90","203268","0.0-90.0","993","10","","","","","","","","","","","","","","confidence","","","1","3","","","","","","","","","","3"
"","","","","","","","","","","","html-keyboard-response","91","204285","0.0-91.0","null","null","","","","","","","","","","","","","","feedback","Fri Oct 24 2025 17:16:06 GMT-0400 (Eastern Daylight Time)","27001","1","3","","","","","","","","","",""
"","","","","","","","","","","","preload","92","204286","0.0-92.0","","","","","true","","","","","","","","","","","preload","","","1","4","false","[]","[]","[]","","","","","",""
"","","","","","","","","","","","canvas-keyboard-response","93","204591","0.0-93.0","null","null","","","","","","","","","","","","","","fixation","","","1","4","","","","","","","","","",""
"","","","","","","","","","","","canvas-keyboard-response","94","204894","0.0-94.0","null","null","","","","","","","","","","","","","","stimulus","","","1","4","","","","","","","","","",""
"","","","","","","","","","","","canvas-button-response","95","207220","0.0-95.0","2322","elephant","","","","","","","","","","","","","","perceptual","","","1","4","","","","","44","bridge","6","","0",""
"","","","","","","","","","","","canvas-button-response","96","208729","0.0-96.0","1506","3","","","","","","","","","","","","","","confidence","","","1","4","","","","","","","","","","3"
"","","","","","","","","","","","html-keyboard-response","97","209735","0.0-97.0","null","null","","","","","","","","","","","","","","feedback","Fri Oct 24 2025 17:16:12 GMT-0400 (Eastern Daylight Time)","27001","1","4","","","","","","","","","",""
"","","","","","","","","","","","preload","98","209736","0.0-98.0","","","","","true","","","","","","","","","","","preload","","","1","5","false","[]","[]","[]","","","","","",""
"","","","","","","","","","","","canvas-keyboard-response","99","210039","0.0-99.0","null","null","","","","","","","","","","","","","","fixation","","","1","5","","","","","","","","","",""
"","","","","","","","","","","","canvas-keyboard-response","100","210347","0.0-100.0","null","null","","","","","","","","","","","","","","stimulus","","","1","5","","","","","","","","","",""
"","","","","","","","","","","","canvas-button-response","101","211985","0.0-101.0","1635","knife","","","","","","","","","","","","","","perceptual","","","1","5","","","","","97","knife","10","","1",""
"","","","","","","","","","","","canvas-button-response","102","212918","0.0-102.0","929","10","","","","","","","","","","","","","","confidence","","","1","5","","","","","","","","","","4"
"","","","","","","","","","","","html-keyboard-response","103","213935","0.0-103.0","null","null","","","","","","","","","","","","","","feedback","Fri Oct 24 2025 17:16:16 GMT-0400 (Eastern Daylight Time)","27001","1","5","","","","","","","","","",""
"","","","","","","","","","","","preload","104","213936","0.0-104.0","","","","","true","","","","","","","","","","","preload","","","1","6","false","[]","[]","[]","","","","","",""
"","","","","","","","","","","","canvas-keyboard-response","105","214240","0.0-105.0","null","null","","","","","","","","","","","","","","fixation","","","1","6","","","","","","","","","",""
"","","","","","","","","","","","canvas-keyboard-response","106","214545","0.0-106.0","null","null","","","","","","","","","","","","","","stimulus","","","1","6","","","","","","","","","",""
"","","","","","","","","","","","canvas-button-response","107","215986","0.0-107.0","1437","bed","","","","","","","","","","","","","","perceptual","","","1","6","","","","","34","bed","6","","1",""
"","","","","","","","","","","","canvas-button-response","108","217070","0.0-108.0","1081","10","","","","","","","","","","","","","","confidence","","","1","6","","","","","","","","","","5"
"","","","","","","","","","","","html-keyboard-response","109","218073","0.0-109.0","null","null","","","","","","","","","","","","","","feedback","Fri Oct 24 2025 17:16:20 GMT-0400 (Eastern Daylight Time)","27001","1","6","","","","","","","","","",""
"","","","","","","","","","","","preload","110","218074","0.0-110.0","","","","","true","","","","","","","","","","","preload","","","1","7","false","[]","[]","[]","","","","","",""
"","","","","","","","","","","","canvas-keyboard-response","111","218391","0.0-111.0","null","null","","","","","","","","","","","","","","fixation","","","1","7","","","","","","","","","",""
"","","","","","","","","","","","canvas-keyboard-response","112","218696","0.0-112.0","null","null","","","","","","","","","","","","","","stimulus","","","1","7","","","","","","","","","",""
"","","","","","","","","","","","canvas-button-response","113","222497","0.0-113.0","3797","phone","","","","","","","","","","","","","","perceptual","","","1","7","","","","","24","phone","6","","1",""
"","","","","","","","","","","","canvas-button-response","114","223461","0.0-114.0","960","2","","","","","","","","","","","","","","confidence","","","1","7","","","","","","","","","","6"
"","","","","","","","","","","","html-keyboard-response","115","224465","0.0-115.0","null","null","","","","","","","","","","","","","","feedback","Fri Oct 24 2025 17:16:27 GMT-0400 (Eastern Daylight Time)","27001","1","7","","","","","","","","","",""
"","","","","","","","","","","","preload","116","224466","0.0-116.0","","","","","true","","","","","","","","","","","preload","","","1","8","false","[]","[]","[]","","","","","",""
"","","","","","","","","","","","canvas-keyboard-response","117","224771","0.0-117.0","null","null","","","","","","","","","","","","","","fixation","","","1","8","","","","","","","","","",""
"","","","","","","","","","","","canvas-keyboard-response","118","225075","0.0-118.0","null","null","","","","","","","","","","","","","","stimulus","","","1","8","","","","","","","","","",""
"","","","","","","","","","","","canvas-button-response","119","231431","0.0-119.0","6351","phone","","","","","","","","","","","","","","perceptual","","","1","8","","","","","27","phone","10","","1",""
"","","","","","","","","","","","canvas-button-response","120","232637","0.0-120.0","1203","2","","","","","","","","","","","","","","confidence","","","1","8","","","","","","","","","","7"
"","","","","","","","","","","","html-keyboard-response","121","233642","0.0-121.0","null","null","","","","","","","","","","","","","","feedback","Fri Oct 24 2025 17:16:36 GMT-0400 (Eastern Daylight Time)","27001","1","8","","","","","","","","","",""
"","","","","","","","","","","","preload","122","233643","0.0-122.0","","","","","true","","","","","","","","","","","preload","","","1","9","false","[]","[]","[]","","","","","",""
"","","","","","","","","","","","canvas-keyboard-response","123","233947","0.0-123.0","null","null","","","","","","","","","","","","","","fixation","","","1","9","","","","","","","","","",""
"","","","","","","","","","","","canvas-keyboard-response","124","234251","0.0-124.0","null","null","","","","","","","","","","","","","","stimulus","","","1","9","","","","","","","","","",""
"","","","","","","","","","","","canvas-button-response","125","237072","0.0-125.0","2817","elephant","","","","","","","","","","","","","","perceptual","","","1","9","","","","","7","house","10","","0",""
"","","","","","","","","","","","canvas-button-response","126","238976","0.0-126.0","1901","2","","","","","","","","","","","","","","confidence","","","1","9","","","","","","","","","","7"
"","","","","","","","","","","","html-keyboard-response","127","239991","0.0-127.0","null","null","","","","","","","","","","","","","","feedback","Fri Oct 24 2025 17:16:42 GMT-0400 (Eastern Daylight Time)","27001","1","9","","","","","","","","","",""
"","","","","","","","","","","","preload","128","239992","0.0-128.0","","","","","true","","","","","","","","","","","preload","","","1","10","false","[]","[]","[]","","","","","",""
"","","","","","","","","","","","canvas-keyboard-response","129","240297","0.0-129.0","null","null","","","","","","","","","","","","","","fixation","","","1","10","","","","","","","","","",""
"","","","","","","","","","","","canvas-keyboard-response","130","240602","0.0-130.0","null","null","","","","","","","","","","","","","","stimulus","","","1","10","","","","","","","","","",""
"","","","","","","","","","","","canvas-button-response","131","242415","0.0-131.0","1810","bridge","","","","","","","","","","","","","","perceptual","","","1","10","","","","","77","cat","10","","0",""
"","","","","","","","","","","","canvas-button-response","132","243761","0.0-132.0","1342","0","","","","","","","","","","","","","","confidence","","","1","10","","","","","","","","","","7"
"","","","","","","","","","","","html-keyboard-response","133","244764","0.0-133.0","null","null","","","","","","","","","","","","","","feedback","Fri Oct 24 2025 17:16:47 GMT-0400 (Eastern Daylight Time)","27001","1","10","","","","","","","","","",""
"","","","","","","","","","","","preload","134","244766","0.0-134.0","","","","","true","","","","","","","","","","","preload","","","1","11","false","[]","[]","[]","","","","","",""
"","","","","","","","","","","","canvas-keyboard-response","135","245069","0.0-135.0","null","null","","","","","","","","","","","","","","fixation","","","1","11","","","","","","","","","",""
"","","","","","","","","","","","canvas-keyboard-response","136","245374","0.0-136.0","null","null","","","","","","","","","","","","","","stimulus","","","1","11","","","","","","","","","",""
"","","","","","","","","","","","canvas-button-response","137","247563","0.0-137.0","2186","flower","","","","","","","","","","","","","","perceptual","","","1","11","","","","","17","car","10","","0",""
"","","","","","","","","","","","canvas-button-response","138","248966","0.0-138.0","1399","1","","","","","","","","","","","","","","confidence","","","1","11","","","","","","","","","","7"
"","","","","","","","","","","","html-keyboard-response","139","249982","0.0-139.0","null","null","","","","","","","","","","","","","","feedback","Fri Oct 24 2025 17:16:52 GMT-0400 (Eastern Daylight Time)","27001","1","11","","","","","","","","","",""
"","","","","","","","","","","","preload","140","249983","0.0-140.0","","","","","true","","","","","","","","","","","preload","","","1","12","false","[]","[]","[]","","","","","",""
"","","","","","","","","","","","canvas-keyboard-response","141","250287","0.0-141.0","null","null","","","","","","","","","","","","","","fixation","","","1","12","","","","","","","","","",""
"","","","","","","","","","","","canvas-keyboard-response","142","250591","0.0-142.0","null","null","","","","","","","","","","","","","","stimulus","","","1","12","","","","","","","","","",""
"","","","","","","","","","","","canvas-button-response","143","251814","0.0-143.0","1219","elephant","","","","","","","","","","","","","","perceptual","","","1","12","","","","","84","elephant","6","","1",""
"","","","","","","","","","","","canvas-button-response","144","252609","0.0-144.0","791","10","","","","","","","","","","","","","","confidence","","","1","12","","","","","","","","","","8"
"","","","","","","","","","","","html-keyboard-response","145","253612","0.0-145.0","null","null","","","","","","","","","","","","","","feedback","Fri Oct 24 2025 17:16:56 GMT-0400 (Eastern Daylight Time)","27001","1","12","","","","","","","","","",""
"","","","","","","","","","","","preload","146","253613","0.0-146.0","","","","","true","","","","","","","","","","","preload","","","1","13","false","[]","[]","[]","","","","","",""
"","","","","","","","","","","","canvas-keyboard-response","147","253917","0.0-147.0","null","null","","","","","","","","","","","","","","fixation","","","1","13","","","","","","","","","",""
"","","","","","","","","","","","canvas-keyboard-response","148","254221","0.0-148.0","null","null","","","","","","","","","","","","","","stimulus","","","1","13","","","","","","","","","",""
"","","","","","","","","","","","canvas-button-response","149","255723","0.0-149.0","1499","knife","","","","","","","","","","","","","","perceptual","","","1","13","","","","","37","bed","10","","0",""
"","","","","","","","","","","","canvas-button-response","150","256820","0.0-150.0","1093","1","","","","","","","","","","","","","","confidence","","","1","13","","","","","","","","","","8"
"","","","","","","","","","","","html-keyboard-response","151","257825","0.0-151.0","null","null","","","","","","","","","","","","","","feedback","Fri Oct 24 2025 17:17:00 GMT-0400 (Eastern Daylight Time)","27001","1","13","","","","","","","","","",""
"","","","","","","","","","","","preload","152","257826","0.0-152.0","","","","","true","","","","","","","","","","","preload","","","1","14","false","[]","[]","[]","","","","","",""
"","","","","","","","","","","","canvas-keyboard-response","153","258129","0.0-153.0","null","null","","","","","","","","","","","","","","fixation","","","1","14","","","","","","","","","",""
"","","","","","","","","","","","canvas-keyboard-response","154","258434","0.0-154.0","null","null","","","","","","","","","","","","","","stimulus","","","1","14","","","","","","","","","",""
"","","","","","","","","","","","canvas-button-response","155","259826","0.0-155.0","1389","cat","","","","","","","","","","","","","","perceptual","","","1","14","","","","","74","cat","6","","1",""
"","","","","","","","","","","","canvas-button-response","156","260743","0.0-156.0","913","10","","","","","","","","","","","","","","confidence","","","1","14","","","","","","","","","","9"
"","","","","","","","","","","","html-keyboard-response","157","261747","0.0-157.0","null","null","","","","","","","","","","","","","","feedback","Fri Oct 24 2025 17:17:04 GMT-0400 (Eastern Daylight Time)","27001","1","14","","","","","","","","","",""
"","","","","","","","","","","","preload","158","261748","0.0-158.0","","","","","true","","","","","","","","","","","preload","","","1","15","false","[]","[]","[]","","","","","",""
"","","","","","","","","","","","canvas-keyboard-response","159","262051","0.0-159.0","null","null","","","","","","","","","","","","","","fixation","","","1","15","","","","","","","","","",""
"","","","","","","","","","","","canvas-keyboard-response","160","262355","0.0-160.0","null","null","","","","","","","","","","","","","","stimulus","","","1","15","","","","","","","","","",""
"","","","","","","","","","","","canvas-button-response","161","266727","0.0-161.0","4368","flower","","","","","","","","","","","","","","perceptual","","","1","15","","","","","87","elephant","10","","0",""
"","","","","","","","","","","","canvas-button-response","162","267889","0.0-162.0","1160","2","","","","","","","","","","","","","","confidence","","","1","15","","","","","","","","","","9"
"","","","","","","","","","","","html-keyboard-response","163","268894","0.0-163.0","null","null","","","","","","","","","","","","","","feedback","Fri Oct 24 2025 17:17:11 GMT-0400 (Eastern Daylight Time)","27001","1","15","","","","","","","","","",""
"","","","","","","","","","","","preload","164","268895","0.0-164.0","","","","","true","","","","","","","","","","","preload","","","1","16","false","[]","[]","[]","","","","","",""
"","","","","","","","","","","","canvas-keyboard-response","165","269199","0.0-165.0","null","null","","","","","","","","","","","","","","fixation","","","1","16","","","","","","","","","",""
"","","","","","","","","","","","canvas-keyboard-response","166","269504","0.0-166.0","null","null","","","","","","","","","","","","","","stimulus","","","1","16","","","","","","","","","",""
"","","","","","","","","","","","canvas-button-response","167","271539","0.0-167.0","2031","train","","","","","","","","","","","","","","perceptual","","","1","16","","","","","64","train","6","","1",""
"","","","","","","","","","","","canvas-button-response","168","272348","0.0-168.0","805","10","","","","","","","","","","","","","","confidence","","","1","16","","","","","","","","","","10"
"","","","","","","","","","","","html-keyboard-response","169","273362","0.0-169.0","null","null","","","","","","","","","","","","","","feedback","Fri Oct 24 2025 17:17:16 GMT-0400 (Eastern Daylight Time)","27001","1","16","","","","","","","","","",""
"","","","","","","","","","","","preload","170","273363","0.0-170.0","","","","","true","","","","","","","","","","","preload","","","1","17","false","[]","[]","[]","","","","","",""
"","","","","","","","","","","","canvas-keyboard-response","171","273667","0.0-171.0","null","null","","","","","","","","","","","","","","fixation","","","1","17","","","","","","","","","",""
"","","","","","","","","","","","canvas-keyboard-response","172","273974","0.0-172.0","null","null","","","","","","","","","","","","","","stimulus","","","1","17","","","","","","","","","",""
"","","","","","","","","","","","canvas-button-response","173","276512","0.0-173.0","2535","flower","","","","","","","","","","","","","","perceptual","","","1","17","","","","","54","flower","6","","1",""
"","","","","","","","","","","","canvas-button-response","174","277721","0.0-174.0","1206","3","","","","","","","","","","","","","","confidence","","","1","17","","","","","","","","","","11"
"","","","","","","","","","","","html-keyboard-response","175","278737","0.0-175.0","null","null","","","","","","","","","","","","","","feedback","Fri Oct 24 2025 17:17:21 GMT-0400 (Eastern Daylight Time)","27001","1","17","","","","","","","","","",""
"","","","","","","","","","","","preload","176","278738","0.0-176.0","","","","","true","","","","","","","","","","","preload","","","1","18","false","[]","[]","[]","","","","","",""
"","","","","","","","","","","","canvas-keyboard-response","177","279041","0.0-177.0","null","null","","","","","","","","","","","","","","fixation","","","1","18","","","","","","","","","",""
"","","","","","","","","","","","canvas-keyboard-response","178","279346","0.0-178.0","null","null","","","","","","","","","","","","","","stimulus","","","1","18","","","","","","","","","",""
"","","","","","","","","","","","canvas-button-response","179","281287","0.0-179.0","1937","phone","","","","","","","","","","","","","","perceptual","","","1","18","","","","","67","train","10","","0",""
"","","","","","","","","","","","canvas-button-response","180","282326","0.0-180.0","1035","1","","","","","","","","","","","","","","confidence","","","1","18","","","","","","","","","","11"
"","","","","","","","","","","","html-keyboard-response","181","283329","0.0-181.0","null","null","","","","","","","","","","","","","","feedback","Fri Oct 24 2025 17:17:26 GMT-0400 (Eastern Daylight Time)","27001","1","18","","","","","","","","","",""
"","","","","","","","","","","","preload","182","283330","0.0-182.0","","","","","true","","","","","","","","","","","preload","","","1","19","false","[]","[]","[]","","","","","",""
"","","","","","","","","","","","canvas-keyboard-response","183","283633","0.0-183.0","null","null","","","","","","","","","","","","","","fixation","","","1","19","","","","","","","","","",""
"","","","","","","","","","","","canvas-keyboard-response","184","283938","0.0-184.0","null","null","","","","","","","","","","","","","","stimulus","","","1","19","","","","","","","","","",""
"","","","","","","","","","","","canvas-button-response","185","287393","0.0-185.0","3452","car","","","","","","","","","","","","","","perceptual","","","1","19","","","","","94","knife","6","","0",""
"","","","","","","","","","","","canvas-button-response","186","289058","0.0-186.0","1661","1","","","","","","","","","","","","","","confidence","","","1","19","","","","","","","","","","11"
"","","","","","","","","","","","html-keyboard-response","187","290061","0.0-187.0","null","null","","","","","","","","","","","","","","feedback","Fri Oct 24 2025 17:17:32 GMT-0400 (Eastern Daylight Time)","27001","1","19","","","","","","","","","",""
"","","","","","","","","","","","html-button-response","188","291655","0.0-188.0","1590","0","","","","","","","","","","","","","","start experiment","Fri Oct 24 2025 17:17:33 GMT-0400 (Eastern Daylight Time)","27001","1","19","","","","","","","","","",""
"","","","","","","","","","","","preload","189","291656","0.0-189.0","","","","","true","","","","","","","","","","","preload","","","2","0","false","[]","[]","[]","","","","","",""
"","","","","","","","","","","","canvas-keyboard-response","190","291972","0.0-190.0","null","null","","","","","","","","","","","","","","fixation","","","2","0","","","","","","","","","",""
"","","","","","","","","","","","canvas-keyboard-response","191","292278","0.0-191.0","null","null","","","","","","","","","","","","","","stimulus","","","2","0","","","","","","","","","",""
"","","","","","","","","","","","canvas-button-response","192","299715","0.0-192.0","7433","phone","","","","","","","","","","","","","","perceptual","","","2","0","","","","","340","elephant","10","0","0",""
"","","","","","","","","","","","canvas-button-response","193","300857","0.0-193.0","1139","1","","","","","","","","","","","","","","confidence","","","2","0","","","","","","","","","","0"
"","","","","","","","","","","","preload","194","300858","0.0-194.0","","","","","true","","","","","","","","","","","preload","","","2","1","false","[]","[]","[]","","","","","",""
"","","","","","","","","","","","canvas-keyboard-response","195","301173","0.0-195.0","null","null","","","","","","","","","","","","","","fixation","","","2","1","","","","","","","","","",""
"","","","","","","","","","","","canvas-keyboard-response","196","301477","0.0-196.0","null","null","","","","","","","","","","","","","","stimulus","","","2","1","","","","","","","","","",""
"","","","","","","","","","","","canvas-button-response","197","304133","0.0-197.0","2653","car","","","","","","","","","","","","","","perceptual","","","2","1","","","","","135","bed","6","0","0",""
"","","","","","","","","","","","canvas-button-response","198","305033","0.0-198.0","897","2","","","","","","","","","","","","","","confidence","","","2","1","","","","","","","","","","0"
"","","","","","","","","","","","preload","199","305034","0.0-199.0","","","","","true","","","","","","","","","","","preload","","","2","2","false","[]","[]","[]","","","","","",""
"","","","","","","","","","","","canvas-keyboard-response","200","305350","0.0-200.0","null","null","","","","","","","","","","","","","","fixation","","","2","2","","","","","","","","","",""
"","","","","","","","","","","","canvas-keyboard-response","201","305655","0.0-201.0","null","null","","","","","","","","","","","","","","stimulus","","","2","2","","","","","","","","","",""
"","","","","","","","","","","","canvas-button-response","202","308948","0.0-202.0","3290","flower","","","","","","","","","","","","","","perceptual","","","2","2","","","","","295","cat","6","0","0",""
"","","","","","","","","","","","canvas-button-response","203","310639","0.0-203.0","1688","1","","","","","","","","","","","","","","confidence","","","2","2","","","","","","","","","","0"
"","","","","","","","","","","","preload","204","310641","0.0-204.0","","","","","true","","","","","","","","","","","preload","","","2","3","false","[]","[]","[]","","","","","",""
"","","","","","","","","","","","canvas-keyboard-response","205","310957","0.0-205.0","null","null","","","","","","","","","","","","","","fixation","","","2","3","","","","","","","","","",""
"","","","","","","","","","","","canvas-keyboard-response","206","311263","0.0-206.0","null","null","","","","","","","","","","","","","","stimulus","","","2","3","","","","","","","","","",""
"","","","","","","","","","","","canvas-button-response","207","313337","0.0-207.0","2072","car","","","","","","","","","","","","","","perceptual","","","2","3","","","","","108","phone","10","0","0",""
"","","","","","","","","","","","canvas-button-response","208","314970","0.0-208.0","1630","1","","","","","","","","","","","","","","confidence","","","2","3","","","","","","","","","","0"
"","","","","","","","","","","","preload","209","314972","0.0-209.0","","","","","true","","","","","","","","","","","preload","","","2","4","false","[]","[]","[]","","","","","",""
"","","","","","","","","","","","canvas-keyboard-response","210","315287","0.0-210.0","null","null","","","","","","","","","","","","","","fixation","","","2","4","","","","","","","","","",""
"","","","","","","","","","","","canvas-keyboard-response","211","315592","0.0-211.0","null","null","","","","","","","","","","","","","","stimulus","","","2","4","","","","","","","","","",""
"","","","","","","","","","","","canvas-button-response","212","319953","0.0-212.0","4357","knife","","","","","","","","","","","","","","perceptual","","","2","4","","","","","363","knife","6","0","1",""
"","","","","","","","","","","","canvas-button-response","213","321626","0.0-213.0","1670","2","","","","","","","","","","","","","","confidence","","","2","4","","","","","","","","","","1"
"","","","","","","","","","","","preload","214","321627","0.0-214.0","","","","","true","","","","","","","","","","","preload","","","2","5","false","[]","[]","[]","","","","","",""
"","","","","","","","","","","","canvas-keyboard-response","215","321944","0.0-215.0","null","null","","","","","","","","","","","","","","fixation","","","2","5","","","","","","","","","",""
"","","","","","","","","","","","canvas-keyboard-response","216","322249","0.0-216.0","null","null","","","","","","","","","","","","","","stimulus","","","2","5","","","","","","","","","",""
"","","","","","","","","","","","canvas-button-response","217","324405","0.0-217.0","2153","cat","","","","","","","","","","","","","","perceptual","","","2","5","","","","","345","elephant","10","0","0",""
"","","","","","","","","","","","canvas-button-response","218","325142","0.0-218.0","733","4","","","","","","","","","","","","","","confidence","","","2","5","","","","","","","","","","1"
"","","","","","","","","","","","preload","219","325143","0.0-219.0","","","","","true","","","","","","","","","","","preload","","","2","6","false","[]","[]","[]","","","","","",""
"","","","","","","","","","","","canvas-keyboard-response","220","325459","0.0-220.0","null","null","","","","","","","","","","","","","","fixation","","","2","6","","","","","","","","","",""
"","","","","","","","","","","","canvas-keyboard-response","221","325762","0.0-221.0","null","null","","","","","","","","","","","","","","stimulus","","","2","6","","","","","","","","","",""
"","","","","","","","","","","","canvas-button-response","222","327764","0.0-222.0","1998","train","","","","","","","","","","","","","","perceptual","","","2","6","","","","","241","train","6","0","1",""
"","","","","","","","","","","","canvas-button-response","223","328100","0.0-223.0","333","9","","","","","","","","","","","","","","confidence","","","2","6","","","","","","","","","","2"
"","","","","","","","","","","","preload","224","328102","0.0-224.0","","","","","true","","","","","","","","","","","preload","","","2","7","false","[]","[]","[]","","","","","",""
"","","","","","","","","","","","canvas-keyboard-response","225","328403","0.0-225.0","null","null","","","","","","","","","","","","","","fixation","","","2","7","","","","","","","","","",""
"","","","","","","","","","","","canvas-keyboard-response","226","328706","0.0-226.0","null","null","","","","","","","","","","","","","","stimulus","","","2","7","","","","","","","","","",""
"","","","","","","","","","","","canvas-button-response","227","331335","0.0-227.0","2626","house","","","","","","","","","","","","","","perceptual","","","2","7","","","","","191","bridge","10","0","0",""
"","","","","","","","","","","","canvas-button-response","228","332428","0.0-228.0","1090","10","","","","","","","","","","","","","","confidence","","","2","7","","","","","","","","","","2"
"","","","","","","","","","","","preload","229","332429","0.0-229.0","","","","","true","","","","","","","","","","","preload","","","2","8","false","[]","[]","[]","","","","","",""
"","","","","","","","","","","","canvas-keyboard-response","230","332742","0.0-230.0","null","null","","","","","","","","","","","","","","fixation","","","2","8","","","","","","","","","",""
"","","","","","","","","","","","canvas-keyboard-response","231","333046","0.0-231.0","null","null","","","","","","","","","","","","","","stimulus","","","2","8","","","","","","","","","",""
"","","","","","","","","","","","canvas-button-response","232","334067","0.0-232.0","1018","train","","","","","","","","","","","","","","perceptual","","","2","8","","","","","255","train","6","0","1",""
"","","","","","","","","","","","canvas-button-response","233","334892","0.0-233.0","821","10","","","","","","","","","","","","","","confidence","","","2","8","","","","","","","","","","3"
"","","","","","","","","","","","preload","234","334893","0.0-234.0","","","","","true","","","","","","","","","","","preload","","","2","9","false","[]","[]","[]","","","","","",""
"","","","","","","","","","","","canvas-keyboard-response","235","335209","0.0-235.0","null","null","","","","","","","","","","","","","","fixation","","","2","9","","","","","","","","","",""
"","","","","","","","","","","","canvas-keyboard-response","236","335516","0.0-236.0","null","null","","","","","","","","","","","","","","stimulus","","","2","9","","","","","","","","","",""
"","","","","","","","","","","","canvas-button-response","237","339256","0.0-237.0","3737","bridge","","","","","","","","","","","","","","perceptual","","","2","9","","","","","37","house","10","0","0",""
"","","","","","","","","","","","canvas-button-response","238","340034","0.0-238.0","774","4","","","","","","","","","","","","","","confidence","","","2","9","","","","","","","","","","3"
"","","","","","","","","","","","preload","239","340035","0.0-239.0","","","","","true","","","","","","","","","","","preload","","","2","10","false","[]","[]","[]","","","","","",""
"","","","","","","","","","","","canvas-keyboard-response","240","340350","0.0-240.0","null","null","","","","","","","","","","","","","","fixation","","","2","10","","","","","","","","","",""
"","","","","","","","","","","","canvas-keyboard-response","241","340654","0.0-241.0","null","null","","","","","","","","","","","","","","stimulus","","","2","10","","","","","","","","","",""
"","","","","","","","","","","","canvas-button-response","242","341713","0.0-242.0","1056","house","","","","","","","","","","","","","","perceptual","","","2","10","","","","","270","train","10","0","0",""
"","","","","","","","","","","","canvas-button-response","243","343438","0.0-243.0","1723","1","","","","","","","","","","","","","","confidence","","","2","10","","","","","","","","","","3"
"","","","","","","","","","","","preload","244","343440","0.0-244.0","","","","","true","","","","","","","","","","","preload","","","2","11","false","[]","[]","[]","","","","","",""
"","","","","","","","","","","","canvas-keyboard-response","245","343755","0.0-245.0","null","null","","","","","","","","","","","","","","fixation","","","2","11","","","","","","","","","",""
"","","","","","","","","","","","canvas-keyboard-response","246","344059","0.0-246.0","null","null","","","","","","","","","","","","","","stimulus","","","2","11","","","","","","","","","",""
"","","","","","","","","","","","canvas-button-response","247","345614","0.0-247.0","1552","knife","","","","","","","","","","","","","","perceptual","","","2","11","","","","","387","knife","10","0","1",""
"","","","","","","","","","","","canvas-button-response","248","346480","0.0-248.0","862","10","","","","","","","","","","","","","","confidence","","","2","11","","","","","","","","","","4"
"","","","","","","","","","","","preload","249","346482","0.0-249.0","","","","","true","","","","","","","","","","","preload","","","2","12","false","[]","[]","[]","","","","","",""
"","","","","","","","","","","","canvas-keyboard-response","250","346796","0.0-250.0","null","null","","","","","","","","","","","","","","fixation","","","2","12","","","","","","","","","",""
"","","","","","","","","","","","canvas-keyboard-response","251","347101","0.0-251.0","null","null","","","","","","","","","","","","","","stimulus","","","2","12","","","","","","","","","",""
"","","","","","","","","","","","canvas-button-response","252","349640","0.0-252.0","2535","house","","","","","","","","","","","","","","perceptual","","","2","12","","","","","32","house","10","0","1",""
"","","","","","","","","","","","canvas-button-response","253","350877","0.0-253.0","1234","2","","","","","","","","","","","","","","confidence","","","2","12","","","","","","","","","","5"
"","","","","","","","","","","","preload","254","350879","0.0-254.0","","","","","true","","","","","","","","","","","preload","","","2","13","false","[]","[]","[]","","","","","",""
"","","","","","","","","","","","canvas-keyboard-response","255","351194","0.0-255.0","null","null","","","","","","","","","","","","","","fixation","","","2","13","","","","","","","","","",""
"","","","","","","","","","","","canvas-keyboard-response","256","351501","0.0-256.0","null","null","","","","","","","","","","","","","","stimulus","","","2","13","","","","","","","","","",""
"","","","","","","","","","","","canvas-button-response","257","357419","0.0-257.0","5915","flower","","","","","","","","","","","","","","perceptual","","","2","13","","","","","368","knife","6","0","0",""
"","","","","","","","","","","","canvas-button-response","258","358793","0.0-258.0","1370","1","","","","","","","","","","","","","","confidence","","","2","13","","","","","","","","","","5"
"","","","","","","","","","","","preload","259","358794","0.0-259.0","","","","","true","","","","","","","","","","","preload","","","2","14","false","[]","[]","[]","","","","","",""
"","","","","","","","","","","","canvas-keyboard-response","260","359111","0.0-260.0","null","null","","","","","","","","","","","","","","fixation","","","2","14","","","","","","","","","",""
"","","","","","","","","","","","canvas-keyboard-response","261","359415","0.0-261.0","null","null","","","","","","","","","","","","","","stimulus","","","2","14","","","","","","","","","",""
"","","","","","","","","","","","canvas-button-response","262","362561","0.0-262.0","3143","car","","","","","","","","","","","","","","perceptual","","","2","14","","","","","354","elephant","10","0","0",""
"","","","","","","","","","","","canvas-button-response","263","363326","0.0-263.0","762","4","","","","","","","","","","","","","","confidence","","","2","14","","","","","","","","","","5"
"","","","","","","","","","","","preload","264","363328","0.0-264.0","","","","","true","","","","","","","","","","","preload","","","2","15","false","[]","[]","[]","","","","","",""
"","","","","","","","","","","","canvas-keyboard-response","265","363643","0.0-265.0","null","null","","","","","","","","","","","","","","fixation","","","2","15","","","","","","","","","",""
"","","","","","","","","","","","canvas-keyboard-response","266","363947","0.0-266.0","null","null","","","","","","","","","","","","","","stimulus","","","2","15","","","","","","","","","",""
"","","","","","","","","","","","canvas-button-response","267","364895","0.0-267.0","944","car","","","","","","","","","","","","","","perceptual","","","2","15","","","","","70","car","10","0","1",""
"","","","","","","","","","","","canvas-button-response","268","365843","0.0-268.0","945","10","","","","","","","","","","","","","","confidence","","","2","15","","","","","","","","","","6"
"","","","","","","","","","","","preload","269","365845","0.0-269.0","","","","","true","","","","","","","","","","","preload","","","2","16","false","[]","[]","[]","","","","","",""
"","","","","","","","","","","","canvas-keyboard-response","270","366158","0.0-270.0","null","null","","","","","","","","","","","","","","fixation","","","2","16","","","","","","","","","",""
"","","","","","","","","","","","canvas-keyboard-response","271","366464","0.0-271.0","null","null","","","","","","","","","","","","","","stimulus","","","2","16","","","","","","","","","",""
"","","","","","","","","","","","canvas-button-response","272","368039","0.0-272.0","1571","train","","","","","","","","","","","","","","perceptual","","","2","16","","","","","143","bed","10","0","0",""
"","","","","","","","","","","","canvas-button-response","273","369443","0.0-273.0","1401","1","","","","","","","","","","","","","","confidence","","","2","16","","","","","","","","","","6"
"","","","","","","","","","","","preload","274","369444","0.0-274.0","","","","","true","","","","","","","","","","","preload","","","2","17","false","[]","[]","[]","","","","","",""
"","","","","","","","","","","","canvas-keyboard-response","275","369759","0.0-275.0","null","null","","","","","","","","","","","","","","fixation","","","2","17","","","","","","","","","",""
"","","","","","","","","","","","canvas-keyboard-response","276","370063","0.0-276.0","null","null","","","","","","","","","","","","","","stimulus","","","2","17","","","","","","","","","",""
"","","","","","","","","","","","canvas-button-response","277","371819","0.0-277.0","1753","elephant","","","","","","","","","","","","","","perceptual","","","2","17","","","","","195","bridge","10","0","0",""
"","","","","","","","","","","","canvas-button-response","278","373166","0.0-278.0","1343","1","","","","","","","","","","","","","","confidence","","","2","17","","","","","","","","","","6"
"","","","","","","","","","","","preload","279","373167","0.0-279.0","","","","","true","","","","","","","","","","","preload","","","2","18","false","[]","[]","[]","","","","","",""
"","","","","","","","","","","","canvas-keyboard-response","280","373469","0.0-280.0","null","null","","","","","","","","","","","","","","fixation","","","2","18","","","","","","","","","",""
"","","","","","","","","","","","canvas-keyboard-response","281","373772","0.0-281.0","null","null","","","","","","","","","","","","","","stimulus","","","2","18","","","","","","","","","",""
"","","","","","","","","","","","canvas-button-response","282","375147","0.0-282.0","1372","bed","","","","","","","","","","","","","","perceptual","","","2","18","","","","","127","bed","6","0","1",""
"","","","","","","","","","","","canvas-button-response","283","376160","0.0-283.0","1009","10","","","","","","","","","","","","","","confidence","","","2","18","","","","","","","","","","7"
"","","","","","","","","","","","preload","284","376161","0.0-284.0","","","","","true","","","","","","","","","","","preload","","","2","19","false","[]","[]","[]","","","","","",""
"","","","","","","","","","","","canvas-keyboard-response","285","376477","0.0-285.0","null","null","","","","","","","","","","","","","","fixation","","","2","19","","","","","","","","","",""
"","","","","","","","","","","","canvas-keyboard-response","286","376780","0.0-286.0","null","null","","","","","","","","","","","","","","stimulus","","","2","19","","","","","","","","","",""
"","","","","","","","","","","","canvas-button-response","287","378102","0.0-287.0","1319","bridge","","","","","","","","","","","","","","perceptual","","","2","19","","","","","305","cat","10","0","0",""
"","","","","","","","","","","","canvas-button-response","288","379056","0.0-288.0","951","1","","","","","","","","","","","","","","confidence","","","2","19","","","","","","","","","","7"
"","","","","","","","","","","","preload","289","379058","0.0-289.0","","","","","true","","","","","","","","","","","preload","","","2","20","false","[]","[]","[]","","","","","",""
"","","","","","","","","","","","canvas-keyboard-response","290","379360","0.0-290.0","null","null","","","","","","","","","","","","","","fixation","","","2","20","","","","","","","","","",""
"","","","","","","","","","","","canvas-keyboard-response","291","379663","0.0-291.0","null","null","","","","","","","","","","","","","","stimulus","","","2","20","","","","","","","","","",""
"","","","","","","","","","","","canvas-button-response","292","380794","0.0-292.0","1128","house","","","","","","","","","","","","","","perceptual","","","2","20","","","","","4","house","6","0","1",""
"","","","","","","","","","","","canvas-button-response","293","381784","0.0-293.0","987","10","","","","","","","","","","","","","","confidence","","","2","20","","","","","","","","","","8"
"","","","","","","","","","","","preload","294","381786","0.0-294.0","","","","","true","","","","","","","","","","","preload","","","2","21","false","[]","[]","[]","","","","","",""
"","","","","","","","","","","","canvas-keyboard-response","295","382100","0.0-295.0","null","null","","","","","","","","","","","","","","fixation","","","2","21","","","","","","","","","",""
"","","","","","","","","","","","canvas-keyboard-response","296","382406","0.0-296.0","null","null","","","","","","","","","","","","","","stimulus","","","2","21","","","","","","","","","",""
"","","","","","","","","","","","canvas-button-response","297","385467","0.0-297.0","3058","elephant","","","","","","","","","","","","","","perceptual","","","2","21","","","","","327","elephant","6","0","1",""
"","","","","","","","","","","","canvas-button-response","298","386883","0.0-298.0","1413","4","","","","","","","","","","","","","","confidence","","","2","21","","","","","","","","","","9"
"","","","","","","","","","","","preload","299","386885","0.0-299.0","","","","","true","","","","","","","","","","","preload","","","2","22","false","[]","[]","[]","","","","","",""
"","","","","","","","","","","","canvas-keyboard-response","300","387199","0.0-300.0","null","null","","","","","","","","","","","","","","fixation","","","2","22","","","","","","","","","",""
"","","","","","","","","","","","canvas-keyboard-response","301","387506","0.0-301.0","null","null","","","","","","","","","","","","","","stimulus","","","2","22","","","","","","","","","",""
"","","","","","","","","","","","canvas-button-response","302","392038","0.0-302.0","4529","house","","","","","","","","","","","","","","perceptual","","","2","22","","","","","231","flower","10","0","0",""
"","","","","","","","","","","","canvas-button-response","303","392907","0.0-303.0","866","2","","","","","","","","","","","","","","confidence","","","2","22","","","","","","","","","","9"
"","","","","","","","","","","","preload","304","392909","0.0-304.0","","","","","true","","","","","","","","","","","preload","","","2","23","false","[]","[]","[]","","","","","",""
"","","","","","","","","","","","canvas-keyboard-response","305","393222","0.0-305.0","null","null","","","","","","","","","","","","","","fixation","","","2","23","","","","","","","","","",""
"","","","","","","","","","","","canvas-keyboard-response","306","393528","0.0-306.0","null","null","","","","","","","","","","","","","","stimulus","","","2","23","","","","","","","","","",""
"","","","","","","","","","","","canvas-button-response","307","394553","0.0-307.0","1022","bed","","","","","","","","","","","","","","perceptual","","","2","23","","","","","121","bed","6","0","1",""
"","","","","","","","","","","","canvas-button-response","308","395470","0.0-308.0","913","10","","","","","","","","","","","","","","confidence","","","2","23","","","","","","","","","","10"
"","","","","","","","","","","","preload","309","395472","0.0-309.0","","","","","true","","","","","","","","","","","preload","","","2","24","false","[]","[]","[]","","","","","",""
"","","","","","","","","","","","canvas-keyboard-response","310","395787","0.0-310.0","null","null","","","","","","","","","","","","","","fixation","","","2","24","","","","","","","","","",""
"","","","","","","","","","","","canvas-keyboard-response","311","396095","0.0-311.0","null","null","","","","","","","","","","","","","","stimulus","","","2","24","","","","","","","","","",""
"","","","","","","","","","","","canvas-button-response","312","397931","0.0-312.0","1833","car","","","","","","","","","","","","","","perceptual","","","2","24","","","","","90","phone","6","0","0",""
"","","","","","","","","","","","canvas-button-response","313","398862","0.0-313.0","928","2","","","","","","","","","","","","","","confidence","","","2","24","","","","","","","","","","10"
"","","","","","","","","","","","preload","314","398863","0.0-314.0","","","","","true","","","","","","","","","","","preload","","","2","25","false","[]","[]","[]","","","","","",""
"","","","","","","","","","","","canvas-keyboard-response","315","399179","0.0-315.0","null","null","","","","","","","","","","","","","","fixation","","","2","25","","","","","","","","","",""
"","","","","","","","","","","","canvas-keyboard-response","316","399484","0.0-316.0","null","null","","","","","","","","","","","","","","stimulus","","","2","25","","","","","","","","","",""
"","","","","","","","","","","","canvas-button-response","317","400798","0.0-317.0","1311","bed","","","","","","","","","","","","","","perceptual","","","2","25","","","","","384","knife","10","0","0",""
"","","","","","","","","","","","canvas-button-response","318","401694","0.0-318.0","893","0","","","","","","","","","","","","","","confidence","","","2","25","","","","","","","","","","10"
"","","","","","","","","","","","preload","319","401696","0.0-319.0","","","","","true","","","","","","","","","","","preload","","","2","26","false","[]","[]","[]","","","","","",""
"","","","","","","","","","","","canvas-keyboard-response","320","402012","0.0-320.0","null","null","","","","","","","","","","","","","","fixation","","","2","26","","","","","","","","","",""
"","","","","","","","","","","","canvas-keyboard-response","321","402317","0.0-321.0","null","null","","","","","","","","","","","","","","stimulus","","","2","26","","","","","","","","","",""
"","","","","","","","","","","","canvas-button-response","322","403879","0.0-322.0","1558","flower","","","","","","","","","","","","","","perceptual","","","2","26","","","","","223","flower","10","0","1",""
"","","","","","","","","","","","canvas-button-response","323","405300","0.0-323.0","1417","3","","","","","","","","","","","","","","confidence","","","2","26","","","","","","","","","","11"
"","","","","","","","","","","","preload","324","405301","0.0-324.0","","","","","true","","","","","","","","","","","preload","","","2","27","false","[]","[]","[]","","","","","",""
"","","","","","","","","","","","canvas-keyboard-response","325","405617","0.0-325.0","null","null","","","","","","","","","","","","","","fixation","","","2","27","","","","","","","","","",""
"","","","","","","","","","","","canvas-keyboard-response","326","405921","0.0-326.0","null","null","","","","","","","","","","","","","","stimulus","","","2","27","","","","","","","","","",""
"","","","","","","","","","","","canvas-button-response","327","406948","0.0-327.0","1025","bed","","","","","","","","","","","","","","perceptual","","","2","27","","","","","122","bed","6","0","1",""
"","","","","","","","","","","","canvas-button-response","328","408031","0.0-328.0","1079","10","","","","","","","","","","","","","","confidence","","","2","27","","","","","","","","","","12"
"","","","","","","","","","","","preload","329","408032","0.0-329.0","","","","","true","","","","","","","","","","","preload","","","2","28","false","[]","[]","[]","","","","","",""
"","","","","","","","","","","","canvas-keyboard-response","330","408348","0.0-330.0","null","null","","","","","","","","","","","","","","fixation","","","2","28","","","","","","","","","",""
"","","","","","","","","","","","canvas-keyboard-response","331","408657","0.0-331.0","null","null","","","","","","","","","","","","","","stimulus","","","2","28","","","","","","","","","",""
"","","","","","","","","","","","canvas-button-response","332","409820","0.0-332.0","1160","knife","","","","","","","","","","","","","","perceptual","","","2","28","","","","","393","knife","10","0","1",""
"","","","","","","","","","","","canvas-button-response","333","410912","0.0-333.0","1088","10","","","","","","","","","","","","","","confidence","","","2","28","","","","","","","","","","13"
"","","","","","","","","","","","preload","334","410913","0.0-334.0","","","","","true","","","","","","","","","","","preload","","","2","29","false","[]","[]","[]","","","","","",""
"","","","","","","","","","","","canvas-keyboard-response","335","411227","0.0-335.0","null","null","","","","","","","","","","","","","","fixation","","","2","29","","","","","","","","","",""
"","","","","","","","","","","","canvas-keyboard-response","336","411531","0.0-336.0","null","null","","","","","","","","","","","","","","stimulus","","","2","29","","","","","","","","","",""
"","","","","","","","","","","","canvas-button-response","337","412954","0.0-337.0","1420","house","","","","","","","","","","","","","","perceptual","","","2","29","","","","","38","house","10","0","1",""
"","","","","","","","","","","","canvas-button-response","338","413779","0.0-338.0","821","2","","","","","","","","","","","","","","confidence","","","2","29","","","","","","","","","","14"
"","","","","","","","","","","","preload","339","413780","0.0-339.0","","","","","true","","","","","","","","","","","preload","","","2","30","false","[]","[]","[]","","","","","",""
"","","","","","","","","","","","canvas-keyboard-response","340","414095","0.0-340.0","null","null","","","","","","","","","","","","","","fixation","","","2","30","","","","","","","","","",""
"","","","","","","","","","","","canvas-keyboard-response","341","414400","0.0-341.0","null","null","","","","","","","","","","","","","","stimulus","","","2","30","","","","","","","","","",""
"","","","","","","","","","","","canvas-button-response","342","416784","0.0-342.0","2380","bridge","","","","","","","","","","","","","","perceptual","","","2","30","","","","","159","bed","10","0","0",""
"","","","","","","","","","","","canvas-button-response","343","417603","0.0-343.0","816","2","","","","","","","","","","","","","","confidence","","","2","30","","","","","","","","","","14"
"","","","","","","","","","","","preload","344","417605","0.0-344.0","","","","","true","","","","","","","","","","","preload","","","2","31","false","[]","[]","[]","","","","","",""
"","","","","","","","","","","","canvas-keyboard-response","345","417921","0.0-345.0","null","null","","","","","","","","","","","","","","fixation","","","2","31","","","","","","","","","",""
"","","","","","","","","","","","canvas-keyboard-response","346","418225","0.0-346.0","null","null","","","","","","","","","","","","","","stimulus","","","2","31","","","","","","","","","",""
"","","","","","","","","","","","canvas-button-response","347","419617","0.0-347.0","1389","cat","","","","","","","","","","","","","","perceptual","","","2","31","","","","","297","cat","6","0","1",""
"","","","","","","","","","","","canvas-button-response","348","420682","0.0-348.0","1061","10","","","","","","","","","","","","","","confidence","","","2","31","","","","","","","","","","15"
"","","","","","","","","","","","preload","349","420683","0.0-349.0","","","","","true","","","","","","","","","","","preload","","","2","32","false","[]","[]","[]","","","","","",""
"","","","","","","","","","","","canvas-keyboard-response","350","420999","0.0-350.0","null","null","","","","","","","","","","","","","","fixation","","","2","32","","","","","","","","","",""
"","","","","","","","","","","","canvas-keyboard-response","351","421305","0.0-351.0","null","null","","","","","","","","","","","","","","stimulus","","","2","32","","","","","","","","","",""
"","","","","","","","","","","","canvas-button-response","352","422589","0.0-352.0","1282","bed","","","","","","","","","","","","","","perceptual","","","2","32","","","","","310","cat","10","0","0",""
"","","","","","","","","","","","canvas-button-response","353","423368","0.0-353.0","776","2","","","","","","","","","","","","","","confidence","","","2","32","","","","","","","","","","15"
"","","","","","","","","","","","preload","354","423370","0.0-354.0","","","","","true","","","","","","","","","","","preload","","","2","33","false","[]","[]","[]","","","","","",""
"","","","","","","","","","","","canvas-keyboard-response","355","423685","0.0-355.0","null","null","","","","","","","","","","","","","","fixation","","","2","33","","","","","","","","","",""
"","","","","","","","","","","","canvas-keyboard-response","356","423990","0.0-356.0","null","null","","","","","","","","","","","","","","stimulus","","","2","33","","","","","","","","","",""
"","","","","","","","","","","","canvas-button-response","357","424896","0.0-357.0","903","flower","","","","","","","","","","","","","","perceptual","","","2","33","","","","","234","flower","10","0","1",""
"","","","","","","","","","","","canvas-button-response","358","425859","0.0-358.0","959","10","","","","","","","","","","","","","","confidence","","","2","33","","","","","","","","","","16"
"","","","","","","","","","","","preload","359","425860","0.0-359.0","","","","","true","","","","","","","","","","","preload","","","2","34","false","[]","[]","[]","","","","","",""
"","","","","","","","","","","","canvas-keyboard-response","360","426177","0.0-360.0","null","null","","","","","","","","","","","","","","fixation","","","2","34","","","","","","","","","",""
"","","","","","","","","","","","canvas-keyboard-response","361","426480","0.0-361.0","null","null","","","","","","","","","","","","","","stimulus","","","2","34","","","","","","","","","",""
"","","","","","","","","","","","canvas-button-response","362","428135","0.0-362.0","1651","elephant","","","","","","","","","","","","","","perceptual","","","2","34","","","","","318","cat","10","0","0",""
"","","","","","","","","","","","canvas-button-response","363","429080","0.0-363.0","942","5","","","","","","","","","","","","","","confidence","","","2","34","","","","","","","","","","16"
"","","","","","","","","","","","preload","364","429081","0.0-364.0","","","","","true","","","","","","","","","","","preload","","","2","35","false","[]","[]","[]","","","","","",""
"","","","","","","","","","","","canvas-keyboard-response","365","429396","0.0-365.0","null","null","","","","","","","","","","","","","","fixation","","","2","35","","","","","","","","","",""
"","","","","","","","","","","","canvas-keyboard-response","366","429701","0.0-366.0","null","null","","","","","","","","","","","","","","stimulus","","","2","35","","","","","","","","","",""
"","","","","","","","","","","","canvas-button-response","367","431016","0.0-367.0","1312","bridge","","","","","","","","","","","","","","perceptual","","","2","35","","","","","183","bridge","10","0","1",""
"","","","","","","","","","","","canvas-button-response","368","431671","0.0-368.0","651","2","","","","","","","","","","","","","","confidence","","","2","35","","","","","","","","","","17"
"","","","","","","","","","","","preload","369","431672","0.0-369.0","","","","","true","","","","","","","","","","","preload","","","2","36","false","[]","[]","[]","","","","","",""
"","","","","","","","","","","","canvas-keyboard-response","370","431988","0.0-370.0","null","null","","","","","","","","","","","","","","fixation","","","2","36","","","","","","","","","",""
"","","","","","","","","","","","canvas-keyboard-response","371","432294","0.0-371.0","null","null","","","","","","","","","","","","","","stimulus","","","2","36","","","","","","","","","",""
"","","","","","","","","","","","canvas-button-response","372","433446","0.0-372.0","1148","elephant","","","","","","","","","","","","","","perceptual","","","2","36","","","","","33","house","10","0","0",""
"","","","","","","","","","","","canvas-button-response","373","434391","0.0-373.0","942","10","","","","","","","","","","","","","","confidence","","","2","36","","","","","","","","","","17"
"","","","","","","","","","","","preload","374","434392","0.0-374.0","","","","","true","","","","","","","","","","","preload","","","2","37","false","[]","[]","[]","","","","","",""
"","","","","","","","","","","","canvas-keyboard-response","375","434707","0.0-375.0","null","null","","","","","","","","","","","","","","fixation","","","2","37","","","","","","","","","",""
"","","","","","","","","","","","canvas-keyboard-response","376","435014","0.0-376.0","null","null","","","","","","","","","","","","","","stimulus","","","2","37","","","","","","","","","",""
"","","","","","","","","","","","canvas-button-response","377","437176","0.0-377.0","2158","phone","","","","","","","","","","","","","","perceptual","","","2","37","","","","","116","phone","10","0","1",""
"","","","","","","","","","","","canvas-button-response","378","438015","0.0-378.0","836","1","","","","","","","","","","","","","","confidence","","","2","37","","","","","","","","","","18"
"","","","","","","","","","","","preload","379","438016","0.0-379.0","","","","","true","","","","","","","","","","","preload","","","2","38","false","[]","[]","[]","","","","","",""
"","","","","","","","","","","","canvas-keyboard-response","380","438330","0.0-380.0","null","null","","","","","","","","","","","","","","fixation","","","2","38","","","","","","","","","",""
"","","","","","","","","","","","canvas-keyboard-response","381","438634","0.0-381.0","null","null","","","","","","","","","","","","","","stimulus","","","2","38","","","","","","","","","",""
"","","","","","","","","","","","canvas-button-response","382","439812","0.0-382.0","1175","car","","","","","","","","","","","","","","perceptual","","","2","38","","","","","78","car","10","0","1",""
"","","","","","","","","","","","canvas-button-response","383","440785","0.0-383.0","969","10","","","","","","","","","","","","","","confidence","","","2","38","","","","","","","","","","19"
"","","","","","","","","","","","preload","384","440786","0.0-384.0","","","","","true","","","","","","","","","","","preload","","","2","39","false","[]","[]","[]","","","","","",""
"","","","","","","","","","","","canvas-keyboard-response","385","441100","0.0-385.0","null","null","","","","","","","","","","","","","","fixation","","","2","39","","","","","","","","","",""
"","","","","","","","","","","","canvas-keyboard-response","386","441407","0.0-386.0","null","null","","","","","","","","","","","","","","stimulus","","","2","39","","","","","","","","","",""
"","","","","","","","","","","","canvas-button-response","387","442633","0.0-387.0","1223","house","","","","","","","","","","","","","","perceptual","","","2","39","","","","","16","house","6","0","1",""
"","","","","","","","","","","","canvas-button-response","388","443568","0.0-388.0","932","10","","","","","","","","","","","","","","confidence","","","2","39","","","","","","","","","","20"
"","","","","","","","","","","","preload","389","443570","0.0-389.0","","","","","true","","","","","","","","","","","preload","","","2","40","false","[]","[]","[]","","","","","",""
"","","","","","","","","","","","canvas-keyboard-response","390","443884","0.0-390.0","null","null","","","","","","","","","","","","","","fixation","","","2","40","","","","","","","","","",""
"","","","","","","","","","","","canvas-keyboard-response","391","444188","0.0-391.0","null","null","","","","","","","","","","","","","","stimulus","","","2","40","","","","","","","","","",""
"","","","","","","","","","","","canvas-button-response","392","445676","0.0-392.0","1485","cat","","","","","","","","","","","","","","perceptual","","","2","40","","","","","319","cat","10","0","1",""
"","","","","","","","","","","","canvas-button-response","393","446650","0.0-393.0","971","10","","","","","","","","","","","","","","confidence","","","2","40","","","","","","","","","","21"
"","","","","","","","","","","","preload","394","446652","0.0-394.0","","","","","true","","","","","","","","","","","preload","","","2","41","false","[]","[]","[]","","","","","",""
"","","","","","","","","","","","canvas-keyboard-response","395","446969","0.0-395.0","null","null","","","","","","","","","","","","","","fixation","","","2","41","","","","","","","","","",""
"","","","","","","","","","","","canvas-keyboard-response","396","447274","0.0-396.0","null","null","","","","","","","","","","","","","","stimulus","","","2","41","","","","","","","","","",""
"","","","","","","","","","","","canvas-button-response","397","448423","0.0-397.0","1146","elephant","","","","","","","","","","","","","","perceptual","","","2","41","","","","","333","elephant","6","0","1",""
"","","","","","","","","","","","canvas-button-response","398","449314","0.0-398.0","886","10","","","","","","","","","","","","","","confidence","","","2","41","","","","","","","","","","22"
"","","","","","","","","","","","preload","399","449315","0.0-399.0","","","","","true","","","","","","","","","","","preload","","","2","42","false","[]","[]","[]","","","","","",""
"","","","","","","","","","","","canvas-keyboard-response","400","449629","0.0-400.0","null","null","","","","","","","","","","","","","","fixation","","","2","42","","","","","","","","","",""
"","","","","","","","","","","","canvas-keyboard-response","401","449935","0.0-401.0","null","null","","","","","","","","","","","","","","stimulus","","","2","42","","","","","","","","","",""
"","","","","","","","","","","","canvas-button-response","402","451264","0.0-402.0","1326","bridge","","","","","","","","","","","","","","perceptual","","","2","42","","","","","164","bridge","6","0","1",""
"","","","","","","","","","","","canvas-button-response","403","452363","0.0-403.0","1095","10","","","","","","","","","","","","","","confidence","","","2","42","","","","","","","","","","23"
"","","","","","","","","","","","preload","404","452365","0.0-404.0","","","","","true","","","","","","","","","","","preload","","","2","43","false","[]","[]","[]","","","","","",""
"","","","","","","","","","","","canvas-keyboard-response","405","452679","0.0-405.0","null","null","","","","","","","","","","","","","","fixation","","","2","43","","","","","","","","","",""
"","","","","","","","","","","","canvas-keyboard-response","406","452981","0.0-406.0","null","null","","","","","","","","","","","","","","stimulus","","","2","43","","","","","","","","","",""
"","","","","","","","","","","","canvas-button-response","407","458023","0.0-407.0","5038","phone","","","","","","","","","","","","","","perceptual","","","2","43","","","","","150","bed","10","0","0",""
"","","","","","","","","","","","canvas-button-response","408","459149","0.0-408.0","1122","3","","","","","","","","","","","","","","confidence","","","2","43","","","","","","","","","","23"
"","","","","","","","","","","","preload","409","459150","0.0-409.0","","","","","true","","","","","","","","","","","preload","","","2","44","false","[]","[]","[]","","","","","",""
"","","","","","","","","","","","canvas-keyboard-response","410","459465","0.0-410.0","null","null","","","","","","","","","","","","","","fixation","","","2","44","","","","","","","","","",""
"","","","","","","","","","","","canvas-keyboard-response","411","459770","0.0-411.0","null","null","","","","","","","","","","","","","","stimulus","","","2","44","","","","","","","","","",""
"","","","","","","","","","","","canvas-button-response","412","461209","0.0-412.0","1435","phone","","","","","","","","","","","","","","perceptual","","","2","44","","","","","383","knife","10","0","0",""
"","","","","","","","","","","","canvas-button-response","413","462242","0.0-413.0","1030","2","","","","","","","","","","","","","","confidence","","","2","44","","","","","","","","","","23"
"","","","","","","","","","","","preload","414","462243","0.0-414.0","","","","","true","","","","","","","","","","","preload","","","2","45","false","[]","[]","[]","","","","","",""
"","","","","","","","","","","","canvas-keyboard-response","415","462545","0.0-415.0","null","null","","","","","","","","","","","","","","fixation","","","2","45","","","","","","","","","",""
"","","","","","","","","","","","canvas-keyboard-response","416","462850","0.0-416.0","null","null","","","","","","","","","","","","","","stimulus","","","2","45","","","","","","","","","",""
"","","","","","","","","","","","canvas-button-response","417","463936","0.0-417.0","1083","knife","","","","","","","","","","","","","","perceptual","","","2","45","","","","","362","knife","6","0","1",""
"","","","","","","","","","","","canvas-button-response","418","464882","0.0-418.0","942","10","","","","","","","","","","","","","","confidence","","","2","45","","","","","","","","","","24"
"","","","","","","","","","","","preload","419","464883","0.0-419.0","","","","","true","","","","","","","","","","","preload","","","2","46","false","[]","[]","[]","","","","","",""
"","","","","","","","","","","","canvas-keyboard-response","420","465199","0.0-420.0","null","null","","","","","","","","","","","","","","fixation","","","2","46","","","","","","","","","",""
"","","","","","","","","","","","canvas-keyboard-response","421","465504","0.0-421.0","null","null","","","","","","","","","","","","","","stimulus","","","2","46","","","","","","","","","",""
"","","","","","","","","","","","canvas-button-response","422","466972","0.0-422.0","1465","house","","","","","","","","","","","","","","perceptual","","","2","46","","","","","1","house","6","0","1",""
"","","","","","","","","","","","canvas-button-response","423","468270","0.0-423.0","1294","10","","","","","","","","","","","","","","confidence","","","2","46","","","","","","","","","","25"
"","","","","","","","","","","","preload","424","468272","0.0-424.0","","","","","true","","","","","","","","","","","preload","","","2","47","false","[]","[]","[]","","","","","",""
"","","","","","","","","","","","canvas-keyboard-response","425","468585","0.0-425.0","null","null","","","","","","","","","","","","","","fixation","","","2","47","","","","","","","","","",""
"","","","","","","","","","","","canvas-keyboard-response","426","468890","0.0-426.0","null","null","","","","","","","","","","","","","","stimulus","","","2","47","","","","","","","","","",""
"","","","","","","","","","","","canvas-button-response","427","470605","0.0-427.0","1712","cat","","","","","","","","","","","","","","perceptual","","","2","47","","","","","296","cat","6","0","1",""
"","","","","","","","","","","","canvas-button-response","428","471462","0.0-428.0","853","4","","","","","","","","","","","","","","confidence","","","2","47","","","","","","","","","","26"
"","","","","","","","","","","","preload","429","471463","0.0-429.0","","","","","true","","","","","","","","","","","preload","","","2","48","false","[]","[]","[]","","","","","",""
"","","","","","","","","","","","canvas-keyboard-response","430","471776","0.0-430.0","null","null","","","","","","","","","","","","","","fixation","","","2","48","","","","","","","","","",""
"","","","","","","","","","","","canvas-keyboard-response","431","472081","0.0-431.0","null","null","","","","","","","","","","","","","","stimulus","","","2","48","","","","","","","","","",""
"","","","","","","","","","","","canvas-button-response","432","473887","0.0-432.0","1803","car","","","","","","","","","","","","","","perceptual","","","2","48","","","","","100","phone","10","0","0",""
"","","","","","","","","","","","canvas-button-response","433","474710","0.0-433.0","820","3","","","","","","","","","","","","","","confidence","","","2","48","","","","","","","","","","26"
"","","","","","","","","","","","preload","434","474711","0.0-434.0","","","","","true","","","","","","","","","","","preload","","","2","49","false","[]","[]","[]","","","","","",""
"","","","","","","","","","","","canvas-keyboard-response","435","475028","0.0-435.0","null","null","","","","","","","","","","","","","","fixation","","","2","49","","","","","","","","","",""
"","","","","","","","","","","","canvas-keyboard-response","436","475333","0.0-436.0","null","null","","","","","","","","","","","","","","stimulus","","","2","49","","","","","","","","","",""
"","","","","","","","","","","","canvas-button-response","437","476984","0.0-437.0","1648","bridge","","","","","","","","","","","","","","perceptual","","","2","49","","","","","277","train","10","0","0",""
"","","","","","","","","","","","canvas-button-response","438","478735","0.0-438.0","1747","5","","","","","","","","","","","","","","confidence","","","2","49","","","","","","","","","","26"
"","","","","","","","","","","","html-button-response","439","482991","0.0-439.0","4252","0","","","","","","","","","","","","","","<p style=""font-size:20px;color:#000000"">You got 26 out of 50 trials correct in this block.<br><br>You have completed 6% of the experiment.<br><br>Take a short break.<br><br>When you are ready, click Continue to proceed.","","","2","49","","","","","","","","","",""
"","","","","","","","","","","","html-keyboard-response","440","483995","0.0-440.0","null","null","","","","","","","","","","","","","","<p style=""font-size:32px;color:#000000""><br><br> RUN: &nbsp 1/4 <br><br> BLOCK: 2/4 ","","","2","49","","","","","","","","","",""
"","","","","","","","","","","","preload","441","483996","0.0-441.0","","","","","true","","","","","","","","","","","preload","","","2","50","false","[]","[]","[]","","","","","",""
"","","","","","","","","","","","canvas-keyboard-response","442","484301","0.0-442.0","null","null","","","","","","","","","","","","","","fixation","","","2","50","","","","","","","","","",""
"","","","","","","","","","","","canvas-keyboard-response","443","484608","0.0-443.0","null","null","","","","","","","","","","","","","","stimulus","","","2","50","","","","","","","","","",""
"","","","","","","","","","","","canvas-button-response","444","493975","0.0-444.0","9364","knife","","","","","","","","","","","","","","perceptual","","","2","50","","","","","344","elephant","10","0","0",""
"","","","","","","","","","","","canvas-button-response","445","494156","0.0-445.0","178","6","","","","","","","","","","","","","","confidence","","","2","50","","","","","","","","","","0"
"","","","","","","","","","","","preload","446","494158","0.0-446.0","","","","","true","","","","","","","","","","","preload","","","2","51","false","[]","[]","[]","","","","","",""
"","","","","","","","","","","","canvas-keyboard-response","447","494474","0.0-447.0","null","null","","","","","","","","","","","","","","fixation","","","2","51","","","","","","","","","",""
"","","","","","","","","","","","canvas-keyboard-response","448","494776","0.0-448.0","null","null","","","","","","","","","","","","","","stimulus","","","2","51","","","","","","","","","",""
"","","","","","","","","","","","canvas-button-response","449","495004","0.0-449.0","222","knife","","","","","","","","","","","","","","perceptual","","","2","51","","","","","206","flower","6","0","0",""
"","","","","","","","","","","","canvas-button-response","450","495247","0.0-450.0","239","6","","","","","","","","","","","","","","confidence","","","2","51","","","","","","","","","","0"
"","","","","","","","","","","","preload","451","495248","0.0-451.0","","","","","true","","","","","","","","","","","preload","","","2","52","false","[]","[]","[]","","","","","",""
"","","","","","","","","","","","canvas-keyboard-response","452","495553","0.0-452.0","null","null","","","","","","","","","","","","","","fixation","","","2","52","","","","","","","","","",""
"","","","","","","","","","","","canvas-keyboard-response","453","495860","0.0-453.0","null","null","","","","","","","","","","","","","","stimulus","","","2","52","","","","","","","","","",""
"","","","","","","","","","","","canvas-button-response","454","496100","0.0-454.0","237","knife","","","","","","","","","","","","","","perceptual","","","2","52","","","","","77","car","10","0","0",""
"","","","","","","","","","","","canvas-button-response","455","496323","0.0-455.0","217","6","","","","","","","","","","","","","","confidence","","","2","52","","","","","","","","","","0"
"","","","","","","","","","","","preload","456","496325","0.0-456.0","","","","","true","","","","","","","","","","","preload","","","2","53","false","[]","[]","[]","","","","","",""
"","","","","","","","","","","","canvas-keyboard-response","457","496636","0.0-457.0","null","null","","","","","","","","","","","","","","fixation","","","2","53","","","","","","","","","",""
"","","","","","","","","","","","canvas-keyboard-response","458","496941","0.0-458.0","null","null","","","","","","","","","","","","","","stimulus","","","2","53","","","","","","","","","",""
"","","","","","","","","","","","canvas-button-response","459","497829","0.0-459.0","884","phone","","","","","","","","","","","","","","perceptual","","","2","53","","","","","276","train","10","0","0",""
"","","","","","","","","","","","canvas-button-response","460","498560","0.0-460.0","727","7","","","","","","","","","","","","","","confidence","","","2","53","","","","","","","","","","0"
"","","","","","","","","","","","preload","461","498561","0.0-461.0","","","","","true","","","","","","","","","","","preload","","","2","54","false","[]","[]","[]","","","","","",""
"","","","","","","","","","","","canvas-keyboard-response","462","498876","0.0-462.0","null","null","","","","","","","","","","","","","","fixation","","","2","54","","","","","","","","","",""
"","","","","","","","","","","","canvas-keyboard-response","463","499180","0.0-463.0","null","null","","","","","","","","","","","","","","stimulus","","","2","54","","","","","","","","","",""
"","","","","","","","","","","","canvas-button-response","464","500086","0.0-464.0","902","car","","","","","","","","","","","","","","perceptual","","","2","54","","","","","271","train","10","0","0",""
"","","","","","","","","","","","canvas-button-response","465","500712","0.0-465.0","623","3","","","","","","","","","","","","","","confidence","","","2","54","","","","","","","","","","0"
"","","","","","","","","","","","preload","466","500713","0.0-466.0","","","","","true","","","","","","","","","","","preload","","","2","55","false","[]","[]","[]","","","","","",""
"","","","","","","","","","","","canvas-keyboard-response","467","501027","0.0-467.0","null","null","","","","","","","","","","","","","","fixation","","","2","55","","","","","","","","","",""
"","","","","","","","","","","","canvas-keyboard-response","468","501332","0.0-468.0","null","null","","","","","","","","","","","","","","stimulus","","","2","55","","","","","","","","","",""
"","","","","","","","","","","","canvas-button-response","469","502138","0.0-469.0","803","elephant","","","","","","","","","","","","","","perceptual","","","2","55","","","","","335","elephant","6","0","1",""
"","","","","","","","","","","","canvas-button-response","470","502357","0.0-470.0","216","9","","","","","","","","","","","","","","confidence","","","2","55","","","","","","","","","","1"
"","","","","","","","","","","","preload","471","502359","0.0-471.0","","","","","true","","","","","","","","","","","preload","","","2","56","false","[]","[]","[]","","","","","",""
"","","","","","","","","","","","canvas-keyboard-response","472","502676","0.0-472.0","null","null","","","","","","","","","","","","","","fixation","","","2","56","","","","","","","","","",""
"","","","","","","","","","","","canvas-keyboard-response","473","502981","0.0-473.0","null","null","","","","","","","","","","","","","","stimulus","","","2","56","","","","","","","","","",""
"","","","","","","","","","","","canvas-button-response","474","505962","0.0-474.0","2978","bed","","","","","","","","","","","","","","perceptual","","","2","56","","","","","64","car","10","0","0",""
"","","","","","","","","","","","canvas-button-response","475","507018","0.0-475.0","1053","1","","","","","","","","","","","","","","confidence","","","2","56","","","","","","","","","","1"
"","","","","","","","","","","","preload","476","507020","0.0-476.0","","","","","true","","","","","","","","","","","preload","","","2","57","false","[]","[]","[]","","","","","",""
"","","","","","","","","","","","canvas-keyboard-response","477","507323","0.0-477.0","null","null","","","","","","","","","","","","","","fixation","","","2","57","","","","","","","","","",""
"","","","","","","","","","","","canvas-keyboard-response","478","507640","0.0-478.0","null","null","","","","","","","","","","","","","","stimulus","","","2","57","","","","","","","","","",""
"","","","","","","","","","","","canvas-button-response","479","508620","0.0-479.0","977","car","","","","","","","","","","","","","","perceptual","","","2","57","","","","","75","car","10","0","1",""
"","","","","","","","","","","","canvas-button-response","480","510163","0.0-480.0","1540","10","","","","","","","","","","","","","","confidence","","","2","57","","","","","","","","","","2"
"","","","","","","","","","","","preload","481","510165","0.0-481.0","","","","","true","","","","","","","","","","","preload","","","2","58","false","[]","[]","[]","","","","","",""
"","","","","","","","","","","","canvas-keyboard-response","482","510479","0.0-482.0","null","null","","","","","","","","","","","","","","fixation","","","2","58","","","","","","","","","",""
"","","","","","","","","","","","canvas-keyboard-response","483","510782","0.0-483.0","null","null","","","","","","","","","","","","","","stimulus","","","2","58","","","","","","","","","",""
"","","","","","","","","","","","canvas-button-response","484","511736","0.0-484.0","951","car","","","","","","","","","","","","","","perceptual","","","2","58","","","","","65","car","10","0","1",""
"","","","","","","","","","","","canvas-button-response","485","512651","0.0-485.0","912","10","","","","","","","","","","","","","","confidence","","","2","58","","","","","","","","","","3"
"","","","","","","","","","","","preload","486","512652","0.0-486.0","","","","","true","","","","","","","","","","","preload","","","2","59","false","[]","[]","[]","","","","","",""
"","","","","","","","","","","","canvas-keyboard-response","487","512955","0.0-487.0","null","null","","","","","","","","","","","","","","fixation","","","2","59","","","","","","","","","",""
"","","","","","","","","","","","canvas-keyboard-response","488","513257","0.0-488.0","null","null","","","","","","","","","","","","","","stimulus","","","2","59","","","","","","","","","",""
"","","","","","","","","","","","canvas-button-response","489","514311","0.0-489.0","1051","house","","","","","","","","","","","","","","perceptual","","","2","59","","","","","141","bed","10","0","0",""
"","","","","","","","","","","","canvas-button-response","490","514476","0.0-490.0","162","3","","","","","","","","","","","","","","confidence","","","2","59","","","","","","","","","","3"
"","","","","","","","","","","","preload","491","514478","0.0-491.0","","","","","true","","","","","","","","","","","preload","","","2","60","false","[]","[]","[]","","","","","",""
