"width","height","webaudio","browser","browser_version","mobile","os","fullscreen","vsync_rate","webcam","microphone","trial_type","trial_index","time_elapsed","internal_node_id","rt","response","accuracy","view_history","success","item_width_mm","item_height_mm","item_width_px","px2mm","view_dist_mm","item_width_deg","px2deg","scale_factor","win_width_deg","win_height_deg","stimulus","datetime","subjectID","curr_triallist","trial_no","timeout","failed_images","failed_audio","failed_video","image_index","category","blur","reps","correct","running_score"
"1440","778","true","chrome","129.0.0","false","Mac OS","true","30","true","true","browser-check","0","2021","0.0-0.0","","","","","","","","","","","","","","","","","","","","","","","","","","","","","",""
"","","","","","","","","","","","survey","1","36434","0.0-1.0","34368","{""P0_Q0"":""904085886"",""P0_Q1"":""18"",""P1_Q0"":""Female"",""P1_Q1"":""Not Hispanic or Latino"",""P1_Q2"":""White"",""P1_Q3"":""Corrected-to-Normal (using glasses/contacts)"",""P1_Q4"":""Left-Handed""}","[]","","","","","","","","","","","","","","","","","","","","","","","","","","",""
"","","","","","","","","","","","instructions","2","6070329","0.0-2.0","3468628","","","[{""page_index"":0,""viewing_time"":2290},{""page_index"":1,""viewing_time"":31729},{""page_index"":2,""viewing_time"":3425819},{""page_index"":3,""viewing_time"":8785}]","","","","","","","","","","","","","","","","","","","","","","","","","",""
"","","","","","","","","","","","fullscreen","3","6074105","0.0-3.0","2765","","","","true","","","","","","","","","","","","","","","","","","","","","","","","",""
"","","","","","","","","","","","virtual-chinrest","4","6216967","0.0-4.0","142854","","","","","85.6","53.98","351.3106541829903","4.101347637206072","417.36","11.710355139433009","30","1.2239879288603133","48","30","","","","","","","","","","","","","","",""
"","","","","","","","","","","","instructions","5","6421516","0.0-5.0","204548","","","[{""page_index"":0,""viewing_time"":24139},{""page_index"":1,""viewing_time"":13436},{""page_index"":2,""viewing_time"":10287},{""page_index"":3,""viewing_time"":53806},{""page_index"":4,""viewing_time"":64398},{""page_index"":5,""viewing_time"":33054},{""page_index"":6,""viewing_time"":5428}]","","","","","","","","","","","","","","","","","","","","","","","","","",""
"","","","","","","","","","","","html-button-response","6","6429203","0.0-6.0","7680","0","","","","","","","","","","","","","","start_practice","Thu Oct 09 2025 14:49:09 GMT-0400 (Eastern Daylight Time)","27263","","","","","","","","","","","",""
"","","","","","","","","","","","preload","7","6429204","0.0-7.0","","","","","true","","","","","","","","","","","preload","","","0","0","false","[]","[]","[]","","","","","",""
"","","","","","","","","","","","canvas-keyboard-response","8","6429518","0.0-8.0","null","null","","","","","","","","","","","","","","fixation","","","0","0","","","","","","","","","",""
"","","","","","","","","","","","canvas-keyboard-response","9","6429824","0.0-9.0","null","null","","","","","","","","","","","","","","stimulus","","","0","0","","","","","","","","","",""
"","","","","","","","","","","","canvas-button-response","10","6432729","0.0-10.0","2901","cat","","","","","","","","","","","","","","perceptual","","","0","0","","","","","72","cat","1","","1",""
"","","","","","","","","","","","canvas-button-response","11","6435353","0.0-11.0","2622","10","","","","","","","","","","","","","","confidence","","","0","0","","","","","","","","","","1"
"","","","","","","","","","","","html-keyboard-response","12","6436356","0.0-12.0","null","null","","","","","","","","","","","","","","feedback","Thu Oct 09 2025 14:49:23 GMT-0400 (Eastern Daylight Time)","27263","0","0","","","","","","","","","",""
"","","","","","","","","","","","preload","13","6436357","0.0-13.0","","","","","true","","","","","","","","","","","preload","","","0","1","false","[]","[]","[]","","","","","",""
"","","","","","","","","","","","canvas-keyboard-response","14","6436659","0.0-14.0","null","null","","","","","","","","","","","","","","fixation","","","0","1","","","","","","","","","",""
"","","","","","","","","","","","canvas-keyboard-response","15","6436962","0.0-15.0","null","null","","","","","","","","","","","","","","stimulus","","","0","1","","","","","","","","","",""
"","","","","","","","","","","","canvas-button-response","16","6438322","0.0-16.0","1357","bed","","","","","","","","","","","","","","perceptual","","","0","1","","","","","32","bed","1","","1",""
"","","","","","","","","","","","canvas-button-response","17","6439337","0.0-17.0","1014","10","","","","","","","","","","","","","","confidence","","","0","1","","","","","","","","","","2"
"","","","","","","","","","","","html-keyboard-response","18","6440341","0.0-18.0","null","null","","","","","","","","","","","","","","feedback","Thu Oct 09 2025 14:49:27 GMT-0400 (Eastern Daylight Time)","27263","0","1","","","","","","","","","",""
"","","","","","","","","","","","preload","19","6440342","0.0-19.0","","","","","true","","","","","","","","","","","preload","","","0","2","false","[]","[]","[]","","","","","",""
"","","","","","","","","","","","canvas-keyboard-response","20","6440645","0.0-20.0","null","null","","","","","","","","","","","","","","fixation","","","0","2","","","","","","","","","",""
"","","","","","","","","","","","canvas-keyboard-response","21","6440949","0.0-21.0","null","null","","","","","","","","","","","","","","stimulus","","","0","2","","","","","","","","","",""
"","","","","","","","","","","","canvas-button-response","22","6451594","0.0-22.0","10643","flower","","","","","","","","","","","","","","perceptual","","","0","2","","","","","92","knife","1","","0",""
"","","","","","","","","","","","canvas-button-response","23","6454681","0.0-23.0","3086","3","","","","","","","","","","","","","","confidence","","","0","2","","","","","","","","","","2"
"","","","","","","","","","","","html-keyboard-response","24","6455684","0.0-24.0","null","null","","","","","","","","","","","","","","feedback","Thu Oct 09 2025 14:49:43 GMT-0400 (Eastern Daylight Time)","27263","0","2","","","","","","","","","",""
"","","","","","","","","","","","preload","25","6455685","0.0-25.0","","","","","true","","","","","","","","","","","preload","","","0","3","false","[]","[]","[]","","","","","",""
"","","","","","","","","","","","canvas-keyboard-response","26","6455987","0.0-26.0","null","null","","","","","","","","","","","","","","fixation","","","0","3","","","","","","","","","",""
"","","","","","","","","","","","canvas-keyboard-response","27","6456290","0.0-27.0","null","null","","","","","","","","","","","","","","stimulus","","","0","3","","","","","","","","","",""
"","","","","","","","","","","","canvas-button-response","28","6461174","0.0-28.0","4881","house","","","","","","","","","","","","","","perceptual","","","0","3","","","","","52","flower","1","","0",""
"","","","","","","","","","","","canvas-button-response","29","6465199","0.0-29.0","4024","6","","","","","","","","","","","","","","confidence","","","0","3","","","","","","","","","","2"
"","","","","","","","","","","","html-keyboard-response","30","6466201","0.0-30.0","null","null","","","","","","","","","","","","","","feedback","Thu Oct 09 2025 14:49:53 GMT-0400 (Eastern Daylight Time)","27263","0","3","","","","","","","","","",""
"","","","","","","","","","","","preload","31","6466202","0.0-31.0","","","","","true","","","","","","","","","","","preload","","","0","4","false","[]","[]","[]","","","","","",""
"","","","","","","","","","","","canvas-keyboard-response","32","6466505","0.0-32.0","null","null","","","","","","","","","","","","","","fixation","","","0","4","","","","","","","","","",""
"","","","","","","","","","","","canvas-keyboard-response","33","6466808","0.0-33.0","null","null","","","","","","","","","","","","","","stimulus","","","0","4","","","","","","","","","",""
"","","","","","","","","","","","canvas-button-response","34","6470006","0.0-34.0","3195","phone","","","","","","","","","","","","","","perceptual","","","0","4","","","","","22","phone","1","","1",""
"","","","","","","","","","","","canvas-button-response","35","6471616","0.0-35.0","1609","8","","","","","","","","","","","","","","confidence","","","0","4","","","","","","","","","","3"
"","","","","","","","","","","","html-keyboard-response","36","6472619","0.0-36.0","null","null","","","","","","","","","","","","","","feedback","Thu Oct 09 2025 14:49:59 GMT-0400 (Eastern Daylight Time)","27263","0","4","","","","","","","","","",""
"","","","","","","","","","","","preload","37","6472620","0.0-37.0","","","","","true","","","","","","","","","","","preload","","","0","5","false","[]","[]","[]","","","","","",""
"","","","","","","","","","","","canvas-keyboard-response","38","6472924","0.0-38.0","null","null","","","","","","","","","","","","","","fixation","","","0","5","","","","","","","","","",""
"","","","","","","","","","","","canvas-keyboard-response","39","6473227","0.0-39.0","null","null","","","","","","","","","","","","","","stimulus","","","0","5","","","","","","","","","",""
"","","","","","","","","","","","canvas-button-response","40","6474980","0.0-40.0","1751","house","","","","","","","","","","","","","","perceptual","","","0","5","","","","","2","house","1","","1",""
"","","","","","","","","","","","canvas-button-response","41","6475700","0.0-41.0","719","10","","","","","","","","","","","","","","confidence","","","0","5","","","","","","","","","","4"
"","","","","","","","","","","","html-keyboard-response","42","6476702","0.0-42.0","null","null","","","","","","","","","","","","","","feedback","Thu Oct 09 2025 14:50:04 GMT-0400 (Eastern Daylight Time)","27263","0","5","","","","","","","","","",""
"","","","","","","","","","","","preload","43","6476703","0.0-43.0","","","","","true","","","","","","","","","","","preload","","","0","6","false","[]","[]","[]","","","","","",""
"","","","","","","","","","","","canvas-keyboard-response","44","6477006","0.0-44.0","null","null","","","","","","","","","","","","","","fixation","","","0","6","","","","","","","","","",""
"","","","","","","","","","","","canvas-keyboard-response","45","6477309","0.0-45.0","null","null","","","","","","","","","","","","","","stimulus","","","0","6","","","","","","","","","",""
"","","","","","","","","","","","canvas-button-response","46","6478684","0.0-46.0","1373","bridge","","","","","","","","","","","","","","perceptual","","","0","6","","","","","42","bridge","1","","1",""
"","","","","","","","","","","","canvas-button-response","47","6479564","0.0-47.0","879","10","","","","","","","","","","","","","","confidence","","","0","6","","","","","","","","","","5"
"","","","","","","","","","","","html-keyboard-response","48","6480567","0.0-48.0","null","null","","","","","","","","","","","","","","feedback","Thu Oct 09 2025 14:50:07 GMT-0400 (Eastern Daylight Time)","27263","0","6","","","","","","","","","",""
"","","","","","","","","","","","preload","49","6480568","0.0-49.0","","","","","true","","","","","","","","","","","preload","","","0","7","false","[]","[]","[]","","","","","",""
"","","","","","","","","","","","canvas-keyboard-response","50","6480871","0.0-50.0","null","null","","","","","","","","","","","","","","fixation","","","0","7","","","","","","","","","",""
"","","","","","","","","","","","canvas-keyboard-response","51","6481174","0.0-51.0","null","null","","","","","","","","","","","","","","stimulus","","","0","7","","","","","","","","","",""
"","","","","","","","","","","","canvas-button-response","52","6483828","0.0-52.0","2653","train","","","","","","","","","","","","","","perceptual","","","0","7","","","","","62","train","1","","1",""
"","","","","","","","","","","","canvas-button-response","53","6484460","0.0-53.0","631","10","","","","","","","","","","","","","","confidence","","","0","7","","","","","","","","","","6"
"","","","","","","","","","","","html-keyboard-response","54","6485462","0.0-54.0","null","null","","","","","","","","","","","","","","feedback","Thu Oct 09 2025 14:50:12 GMT-0400 (Eastern Daylight Time)","27263","0","7","","","","","","","","","",""
"","","","","","","","","","","","preload","55","6485463","0.0-55.0","","","","","true","","","","","","","","","","","preload","","","0","8","false","[]","[]","[]","","","","","",""
"","","","","","","","","","","","canvas-keyboard-response","56","6485766","0.0-56.0","null","null","","","","","","","","","","","","","","fixation","","","0","8","","","","","","","","","",""
"","","","","","","","","","","","canvas-keyboard-response","57","6486069","0.0-57.0","null","null","","","","","","","","","","","","","","stimulus","","","0","8","","","","","","","","","",""
"","","","","","","","","","","","canvas-button-response","58","6487092","0.0-58.0","1020","car","","","","","","","","","","","","","","perceptual","","","0","8","","","","","12","car","1","","1",""
"","","","","","","","","","","","canvas-button-response","59","6488012","0.0-59.0","919","10","","","","","","","","","","","","","","confidence","","","0","8","","","","","","","","","","7"
"","","","","","","","","","","","html-keyboard-response","60","6489014","0.0-60.0","null","null","","","","","","","","","","","","","","feedback","Thu Oct 09 2025 14:50:16 GMT-0400 (Eastern Daylight Time)","27263","0","8","","","","","","","","","",""
"","","","","","","","","","","","preload","61","6489017","0.0-61.0","","","","","true","","","","","","","","","","","preload","","","0","9","false","[]","[]","[]","","","","","",""
"","","","","","","","","","","","canvas-keyboard-response","62","6489319","0.0-62.0","null","null","","","","","","","","","","","","","","fixation","","","0","9","","","","","","","","","",""
"","","","","","","","","","","","canvas-keyboard-response","63","6489621","0.0-63.0","null","null","","","","","","","","","","","","","","stimulus","","","0","9","","","","","","","","","",""
"","","","","","","","","","","","canvas-button-response","64","6497268","0.0-64.0","7645","elephant","","","","","","","","","","","","","","perceptual","","","0","9","","","","","82","elephant","1","","1",""
"","","","","","","","","","","","canvas-button-response","65","6499180","0.0-65.0","1909","5","","","","","","","","","","","","","","confidence","","","0","9","","","","","","","","","","8"
"","","","","","","","","","","","html-keyboard-response","66","6500183","0.0-66.0","null","null","","","","","","","","","","","","","","feedback","Thu Oct 09 2025 14:50:27 GMT-0400 (Eastern Daylight Time)","27263","0","9","","","","","","","","","",""
"","","","","","","","","","","","html-button-response","67","6536127","0.0-67.0","35938","0","","","","","","","","","","","","","","start_practice","Thu Oct 09 2025 14:50:28 GMT-0400 (Eastern Daylight Time)","27263","0","9","","","","","","","","","",""
"","","","","","","","","","","","preload","68","6536128","0.0-68.0","","","","","true","","","","","","","","","","","preload","","","1","0","false","[]","[]","[]","","","","","",""
"","","","","","","","","","","","canvas-keyboard-response","69","6536432","0.0-69.0","null","null","","","","","","","","","","","","","","fixation","","","1","0","","","","","","","","","",""
"","","","","","","","","","","","canvas-keyboard-response","70","6536736","0.0-70.0","null","null","","","","","","","","","","","","","","stimulus","","","1","0","","","","","","","","","",""
"","","","","","","","","","","","canvas-button-response","71","6539918","0.0-71.0","3180","car","","","","","","","","","","","","","","perceptual","","","1","0","","","","","37","bed","10","","0",""
"","","","","","","","","","","","canvas-button-response","72","6542310","0.0-72.0","2391","4","","","","","","","","","","","","","","confidence","","","1","0","","","","","","","","","","0"
"","","","","","","","","","","","html-keyboard-response","73","6543313","0.0-73.0","null","null","","","","","","","","","","","","","","feedback","Thu Oct 09 2025 14:51:10 GMT-0400 (Eastern Daylight Time)","27263","1","0","","","","","","","","","",""
"","","","","","","","","","","","preload","74","6543314","0.0-74.0","","","","","true","","","","","","","","","","","preload","","","1","1","false","[]","[]","[]","","","","","",""
"","","","","","","","","","","","canvas-keyboard-response","75","6543617","0.0-75.0","null","null","","","","","","","","","","","","","","fixation","","","1","1","","","","","","","","","",""
"","","","","","","","","","","","canvas-keyboard-response","76","6543920","0.0-76.0","null","null","","","","","","","","","","","","","","stimulus","","","1","1","","","","","","","","","",""
"","","","","","","","","","","","canvas-button-response","77","6545443","0.0-77.0","1520","flower","","","","","","","","","","","","","","perceptual","","","1","1","","","","","57","flower","10","","1",""
"","","","","","","","","","","","canvas-button-response","78","6546746","0.0-78.0","1302","4","","","","","","","","","","","","","","confidence","","","1","1","","","","","","","","","","1"
"","","","","","","","","","","","html-keyboard-response","79","6547749","0.0-79.0","null","null","","","","","","","","","","","","","","feedback","Thu Oct 09 2025 14:51:15 GMT-0400 (Eastern Daylight Time)","27263","1","1","","","","","","","","","",""
"","","","","","","","","","","","preload","80","6547750","0.0-80.0","","","","","true","","","","","","","","","","","preload","","","1","2","false","[]","[]","[]","","","","","",""
"","","","","","","","","","","","canvas-keyboard-response","81","6548053","0.0-81.0","null","null","","","","","","","","","","","","","","fixation","","","1","2","","","","","","","","","",""
"","","","","","","","","","","","canvas-keyboard-response","82","6548357","0.0-82.0","null","null","","","","","","","","","","","","","","stimulus","","","1","2","","","","","","","","","",""
"","","","","","","","","","","","canvas-button-response","83","6549999","0.0-83.0","1638","cat","","","","","","","","","","","","","","perceptual","","","1","2","","","","","77","cat","10","","1",""
"","","","","","","","","","","","canvas-button-response","84","6551183","0.0-84.0","1183","4","","","","","","","","","","","","","","confidence","","","1","2","","","","","","","","","","2"
"","","","","","","","","","","","html-keyboard-response","85","6552185","0.0-85.0","null","null","","","","","","","","","","","","","","feedback","Thu Oct 09 2025 14:51:19 GMT-0400 (Eastern Daylight Time)","27263","1","2","","","","","","","","","",""
"","","","","","","","","","","","preload","86","6552186","0.0-86.0","","","","","true","","","","","","","","","","","preload","","","1","3","false","[]","[]","[]","","","","","",""
"","","","","","","","","","","","canvas-keyboard-response","87","6552489","0.0-87.0","null","null","","","","","","","","","","","","","","fixation","","","1","3","","","","","","","","","",""
"","","","","","","","","","","","canvas-keyboard-response","88","6552792","0.0-88.0","null","null","","","","","","","","","","","","","","stimulus","","","1","3","","","","","","","","","",""
"","","","","","","","","","","","canvas-button-response","89","6561212","0.0-89.0","8417","train","","","","","","","","","","","","","","perceptual","","","1","3","","","","","27","phone","10","","0",""
"","","","","","","","","","","","canvas-button-response","90","6562443","0.0-90.0","1231","3","","","","","","","","","","","","","","confidence","","","1","3","","","","","","","","","","2"
"","","","","","","","","","","","html-keyboard-response","91","6563446","0.0-91.0","null","null","","","","","","","","","","","","","","feedback","Thu Oct 09 2025 14:51:30 GMT-0400 (Eastern Daylight Time)","27263","1","3","","","","","","","","","",""
"","","","","","","","","","","","preload","92","6563447","0.0-92.0","","","","","true","","","","","","","","","","","preload","","","1","4","false","[]","[]","[]","","","","","",""
"","","","","","","","","","","","canvas-keyboard-response","93","6563750","0.0-93.0","null","null","","","","","","","","","","","","","","fixation","","","1","4","","","","","","","","","",""
"","","","","","","","","","","","canvas-keyboard-response","94","6564054","0.0-94.0","null","null","","","","","","","","","","","","","","stimulus","","","1","4","","","","","","","","","",""
"","","","","","","","","","","","canvas-button-response","95","6565465","0.0-95.0","1409","elephant","","","","","","","","","","","","","","perceptual","","","1","4","","","","","84","elephant","6","","1",""
"","","","","","","","","","","","canvas-button-response","96","6566329","0.0-96.0","863","10","","","","","","","","","","","","","","confidence","","","1","4","","","","","","","","","","3"
"","","","","","","","","","","","html-keyboard-response","97","6567332","0.0-97.0","null","null","","","","","","","","","","","","","","feedback","Thu Oct 09 2025 14:51:34 GMT-0400 (Eastern Daylight Time)","27263","1","4","","","","","","","","","",""
"","","","","","","","","","","","preload","98","6567333","0.0-98.0","","","","","true","","","","","","","","","","","preload","","","1","5","false","[]","[]","[]","","","","","",""
"","","","","","","","","","","","canvas-keyboard-response","99","6567636","0.0-99.0","null","null","","","","","","","","","","","","","","fixation","","","1","5","","","","","","","","","",""
"","","","","","","","","","","","canvas-keyboard-response","100","6567939","0.0-100.0","null","null","","","","","","","","","","","","","","stimulus","","","1","5","","","","","","","","","",""
"","","","","","","","","","","","canvas-button-response","101","6570241","0.0-101.0","2300","bridge","","","","","","","","","","","","","","perceptual","","","1","5","","","","","7","house","10","","0",""
"","","","","","","","","","","","canvas-button-response","102","6572313","0.0-102.0","2071","5","","","","","","","","","","","","","","confidence","","","1","5","","","","","","","","","","3"
"","","","","","","","","","","","html-keyboard-response","103","6573314","0.0-103.0","null","null","","","","","","","","","","","","","","feedback","Thu Oct 09 2025 14:51:40 GMT-0400 (Eastern Daylight Time)","27263","1","5","","","","","","","","","",""
"","","","","","","","","","","","preload","104","6573315","0.0-104.0","","","","","true","","","","","","","","","","","preload","","","1","6","false","[]","[]","[]","","","","","",""
"","","","","","","","","","","","canvas-keyboard-response","105","6573617","0.0-105.0","null","null","","","","","","","","","","","","","","fixation","","","1","6","","","","","","","","","",""
"","","","","","","","","","","","canvas-keyboard-response","106","6573920","0.0-106.0","null","null","","","","","","","","","","","","","","stimulus","","","1","6","","","","","","","","","",""
"","","","","","","","","","","","canvas-button-response","107","6577542","0.0-107.0","3620","phone","","","","","","","","","","","","","","perceptual","","","1","6","","","","","24","phone","6","","1",""
"","","","","","","","","","","","canvas-button-response","108","6578894","0.0-108.0","1351","6","","","","","","","","","","","","","","confidence","","","1","6","","","","","","","","","","4"
"","","","","","","","","","","","html-keyboard-response","109","6579896","0.0-109.0","null","null","","","","","","","","","","","","","","feedback","Thu Oct 09 2025 14:51:47 GMT-0400 (Eastern Daylight Time)","27263","1","6","","","","","","","","","",""
"","","","","","","","","","","","preload","110","6579897","0.0-110.0","","","","","true","","","","","","","","","","","preload","","","1","7","false","[]","[]","[]","","","","","",""
"","","","","","","","","","","","canvas-keyboard-response","111","6580200","0.0-111.0","null","null","","","","","","","","","","","","","","fixation","","","1","7","","","","","","","","","",""
"","","","","","","","","","","","canvas-keyboard-response","112","6580503","0.0-112.0","null","null","","","","","","","","","","","","","","stimulus","","","1","7","","","","","","","","","",""
"","","","","","","","","","","","canvas-button-response","113","6581827","0.0-113.0","1321","cat","","","","","","","","","","","","","","perceptual","","","1","7","","","","","74","cat","6","","1",""
"","","","","","","","","","","","canvas-button-response","114","6583194","0.0-114.0","1367","5","","","","","","","","","","","","","","confidence","","","1","7","","","","","","","","","","5"
"","","","","","","","","","","","html-keyboard-response","115","6584197","0.0-115.0","null","null","","","","","","","","","","","","","","feedback","Thu Oct 09 2025 14:51:51 GMT-0400 (Eastern Daylight Time)","27263","1","7","","","","","","","","","",""
"","","","","","","","","","","","preload","116","6584198","0.0-116.0","","","","","true","","","","","","","","","","","preload","","","1","8","false","[]","[]","[]","","","","","",""
"","","","","","","","","","","","canvas-keyboard-response","117","6584500","0.0-117.0","null","null","","","","","","","","","","","","","","fixation","","","1","8","","","","","","","","","",""
"","","","","","","","","","","","canvas-keyboard-response","118","6584803","0.0-118.0","null","null","","","","","","","","","","","","","","stimulus","","","1","8","","","","","","","","","",""
"","","","","","","","","","","","canvas-button-response","119","6586523","0.0-119.0","1718","knife","","","","","","","","","","","","","","perceptual","","","1","8","","","","","97","knife","10","","1",""
"","","","","","","","","","","","canvas-button-response","120","6587523","0.0-120.0","999","5","","","","","","","","","","","","","","confidence","","","1","8","","","","","","","","","","6"
"","","","","","","","","","","","html-keyboard-response","121","6588526","0.0-121.0","null","null","","","","","","","","","","","","","","feedback","Thu Oct 09 2025 14:51:55 GMT-0400 (Eastern Daylight Time)","27263","1","8","","","","","","","","","",""
"","","","","","","","","","","","preload","122","6588528","0.0-122.0","","","","","true","","","","","","","","","","","preload","","","1","9","false","[]","[]","[]","","","","","",""
"","","","","","","","","","","","canvas-keyboard-response","123","6588831","0.0-123.0","null","null","","","","","","","","","","","","","","fixation","","","1","9","","","","","","","","","",""
"","","","","","","","","","","","canvas-keyboard-response","124","6589135","0.0-124.0","null","null","","","","","","","","","","","","","","stimulus","","","1","9","","","","","","","","","",""
"","","","","","","","","","","","canvas-button-response","125","6597889","0.0-125.0","8751","bed","","","","","","","","","","","","","","perceptual","","","1","9","","","","","94","knife","6","","0",""
"","","","","","","","","","","","canvas-button-response","126","6600991","0.0-126.0","3101","3","","","","","","","","","","","","","","confidence","","","1","9","","","","","","","","","","6"
"","","","","","","","","","","","html-keyboard-response","127","6601994","0.0-127.0","null","null","","","","","","","","","","","","","","feedback","Thu Oct 09 2025 14:52:09 GMT-0400 (Eastern Daylight Time)","27263","1","9","","","","","","","","","",""
"","","","","","","","","","","","preload","128","6601996","0.0-128.0","","","","","true","","","","","","","","","","","preload","","","1","10","false","[]","[]","[]","","","","","",""
"","","","","","","","","","","","canvas-keyboard-response","129","6602299","0.0-129.0","null","null","","","","","","","","","","","","","","fixation","","","1","10","","","","","","","","","",""
"","","","","","","","","","","","canvas-keyboard-response","130","6602603","0.0-130.0","null","null","","","","","","","","","","","","","","stimulus","","","1","10","","","","","","","","","",""
"","","","","","","","","","","","canvas-button-response","131","6605051","0.0-131.0","2446","house","","","","","","","","","","","","","","perceptual","","","1","10","","","","","4","house","6","","1",""
"","","","","","","","","","","","canvas-button-response","132","6605899","0.0-132.0","846","10","","","","","","","","","","","","","","confidence","","","1","10","","","","","","","","","","7"
"","","","","","","","","","","","html-keyboard-response","133","6606902","0.0-133.0","null","null","","","","","","","","","","","","","","feedback","Thu Oct 09 2025 14:52:14 GMT-0400 (Eastern Daylight Time)","27263","1","10","","","","","","","","","",""
"","","","","","","","","","","","preload","134","6606903","0.0-134.0","","","","","true","","","","","","","","","","","preload","","","1","11","false","[]","[]","[]","","","","","",""
"","","","","","","","","","","","canvas-keyboard-response","135","6607206","0.0-135.0","null","null","","","","","","","","","","","","","","fixation","","","1","11","","","","","","","","","",""
"","","","","","","","","","","","canvas-keyboard-response","136","6607509","0.0-136.0","null","null","","","","","","","","","","","","","","stimulus","","","1","11","","","","","","","","","",""
"","","","","","","","","","","","canvas-button-response","137","6609867","0.0-137.0","2356","train","","","","","","","","","","","","","","perceptual","","","1","11","","","","","17","car","10","","0",""
"","","","","","","","","","","","canvas-button-response","138","6611748","0.0-138.0","1879","4","","","","","","","","","","","","","","confidence","","","1","11","","","","","","","","","","7"
"","","","","","","","","","","","html-keyboard-response","139","6612750","0.0-139.0","null","null","","","","","","","","","","","","","","feedback","Thu Oct 09 2025 14:52:20 GMT-0400 (Eastern Daylight Time)","27263","1","11","","","","","","","","","",""
"","","","","","","","","","","","preload","140","6612750","0.0-140.0","","","","","true","","","","","","","","","","","preload","","","1","12","false","[]","[]","[]","","","","","",""
"","","","","","","","","","","","canvas-keyboard-response","141","6613053","0.0-141.0","null","null","","","","","","","","","","","","","","fixation","","","1","12","","","","","","","","","",""
"","","","","","","","","","","","canvas-keyboard-response","142","6613356","0.0-142.0","null","null","","","","","","","","","","","","","","stimulus","","","1","12","","","","","","","","","",""
"","","","","","","","","","","","canvas-button-response","143","6614635","0.0-143.0","1276","bed","","","","","","","","","","","","","","perceptual","","","1","12","","","","","34","bed","6","","1",""
"","","","","","","","","","","","canvas-button-response","144","6615356","0.0-144.0","720","10","","","","","","","","","","","","","","confidence","","","1","12","","","","","","","","","","8"
"","","","","","","","","","","","html-keyboard-response","145","6616358","0.0-145.0","null","null","","","","","","","","","","","","","","feedback","Thu Oct 09 2025 14:52:23 GMT-0400 (Eastern Daylight Time)","27263","1","12","","","","","","","","","",""
"","","","","","","","","","","","preload","146","6616360","0.0-146.0","","","","","true","","","","","","","","","","","preload","","","1","13","false","[]","[]","[]","","","","","",""
"","","","","","","","","","","","canvas-keyboard-response","147","6616663","0.0-147.0","null","null","","","","","","","","","","","","","","fixation","","","1","13","","","","","","","","","",""
"","","","","","","","","","","","canvas-keyboard-response","148","6616966","0.0-148.0","null","null","","","","","","","","","","","","","","stimulus","","","1","13","","","","","","","","","",""
"","","","","","","","","","","","canvas-button-response","149","6619942","0.0-149.0","2973","train","","","","","","","","","","","","","","perceptual","","","1","13","","","","","44","bridge","6","","0",""
"","","","","","","","","","","","canvas-button-response","150","6621191","0.0-150.0","1248","3","","","","","","","","","","","","","","confidence","","","1","13","","","","","","","","","","8"
"","","","","","","","","","","","html-keyboard-response","151","6622194","0.0-151.0","null","null","","","","","","","","","","","","","","feedback","Thu Oct 09 2025 14:52:29 GMT-0400 (Eastern Daylight Time)","27263","1","13","","","","","","","","","",""
"","","","","","","","","","","","preload","152","6622195","0.0-152.0","","","","","true","","","","","","","","","","","preload","","","1","14","false","[]","[]","[]","","","","","",""
"","","","","","","","","","","","canvas-keyboard-response","153","6622498","0.0-153.0","null","null","","","","","","","","","","","","","","fixation","","","1","14","","","","","","","","","",""
"","","","","","","","","","","","canvas-keyboard-response","154","6622802","0.0-154.0","null","null","","","","","","","","","","","","","","stimulus","","","1","14","","","","","","","","","",""
"","","","","","","","","","","","canvas-button-response","155","6624215","0.0-155.0","1410","train","","","","","","","","","","","","","","perceptual","","","1","14","","","","","64","train","6","","1",""
"","","","","","","","","","","","canvas-button-response","156","6625447","0.0-156.0","1231","7","","","","","","","","","","","","","","confidence","","","1","14","","","","","","","","","","9"
"","","","","","","","","","","","html-keyboard-response","157","6626450","0.0-157.0","null","null","","","","","","","","","","","","","","feedback","Thu Oct 09 2025 14:52:33 GMT-0400 (Eastern Daylight Time)","27263","1","14","","","","","","","","","",""
"","","","","","","","","","","","preload","158","6626451","0.0-158.0","","","","","true","","","","","","","","","","","preload","","","1","15","false","[]","[]","[]","","","","","",""
"","","","","","","","","","","","canvas-keyboard-response","159","6626753","0.0-159.0","null","null","","","","","","","","","","","","","","fixation","","","1","15","","","","","","","","","",""
"","","","","","","","","","","","canvas-keyboard-response","160","6627057","0.0-160.0","null","null","","","","","","","","","","","","","","stimulus","","","1","15","","","","","","","","","",""
"","","","","","","","","","","","canvas-button-response","161","6631460","0.0-161.0","4402","flower","","","","","","","","","","","","","","perceptual","","","1","15","","","","","67","train","10","","0",""
"","","","","","","","","","","","canvas-button-response","162","6632836","0.0-162.0","1374","4","","","","","","","","","","","","","","confidence","","","1","15","","","","","","","","","","9"
"","","","","","","","","","","","html-keyboard-response","163","6633838","0.0-163.0","null","null","","","","","","","","","","","","","","feedback","Thu Oct 09 2025 14:52:41 GMT-0400 (Eastern Daylight Time)","27263","1","15","","","","","","","","","",""
"","","","","","","","","","","","preload","164","6633839","0.0-164.0","","","","","true","","","","","","","","","","","preload","","","1","16","false","[]","[]","[]","","","","","",""
"","","","","","","","","","","","canvas-keyboard-response","165","6634142","0.0-165.0","null","null","","","","","","","","","","","","","","fixation","","","1","16","","","","","","","","","",""
"","","","","","","","","","","","canvas-keyboard-response","166","6634446","0.0-166.0","null","null","","","","","","","","","","","","","","stimulus","","","1","16","","","","","","","","","",""
"","","","","","","","","","","","canvas-button-response","167","6635588","0.0-167.0","1140","flower","","","","","","","","","","","","","","perceptual","","","1","16","","","","","54","flower","6","","1",""
"","","","","","","","","","","","canvas-button-response","168","6636302","0.0-168.0","712","10","","","","","","","","","","","","","","confidence","","","1","16","","","","","","","","","","10"
"","","","","","","","","","","","html-keyboard-response","169","6637305","0.0-169.0","null","null","","","","","","","","","","","","","","feedback","Thu Oct 09 2025 14:52:44 GMT-0400 (Eastern Daylight Time)","27263","1","16","","","","","","","","","",""
"","","","","","","","","","","","preload","170","6637306","0.0-170.0","","","","","true","","","","","","","","","","","preload","","","1","17","false","[]","[]","[]","","","","","",""
"","","","","","","","","","","","canvas-keyboard-response","171","6637608","0.0-171.0","null","null","","","","","","","","","","","","","","fixation","","","1","17","","","","","","","","","",""
"","","","","","","","","","","","canvas-keyboard-response","172","6637911","0.0-172.0","null","null","","","","","","","","","","","","","","stimulus","","","1","17","","","","","","","","","",""
"","","","","","","","","","","","canvas-button-response","173","6642298","0.0-173.0","4385","elephant","","","","","","","","","","","","","","perceptual","","","1","17","","","","","87","elephant","10","","1",""
"","","","","","","","","","","","canvas-button-response","174","6643785","0.0-174.0","1486","4","","","","","","","","","","","","","","confidence","","","1","17","","","","","","","","","","11"
"","","","","","","","","","","","html-keyboard-response","175","6644789","0.0-175.0","null","null","","","","","","","","","","","","","","feedback","Thu Oct 09 2025 14:52:52 GMT-0400 (Eastern Daylight Time)","27263","1","17","","","","","","","","","",""
"","","","","","","","","","","","preload","176","6644790","0.0-176.0","","","","","true","","","","","","","","","","","preload","","","1","18","false","[]","[]","[]","","","","","",""
"","","","","","","","","","","","canvas-keyboard-response","177","6645092","0.0-177.0","null","null","","","","","","","","","","","","","","fixation","","","1","18","","","","","","","","","",""
"","","","","","","","","","","","canvas-keyboard-response","178","6645394","0.0-178.0","null","null","","","","","","","","","","","","","","stimulus","","","1","18","","","","","","","","","",""
"","","","","","","","","","","","canvas-button-response","179","6646434","0.0-179.0","1037","car","","","","","","","","","","","","","","perceptual","","","1","18","","","","","14","car","6","","1",""
"","","","","","","","","","","","canvas-button-response","180","6647233","0.0-180.0","799","5","","","","","","","","","","","","","","confidence","","","1","18","","","","","","","","","","12"
"","","","","","","","","","","","html-keyboard-response","181","6648236","0.0-181.0","null","null","","","","","","","","","","","","","","feedback","Thu Oct 09 2025 14:52:55 GMT-0400 (Eastern Daylight Time)","27263","1","18","","","","","","","","","",""
"","","","","","","","","","","","preload","182","6648237","0.0-182.0","","","","","true","","","","","","","","","","","preload","","","1","19","false","[]","[]","[]","","","","","",""
"","","","","","","","","","","","canvas-keyboard-response","183","6648540","0.0-183.0","null","null","","","","","","","","","","","","","","fixation","","","1","19","","","","","","","","","",""
"","","","","","","","","","","","canvas-keyboard-response","184","6648844","0.0-184.0","null","null","","","","","","","","","","","","","","stimulus","","","1","19","","","","","","","","","",""
"","","","","","","","","","","","canvas-button-response","185","6650274","0.0-185.0","1428","train","","","","","","","","","","","","","","perceptual","","","1","19","","","","","47","bridge","10","","0",""
"","","","","","","","","","","","canvas-button-response","186","6651804","0.0-186.0","1528","7","","","","","","","","","","","","","","confidence","","","1","19","","","","","","","","","","12"
"","","","","","","","","","","","html-keyboard-response","187","6652807","0.0-187.0","null","null","","","","","","","","","","","","","","feedback","Thu Oct 09 2025 14:53:00 GMT-0400 (Eastern Daylight Time)","27263","1","19","","","","","","","","","",""
"","","","","","","","","","","","html-button-response","188","6678083","0.0-188.0","25274","0","","","","","","","","","","","","","","start experiment","Thu Oct 09 2025 14:53:01 GMT-0400 (Eastern Daylight Time)","27263","1","19","","","","","","","","","",""
"","","","","","","","","","","","preload","189","6678084","0.0-189.0","","","","","true","","","","","","","","","","","preload","","","2","0","false","[]","[]","[]","","","","","",""
"","","","","","","","","","","","canvas-keyboard-response","190","6678386","0.0-190.0","null","null","","","","","","","","","","","","","","fixation","","","2","0","","","","","","","","","",""
"","","","","","","","","","","","canvas-keyboard-response","191","6678688","0.0-191.0","null","null","","","","","","","","","","","","","","stimulus","","","2","0","","","","","","","","","",""
"","","","","","","","","","","","canvas-button-response","192","6688796","0.0-192.0","10105","cat","","","","","","","","","","","","","","perceptual","","","2","0","","","","","290","cat","6","0","1",""
"","","","","","","","","","","","canvas-button-response","193","6693498","0.0-193.0","4700","1","","","","","","","","","","","","","","confidence","","","2","0","","","","","","","","","","1"
"","","","","","","","","","","","preload","194","6693499","0.0-194.0","","","","","true","","","","","","","","","","","preload","","","2","1","false","[]","[]","[]","","","","","",""
"","","","","","","","","","","","canvas-keyboard-response","195","6693801","0.0-195.0","null","null","","","","","","","","","","","","","","fixation","","","2","1","","","","","","","","","",""
"","","","","","","","","","","","canvas-keyboard-response","196","6694104","0.0-196.0","null","null","","","","","","","","","","","","","","stimulus","","","2","1","","","","","","","","","",""
"","","","","","","","","","","","canvas-button-response","197","6695362","0.0-197.0","1255","car","","","","","","","","","","","","","","perceptual","","","2","1","","","","","51","car","6","0","1",""
"","","","","","","","","","","","canvas-button-response","198","6696426","0.0-198.0","1063","7","","","","","","","","","","","","","","confidence","","","2","1","","","","","","","","","","2"
"","","","","","","","","","","","preload","199","6696427","0.0-199.0","","","","","true","","","","","","","","","","","preload","","","2","2","false","[]","[]","[]","","","","","",""
"","","","","","","","","","","","canvas-keyboard-response","200","6696729","0.0-200.0","null","null","","","","","","","","","","","","","","fixation","","","2","2","","","","","","","","","",""
"","","","","","","","","","","","canvas-keyboard-response","201","6697030","0.0-201.0","null","null","","","","","","","","","","","","","","stimulus","","","2","2","","","","","","","","","",""
"","","","","","","","","","","","canvas-button-response","202","6698732","0.0-202.0","1700","train","","","","","","","","","","","","","","perceptual","","","2","2","","","","","114","phone","10","0","0",""
"","","","","","","","","","","","canvas-button-response","203","6700027","0.0-203.0","1294","4","","","","","","","","","","","","","","confidence","","","2","2","","","","","","","","","","2"
"","","","","","","","","","","","preload","204","6700027","0.0-204.0","","","","","true","","","","","","","","","","","preload","","","2","3","false","[]","[]","[]","","","","","",""
"","","","","","","","","","","","canvas-keyboard-response","205","6700330","0.0-205.0","null","null","","","","","","","","","","","","","","fixation","","","2","3","","","","","","","","","",""
"","","","","","","","","","","","canvas-keyboard-response","206","6700633","0.0-206.0","null","null","","","","","","","","","","","","","","stimulus","","","2","3","","","","","","","","","",""
"","","","","","","","","","","","canvas-button-response","207","6702378","0.0-207.0","1743","cat","","","","","","","","","","","","","","perceptual","","","2","3","","","","","363","knife","6","0","0",""
"","","","","","","","","","","","canvas-button-response","208","6703435","0.0-208.0","1056","4","","","","","","","","","","","","","","confidence","","","2","3","","","","","","","","","","2"
"","","","","","","","","","","","preload","209","6703436","0.0-209.0","","","","","true","","","","","","","","","","","preload","","","2","4","false","[]","[]","[]","","","","","",""
"","","","","","","","","","","","canvas-keyboard-response","210","6703739","0.0-210.0","null","null","","","","","","","","","","","","","","fixation","","","2","4","","","","","","","","","",""
"","","","","","","","","","","","canvas-keyboard-response","211","6704042","0.0-211.0","null","null","","","","","","","","","","","","","","stimulus","","","2","4","","","","","","","","","",""
"","","","","","","","","","","","canvas-button-response","212","6704977","0.0-212.0","933","car","","","","","","","","","","","","","","perceptual","","","2","4","","","","","56","car","6","0","1",""
"","","","","","","","","","","","canvas-button-response","213","6705865","0.0-213.0","887","10","","","","","","","","","","","","","","confidence","","","2","4","","","","","","","","","","3"
"","","","","","","","","","","","preload","214","6705866","0.0-214.0","","","","","true","","","","","","","","","","","preload","","","2","5","false","[]","[]","[]","","","","","",""
"","","","","","","","","","","","canvas-keyboard-response","215","6706168","0.0-215.0","null","null","","","","","","","","","","","","","","fixation","","","2","5","","","","","","","","","",""
"","","","","","","","","","","","canvas-keyboard-response","216","6706471","0.0-216.0","null","null","","","","","","","","","","","","","","stimulus","","","2","5","","","","","","","","","",""
"","","","","","","","","","","","canvas-button-response","217","6709748","0.0-217.0","3275","bridge","","","","","","","","","","","","","","perceptual","","","2","5","","","","","10","house","6","0","0",""
"","","","","","","","","","","","canvas-button-response","218","6711308","0.0-218.0","1559","4","","","","","","","","","","","","","","confidence","","","2","5","","","","","","","","","","3"
"","","","","","","","","","","","preload","219","6711309","0.0-219.0","","","","","true","","","","","","","","","","","preload","","","2","6","false","[]","[]","[]","","","","","",""
"","","","","","","","","","","","canvas-keyboard-response","220","6711611","0.0-220.0","null","null","","","","","","","","","","","","","","fixation","","","2","6","","","","","","","","","",""
"","","","","","","","","","","","canvas-keyboard-response","221","6711915","0.0-221.0","null","null","","","","","","","","","","","","","","stimulus","","","2","6","","","","","","","","","",""
"","","","","","","","","","","","canvas-button-response","222","6716250","0.0-222.0","4333","flower","","","","","","","","","","","","","","perceptual","","","2","6","","","","","315","cat","10","0","0",""
"","","","","","","","","","","","canvas-button-response","223","6717378","0.0-223.0","1127","2","","","","","","","","","","","","","","confidence","","","2","6","","","","","","","","","","3"
"","","","","","","","","","","","preload","224","6717379","0.0-224.0","","","","","true","","","","","","","","","","","preload","","","2","7","false","[]","[]","[]","","","","","",""
"","","","","","","","","","","","canvas-keyboard-response","225","6717682","0.0-225.0","null","null","","","","","","","","","","","","","","fixation","","","2","7","","","","","","","","","",""
"","","","","","","","","","","","canvas-keyboard-response","226","6717985","0.0-226.0","null","null","","","","","","","","","","","","","","stimulus","","","2","7","","","","","","","","","",""
"","","","","","","","","","","","canvas-button-response","227","6718888","0.0-227.0","901","bed","","","","","","","","","","","","","","perceptual","","","2","7","","","","","124","bed","6","0","1",""
"","","","","","","","","","","","canvas-button-response","228","6719848","0.0-228.0","959","10","","","","","","","","","","","","","","confidence","","","2","7","","","","","","","","","","4"
"","","","","","","","","","","","preload","229","6719849","0.0-229.0","","","","","true","","","","","","","","","","","preload","","","2","8","false","[]","[]","[]","","","","","",""
"","","","","","","","","","","","canvas-keyboard-response","230","6720151","0.0-230.0","null","null","","","","","","","","","","","","","","fixation","","","2","8","","","","","","","","","",""
"","","","","","","","","","","","canvas-keyboard-response","231","6720453","0.0-231.0","null","null","","","","","","","","","","","","","","stimulus","","","2","8","","","","","","","","","",""
"","","","","","","","","","","","canvas-button-response","232","6721433","0.0-232.0","979","train","","","","","","","","","","","","","","perceptual","","","2","8","","","","","273","train","10","0","1",""
"","","","","","","","","","","","canvas-button-response","233","6722680","0.0-233.0","1246","7","","","","","","","","","","","","","","confidence","","","2","8","","","","","","","","","","5"
"","","","","","","","","","","","preload","234","6722681","0.0-234.0","","","","","true","","","","","","","","","","","preload","","","2","9","false","[]","[]","[]","","","","","",""
"","","","","","","","","","","","canvas-keyboard-response","235","6722983","0.0-235.0","null","null","","","","","","","","","","","","","","fixation","","","2","9","","","","","","","","","",""
"","","","","","","","","","","","canvas-keyboard-response","236","6723285","0.0-236.0","null","null","","","","","","","","","","","","","","stimulus","","","2","9","","","","","","","","","",""
"","","","","","","","","","","","canvas-button-response","237","6724160","0.0-237.0","873","elephant","","","","","","","","","","","","","","perceptual","","","2","9","","","","","329","elephant","6","0","1",""
"","","","","","","","","","","","canvas-button-response","238","6724986","0.0-238.0","825","10","","","","","","","","","","","","","","confidence","","","2","9","","","","","","","","","","6"
"","","","","","","","","","","","preload","239","6724986","0.0-239.0","","","","","true","","","","","","","","","","","preload","","","2","10","false","[]","[]","[]","","","","","",""
"","","","","","","","","","","","canvas-keyboard-response","240","6725289","0.0-240.0","null","null","","","","","","","","","","","","","","fixation","","","2","10","","","","","","","","","",""
"","","","","","","","","","","","canvas-keyboard-response","241","6725592","0.0-241.0","null","null","","","","","","","","","","","","","","stimulus","","","2","10","","","","","","","","","",""
"","","","","","","","","","","","canvas-button-response","242","6727911","0.0-242.0","2317","house","","","","","","","","","","","","","","perceptual","","","2","10","","","","","16","house","6","0","1",""
"","","","","","","","","","","","canvas-button-response","243","6729040","0.0-243.0","1128","8","","","","","","","","","","","","","","confidence","","","2","10","","","","","","","","","","7"
"","","","","","","","","","","","preload","244","6729041","0.0-244.0","","","","","true","","","","","","","","","","","preload","","","2","11","false","[]","[]","[]","","","","","",""
"","","","","","","","","","","","canvas-keyboard-response","245","6729342","0.0-245.0","null","null","","","","","","","","","","","","","","fixation","","","2","11","","","","","","","","","",""
"","","","","","","","","","","","canvas-keyboard-response","246","6729645","0.0-246.0","null","null","","","","","","","","","","","","","","stimulus","","","2","11","","","","","","","","","",""
"","","","","","","","","","","","canvas-button-response","247","6731887","0.0-247.0","2240","house","","","","","","","","","","","","","","perceptual","","","2","11","","","","","23","house","10","0","1",""
"","","","","","","","","","","","canvas-button-response","248","6732744","0.0-248.0","855","7","","","","","","","","","","","","","","confidence","","","2","11","","","","","","","","","","8"
"","","","","","","","","","","","preload","249","6732744","0.0-249.0","","","","","true","","","","","","","","","","","preload","","","2","12","false","[]","[]","[]","","","","","",""
"","","","","","","","","","","","canvas-keyboard-response","250","6733047","0.0-250.0","null","null","","","","","","","","","","","","","","fixation","","","2","12","","","","","","","","","",""
"","","","","","","","","","","","canvas-keyboard-response","251","6733348","0.0-251.0","null","null","","","","","","","","","","","","","","stimulus","","","2","12","","","","","","","","","",""
"","","","","","","","","","","","canvas-button-response","252","6734391","0.0-252.0","1041","elephant","","","","","","","","","","","","","","perceptual","","","2","12","","","","","337","elephant","6","0","1",""
"","","","","","","","","","","","canvas-button-response","253","6735055","0.0-253.0","663","9","","","","","","","","","","","","","","confidence","","","2","12","","","","","","","","","","9"
"","","","","","","","","","","","preload","254","6735055","0.0-254.0","","","","","true","","","","","","","","","","","preload","","","2","13","false","[]","[]","[]","","","","","",""
"","","","","","","","","","","","canvas-keyboard-response","255","6735357","0.0-255.0","null","null","","","","","","","","","","","","","","fixation","","","2","13","","","","","","","","","",""
"","","","","","","","","","","","canvas-keyboard-response","256","6735660","0.0-256.0","null","null","","","","","","","","","","","","","","stimulus","","","2","13","","","","","","","","","",""
"","","","","","","","","","","","canvas-button-response","257","6739423","0.0-257.0","3761","cat","","","","","","","","","","","","","","perceptual","","","2","13","","","","","284","cat","6","0","1",""
"","","","","","","","","","","","canvas-button-response","258","6740367","0.0-258.0","942","3","","","","","","","","","","","","","","confidence","","","2","13","","","","","","","","","","10"
"","","","","","","","","","","","preload","259","6740368","0.0-259.0","","","","","true","","","","","","","","","","","preload","","","2","14","false","[]","[]","[]","","","","","",""
"","","","","","","","","","","","canvas-keyboard-response","260","6740670","0.0-260.0","null","null","","","","","","","","","","","","","","fixation","","","2","14","","","","","","","","","",""
"","","","","","","","","","","","canvas-keyboard-response","261","6740973","0.0-261.0","null","null","","","","","","","","","","","","","","stimulus","","","2","14","","","","","","","","","",""
"","","","","","","","","","","","canvas-button-response","262","6742206","0.0-262.0","1231","cat","","","","","","","","","","","","","","perceptual","","","2","14","","","","","289","cat","6","0","1",""
"","","","","","","","","","","","canvas-button-response","263","6743039","0.0-263.0","832","9","","","","","","","","","","","","","","confidence","","","2","14","","","","","","","","","","11"
"","","","","","","","","","","","preload","264","6743040","0.0-264.0","","","","","true","","","","","","","","","","","preload","","","2","15","false","[]","[]","[]","","","","","",""
"","","","","","","","","","","","canvas-keyboard-response","265","6743343","0.0-265.0","null","null","","","","","","","","","","","","","","fixation","","","2","15","","","","","","","","","",""
"","","","","","","","","","","","canvas-keyboard-response","266","6743645","0.0-266.0","null","null","","","","","","","","","","","","","","stimulus","","","2","15","","","","","","","","","",""
"","","","","","","","","","","","canvas-button-response","267","6745814","0.0-267.0","2167","house","","","","","","","","","","","","","","perceptual","","","2","15","","","","","22","house","10","0","1",""
"","","","","","","","","","","","canvas-button-response","268","6749336","0.0-268.0","3520","7","","","","","","","","","","","","","","confidence","","","2","15","","","","","","","","","","12"
"","","","","","","","","","","","preload","269","6749337","0.0-269.0","","","","","true","","","","","","","","","","","preload","","","2","16","false","[]","[]","[]","","","","","",""
"","","","","","","","","","","","canvas-keyboard-response","270","6749639","0.0-270.0","null","null","","","","","","","","","","","","","","fixation","","","2","16","","","","","","","","","",""
"","","","","","","","","","","","canvas-keyboard-response","271","6749942","0.0-271.0","null","null","","","","","","","","","","","","","","stimulus","","","2","16","","","","","","","","","",""
"","","","","","","","","","","","canvas-button-response","272","6751078","0.0-272.0","1133","elephant","","","","","","","","","","","","","","perceptual","","","2","16","","","","","349","elephant","10","0","1",""
"","","","","","","","","","","","canvas-button-response","273","6752445","0.0-273.0","1366","9","","","","","","","","","","","","","","confidence","","","2","16","","","","","","","","","","13"
"","","","","","","","","","","","preload","274","6752446","0.0-274.0","","","","","true","","","","","","","","","","","preload","","","2","17","false","[]","[]","[]","","","","","",""
"","","","","","","","","","","","canvas-keyboard-response","275","6752747","0.0-275.0","null","null","","","","","","","","","","","","","","fixation","","","2","17","","","","","","","","","",""
"","","","","","","","","","","","canvas-keyboard-response","276","6753050","0.0-276.0","null","null","","","","","","","","","","","","","","stimulus","","","2","17","","","","","","","","","",""
"","","","","","","","","","","","canvas-button-response","277","6754317","0.0-277.0","1265","knife","","","","","","","","","","","","","","perceptual","","","2","17","","","","","370","knife","6","0","1",""
"","","","","","","","","","","","canvas-button-response","278","6755261","0.0-278.0","943","10","","","","","","","","","","","","","","confidence","","","2","17","","","","","","","","","","14"
"","","","","","","","","","","","preload","279","6755262","0.0-279.0","","","","","true","","","","","","","","","","","preload","","","2","18","false","[]","[]","[]","","","","","",""
"","","","","","","","","","","","canvas-keyboard-response","280","6755565","0.0-280.0","null","null","","","","","","","","","","","","","","fixation","","","2","18","","","","","","","","","",""
"","","","","","","","","","","","canvas-keyboard-response","281","6755868","0.0-281.0","null","null","","","","","","","","","","","","","","stimulus","","","2","18","","","","","","","","","",""
"","","","","","","","","","","","canvas-button-response","282","6756725","0.0-282.0","854","flower","","","","","","","","","","","","","","perceptual","","","2","18","","","","","209","flower","6","0","1",""
"","","","","","","","","","","","canvas-button-response","283","6757564","0.0-283.0","839","10","","","","","","","","","","","","","","confidence","","","2","18","","","","","","","","","","15"
"","","","","","","","","","","","preload","284","6757565","0.0-284.0","","","","","true","","","","","","","","","","","preload","","","2","19","false","[]","[]","[]","","","","","",""
"","","","","","","","","","","","canvas-keyboard-response","285","6757868","0.0-285.0","null","null","","","","","","","","","","","","","","fixation","","","2","19","","","","","","","","","",""
"","","","","","","","","","","","canvas-keyboard-response","286","6758170","0.0-286.0","null","null","","","","","","","","","","","","","","stimulus","","","2","19","","","","","","","","","",""
"","","","","","","","","","","","canvas-button-response","287","6759644","0.0-287.0","1471","train","","","","","","","","","","","","","","perceptual","","","2","19","","","","","31","house","10","0","0",""
"","","","","","","","","","","","canvas-button-response","288","6761069","0.0-288.0","1424","5","","","","","","","","","","","","","","confidence","","","2","19","","","","","","","","","","15"
"","","","","","","","","","","","preload","289","6761070","0.0-289.0","","","","","true","","","","","","","","","","","preload","","","2","20","false","[]","[]","[]","","","","","",""
"","","","","","","","","","","","canvas-keyboard-response","290","6761372","0.0-290.0","null","null","","","","","","","","","","","","","","fixation","","","2","20","","","","","","","","","",""
"","","","","","","","","","","","canvas-keyboard-response","291","6761675","0.0-291.0","null","null","","","","","","","","","","","","","","stimulus","","","2","20","","","","","","","","","",""
"","","","","","","","","","","","canvas-button-response","292","6762956","0.0-292.0","1279","knife","","","","","","","","","","","","","","perceptual","","","2","20","","","","","360","knife","6","0","1",""
"","","","","","","","","","","","canvas-button-response","293","6764812","0.0-293.0","1855","8","","","","","","","","","","","","","","confidence","","","2","20","","","","","","","","","","16"
"","","","","","","","","","","","preload","294","6764813","0.0-294.0","","","","","true","","","","","","","","","","","preload","","","2","21","false","[]","[]","[]","","","","","",""
"","","","","","","","","","","","canvas-keyboard-response","295","6765116","0.0-295.0","null","null","","","","","","","","","","","","","","fixation","","","2","21","","","","","","","","","",""
"","","","","","","","","","","","canvas-keyboard-response","296","6765418","0.0-296.0","null","null","","","","","","","","","","","","","","stimulus","","","2","21","","","","","","","","","",""
"","","","","","","","","","","","canvas-button-response","297","6766363","0.0-297.0","943","car","","","","","","","","","","","","","","perceptual","","","2","21","","","","","67","car","10","0","1",""
"","","","","","","","","","","","canvas-button-response","298","6767124","0.0-298.0","759","10","","","","","","","","","","","","","","confidence","","","2","21","","","","","","","","","","17"
"","","","","","","","","","","","preload","299","6767124","0.0-299.0","","","","","true","","","","","","","","","","","preload","","","2","22","false","[]","[]","[]","","","","","",""
"","","","","","","","","","","","canvas-keyboard-response","300","6767427","0.0-300.0","null","null","","","","","","","","","","","","","","fixation","","","2","22","","","","","","","","","",""
"","","","","","","","","","","","canvas-keyboard-response","301","6767730","0.0-301.0","null","null","","","","","","","","","","","","","","stimulus","","","2","22","","","","","","","","","",""
"","","","","","","","","","","","canvas-button-response","302","6769764","0.0-302.0","2033","bridge","","","","","","","","","","","","","","perceptual","","","2","22","","","","","112","phone","10","0","0",""
"","","","","","","","","","","","canvas-button-response","303","6770628","0.0-303.0","862","4","","","","","","","","","","","","","","confidence","","","2","22","","","","","","","","","","17"
"","","","","","","","","","","","preload","304","6770628","0.0-304.0","","","","","true","","","","","","","","","","","preload","","","2","23","false","[]","[]","[]","","","","","",""
"","","","","","","","","","","","canvas-keyboard-response","305","6770930","0.0-305.0","null","null","","","","","","","","","","","","","","fixation","","","2","23","","","","","","","","","",""
"","","","","","","","","","","","canvas-keyboard-response","306","6771233","0.0-306.0","null","null","","","","","","","","","","","","","","stimulus","","","2","23","","","","","","","","","",""
"","","","","","","","","","","","canvas-button-response","307","6774667","0.0-307.0","3432","phone","","","","","","","","","","","","","","perceptual","","","2","23","","","","","95","phone","6","0","1",""
"","","","","","","","","","","","canvas-button-response","308","6775475","0.0-308.0","807","10","","","","","","","","","","","","","","confidence","","","2","23","","","","","","","","","","18"
"","","","","","","","","","","","preload","309","6775476","0.0-309.0","","","","","true","","","","","","","","","","","preload","","","2","24","false","[]","[]","[]","","","","","",""
"","","","","","","","","","","","canvas-keyboard-response","310","6775778","0.0-310.0","null","null","","","","","","","","","","","","","","fixation","","","2","24","","","","","","","","","",""
"","","","","","","","","","","","canvas-keyboard-response","311","6776081","0.0-311.0","null","null","","","","","","","","","","","","","","stimulus","","","2","24","","","","","","","","","",""
"","","","","","","","","","","","canvas-button-response","312","6781227","0.0-312.0","5144","bed","","","","","","","","","","","","","","perceptual","","","2","24","","","","","345","elephant","10","0","0",""
"","","","","","","","","","","","canvas-button-response","313","6782283","0.0-313.0","1055","2","","","","","","","","","","","","","","confidence","","","2","24","","","","","","","","","","18"
"","","","","","","","","","","","preload","314","6782283","0.0-314.0","","","","","true","","","","","","","","","","","preload","","","2","25","false","[]","[]","[]","","","","","",""
"","","","","","","","","","","","canvas-keyboard-response","315","6782585","0.0-315.0","null","null","","","","","","","","","","","","","","fixation","","","2","25","","","","","","","","","",""
"","","","","","","","","","","","canvas-keyboard-response","316","6782888","0.0-316.0","null","null","","","","","","","","","","","","","","stimulus","","","2","25","","","","","","","","","",""
"","","","","","","","","","","","canvas-button-response","317","6791354","0.0-317.0","8464","house","","","","","","","","","","","","","","perceptual","","","2","25","","","","","318","cat","10","0","0",""
"","","","","","","","","","","","canvas-button-response","318","6792618","0.0-318.0","1263","3","","","","","","","","","","","","","","confidence","","","2","25","","","","","","","","","","18"
"","","","","","","","","","","","preload","319","6792619","0.0-319.0","","","","","true","","","","","","","","","","","preload","","","2","26","false","[]","[]","[]","","","","","",""
"","","","","","","","","","","","canvas-keyboard-response","320","6792921","0.0-320.0","null","null","","","","","","","","","","","","","","fixation","","","2","26","","","","","","","","","",""
"","","","","","","","","","","","canvas-keyboard-response","321","6793224","0.0-321.0","null","null","","","","","","","","","","","","","","stimulus","","","2","26","","","","","","","","","",""
"","","","","","","","","","","","canvas-button-response","322","6802228","0.0-322.0","9001","cat","","","","","","","","","","","","","","perceptual","","","2","26","","","","","192","bridge","10","0","0",""
"","","","","","","","","","","","canvas-button-response","323","6803373","0.0-323.0","1143","2","","","","","","","","","","","","","","confidence","","","2","26","","","","","","","","","","18"
"","","","","","","","","","","","preload","324","6803373","0.0-324.0","","","","","true","","","","","","","","","","","preload","","","2","27","false","[]","[]","[]","","","","","",""
"","","","","","","","","","","","canvas-keyboard-response","325","6803675","0.0-325.0","null","null","","","","","","","","","","","","","","fixation","","","2","27","","","","","","","","","",""
"","","","","","","","","","","","canvas-keyboard-response","326","6803978","0.0-326.0","null","null","","","","","","","","","","","","","","stimulus","","","2","27","","","","","","","","","",""
"","","","","","","","","","","","canvas-button-response","327","6809003","0.0-327.0","5023","phone","","","","","","","","","","","","","","perceptual","","","2","27","","","","","111","phone","10","0","1",""
"","","","","","","","","","","","canvas-button-response","328","6810260","0.0-328.0","1255","2","","","","","","","","","","","","","","confidence","","","2","27","","","","","","","","","","19"
"","","","","","","","","","","","preload","329","6810260","0.0-329.0","","","","","true","","","","","","","","","","","preload","","","2","28","false","[]","[]","[]","","","","","",""
"","","","","","","","","","","","canvas-keyboard-response","330","6810562","0.0-330.0","null","null","","","","","","","","","","","","","","fixation","","","2","28","","","","","","","","","",""
"","","","","","","","","","","","canvas-keyboard-response","331","6810864","0.0-331.0","null","null","","","","","","","","","","","","","","stimulus","","","2","28","","","","","","","","","",""
"","","","","","","","","","","","canvas-button-response","332","6812924","0.0-332.0","2058","elephant","","","","","","","","","","","","","","perceptual","","","2","28","","","","","359","elephant","10","0","1",""
"","","","","","","","","","","","canvas-button-response","333","6814011","0.0-333.0","1086","4","","","","","","","","","","","","","","confidence","","","2","28","","","","","","","","","","20"
"","","","","","","","","","","","preload","334","6814011","0.0-334.0","","","","","true","","","","","","","","","","","preload","","","2","29","false","[]","[]","[]","","","","","",""
"","","","","","","","","","","","canvas-keyboard-response","335","6814314","0.0-335.0","null","null","","","","","","","","","","","","","","fixation","","","2","29","","","","","","","","","",""
"","","","","","","","","","","","canvas-keyboard-response","336","6814618","0.0-336.0","null","null","","","","","","","","","","","","","","stimulus","","","2","29","","","","","","","","","",""
"","","","","","","","","","","","canvas-button-response","337","6815795","0.0-337.0","1175","flower","","","","","","","","","","","","","","perceptual","","","2","29","","","","","214","flower","6","0","1",""
"","","","","","","","","","","","canvas-button-response","338","6817691","0.0-338.0","1895","5","","","","","","","","","","","","","","confidence","","","2","29","","","","","","","","","","21"
"","","","","","","","","","","","preload","339","6817692","0.0-339.0","","","","","true","","","","","","","","","","","preload","","","2","30","false","[]","[]","[]","","","","","",""
"","","","","","","","","","","","canvas-keyboard-response","340","6817994","0.0-340.0","null","null","","","","","","","","","","","","","","fixation","","","2","30","","","","","","","","","",""
"","","","","","","","","","","","canvas-keyboard-response","341","6818297","0.0-341.0","null","null","","","","","","","","","","","","","","stimulus","","","2","30","","","","","","","","","",""
"","","","","","","","","","","","canvas-button-response","342","6819387","0.0-342.0","1088","knife","","","","","","","","","","","","","","perceptual","","","2","30","","","","","380","knife","10","0","1",""
"","","","","","","","","","","","canvas-button-response","343","6820203","0.0-343.0","814","9","","","","","","","","","","","","","","confidence","","","2","30","","","","","","","","","","22"
"","","","","","","","","","","","preload","344","6820204","0.0-344.0","","","","","true","","","","","","","","","","","preload","","","2","31","false","[]","[]","[]","","","","","",""
"","","","","","","","","","","","canvas-keyboard-response","345","6820506","0.0-345.0","null","null","","","","","","","","","","","","","","fixation","","","2","31","","","","","","","","","",""
"","","","","","","","","","","","canvas-keyboard-response","346","6820809","0.0-346.0","null","null","","","","","","","","","","","","","","stimulus","","","2","31","","","","","","","","","",""
"","","","","","","","","","","","canvas-button-response","347","6821579","0.0-347.0","768","train","","","","","","","","","","","","","","perceptual","","","2","31","","","","","245","train","6","0","1",""
"","","","","","","","","","","","canvas-button-response","348","6823300","0.0-348.0","1720","10","","","","","","","","","","","","","","confidence","","","2","31","","","","","","","","","","23"
"","","","","","","","","","","","preload","349","6823300","0.0-349.0","","","","","true","","","","","","","","","","","preload","","","2","32","false","[]","[]","[]","","","","","",""
"","","","","","","","","","","","canvas-keyboard-response","350","6823603","0.0-350.0","null","null","","","","","","","","","","","","","","fixation","","","2","32","","","","","","","","","",""
"","","","","","","","","","","","canvas-keyboard-response","351","6823906","0.0-351.0","null","null","","","","","","","","","","","","","","stimulus","","","2","32","","","","","","","","","",""
"","","","","","","","","","","","canvas-button-response","352","6826946","0.0-352.0","3038","bridge","","","","","","","","","","","","","","perceptual","","","2","32","","","","","194","bridge","10","0","1",""
"","","","","","","","","","","","canvas-button-response","353","6828986","0.0-353.0","2039","6","","","","","","","","","","","","","","confidence","","","2","32","","","","","","","","","","24"
"","","","","","","","","","","","preload","354","6828987","0.0-354.0","","","","","true","","","","","","","","","","","preload","","","2","33","false","[]","[]","[]","","","","","",""
"","","","","","","","","","","","canvas-keyboard-response","355","6829289","0.0-355.0","null","null","","","","","","","","","","","","","","fixation","","","2","33","","","","","","","","","",""
"","","","","","","","","","","","canvas-keyboard-response","356","6829591","0.0-356.0","null","null","","","","","","","","","","","","","","stimulus","","","2","33","","","","","","","","","",""
"","","","","","","","","","","","canvas-button-response","357","6844203","0.0-357.0","14610","bed","","","","","","","","","","","","","","perceptual","","","2","33","","","","","271","train","10","0","0",""
"","","","","","","","","","","","canvas-button-response","358","6845154","0.0-358.0","950","2","","","","","","","","","","","","","","confidence","","","2","33","","","","","","","","","","24"
"","","","","","","","","","","","preload","359","6845155","0.0-359.0","","","","","true","","","","","","","","","","","preload","","","2","34","false","[]","[]","[]","","","","","",""
"","","","","","","","","","","","canvas-keyboard-response","360","6845458","0.0-360.0","null","null","","","","","","","","","","","","","","fixation","","","2","34","","","","","","","","","",""
"","","","","","","","","","","","canvas-keyboard-response","361","6845761","0.0-361.0","null","null","","","","","","","","","","","","","","stimulus","","","2","34","","","","","","","","","",""
"","","","","","","","","","","","canvas-button-response","362","6846524","0.0-362.0","761","flower","","","","","","","","","","","","","","perceptual","","","2","34","","","","","210","flower","6","0","1",""
"","","","","","","","","","","","canvas-button-response","363","6847731","0.0-363.0","1205","10","","","","","","","","","","","","","","confidence","","","2","34","","","","","","","","","","25"
"","","","","","","","","","","","preload","364","6847732","0.0-364.0","","","","","true","","","","","","","","","","","preload","","","2","35","false","[]","[]","[]","","","","","",""
"","","","","","","","","","","","canvas-keyboard-response","365","6848034","0.0-365.0","null","null","","","","","","","","","","","","","","fixation","","","2","35","","","","","","","","","",""
"","","","","","","","","","","","canvas-keyboard-response","366","6848339","0.0-366.0","null","null","","","","","","","","","","","","","","stimulus","","","2","35","","","","","","","","","",""
"","","","","","","","","","","","canvas-button-response","367","6856925","0.0-367.0","8583","cat","","","","","","","","","","","","","","perceptual","","","2","35","","","","","280","cat","6","0","1",""
"","","","","","","","","","","","canvas-button-response","368","6858115","0.0-368.0","1189","3","","","","","","","","","","","","","","confidence","","","2","35","","","","","","","","","","26"
"","","","","","","","","","","","preload","369","6858116","0.0-369.0","","","","","true","","","","","","","","","","","preload","","","2","36","false","[]","[]","[]","","","","","",""
"","","","","","","","","","","","canvas-keyboard-response","370","6858418","0.0-370.0","null","null","","","","","","","","","","","","","","fixation","","","2","36","","","","","","","","","",""
"","","","","","","","","","","","canvas-keyboard-response","371","6858721","0.0-371.0","null","null","","","","","","","","","","","","","","stimulus","","","2","36","","","","","","","","","",""
"","","","","","","","","","","","canvas-button-response","372","6859964","0.0-372.0","1241","train","","","","","","","","","","","","","","perceptual","","","2","36","","","","","25","house","10","0","0",""
"","","","","","","","","","","","canvas-button-response","373","6860980","0.0-373.0","1014","5","","","","","","","","","","","","","","confidence","","","2","36","","","","","","","","","","26"
"","","","","","","","","","","","preload","374","6860980","0.0-374.0","","","","","true","","","","","","","","","","","preload","","","2","37","false","[]","[]","[]","","","","","",""
"","","","","","","","","","","","canvas-keyboard-response","375","6861283","0.0-375.0","null","null","","","","","","","","","","","","","","fixation","","","2","37","","","","","","","","","",""
"","","","","","","","","","","","canvas-keyboard-response","376","6861586","0.0-376.0","null","null","","","","","","","","","","","","","","stimulus","","","2","37","","","","","","","","","",""
"","","","","","","","","","","","canvas-button-response","377","6863641","0.0-377.0","2053","phone","","","","","","","","","","","","","","perceptual","","","2","37","","","","","386","knife","10","0","0",""
"","","","","","","","","","","","canvas-button-response","378","6864657","0.0-378.0","1015","3","","","","","","","","","","","","","","confidence","","","2","37","","","","","","","","","","26"
"","","","","","","","","","","","preload","379","6864657","0.0-379.0","","","","","true","","","","","","","","","","","preload","","","2","38","false","[]","[]","[]","","","","","",""
"","","","","","","","","","","","canvas-keyboard-response","380","6864959","0.0-380.0","null","null","","","","","","","","","","","","","","fixation","","","2","38","","","","","","","","","",""
"","","","","","","","","","","","canvas-keyboard-response","381","6865263","0.0-381.0","null","null","","","","","","","","","","","","","","stimulus","","","2","38","","","","","","","","","",""
"","","","","","","","","","","","canvas-button-response","382","6868913","0.0-382.0","3648","bridge","","","","","","","","","","","","","","perceptual","","","2","38","","","","","258","train","6","0","0",""
"","","","","","","","","","","","canvas-button-response","383","6870649","0.0-383.0","1735","5","","","","","","","","","","","","","","confidence","","","2","38","","","","","","","","","","26"
"","","","","","","","","","","","preload","384","6870649","0.0-384.0","","","","","true","","","","","","","","","","","preload","","","2","39","false","[]","[]","[]","","","","","",""
"","","","","","","","","","","","canvas-keyboard-response","385","6870951","0.0-385.0","null","null","","","","","","","","","","","","","","fixation","","","2","39","","","","","","","","","",""
"","","","","","","","","","","","canvas-keyboard-response","386","6871255","0.0-386.0","null","null","","","","","","","","","","","","","","stimulus","","","2","39","","","","","","","","","",""
"","","","","","","","","","","","canvas-button-response","387","6873377","0.0-387.0","2120","house","","","","","","","","","","","","","","perceptual","","","2","39","","","","","36","house","10","0","1",""
"","","","","","","","","","","","canvas-button-response","388","6874721","0.0-388.0","1343","6","","","","","","","","","","","","","","confidence","","","2","39","","","","","","","","","","27"
"","","","","","","","","","","","preload","389","6874721","0.0-389.0","","","","","true","","","","","","","","","","","preload","","","2","40","false","[]","[]","[]","","","","","",""
"","","","","","","","","","","","canvas-keyboard-response","390","6875024","0.0-390.0","null","null","","","","","","","","","","","","","","fixation","","","2","40","","","","","","","","","",""
"","","","","","","","","","","","canvas-keyboard-response","391","6875327","0.0-391.0","null","null","","","","","","","","","","","","","","stimulus","","","2","40","","","","","","","","","",""
"","","","","","","","","","","","canvas-button-response","392","6878484","0.0-392.0","3156","house","","","","","","","","","","","","","","perceptual","","","2","40","","","","","14","house","6","0","1",""
"","","","","","","","","","","","canvas-button-response","393","6879566","0.0-393.0","1080","5","","","","","","","","","","","","","","confidence","","","2","40","","","","","","","","","","28"
"","","","","","","","","","","","preload","394","6879567","0.0-394.0","","","","","true","","","","","","","","","","","preload","","","2","41","false","[]","[]","[]","","","","","",""
"","","","","","","","","","","","canvas-keyboard-response","395","6879869","0.0-395.0","null","null","","","","","","","","","","","","","","fixation","","","2","41","","","","","","","","","",""
"","","","","","","","","","","","canvas-keyboard-response","396","6880171","0.0-396.0","null","null","","","","","","","","","","","","","","stimulus","","","2","41","","","","","","","","","",""
"","","","","","","","","","","","canvas-button-response","397","6881396","0.0-397.0","1223","knife","","","","","","","","","","","","","","perceptual","","","2","41","","","","","391","knife","10","0","1",""
"","","","","","","","","","","","canvas-button-response","398","6883132","0.0-398.0","1735","8","","","","","","","","","","","","","","confidence","","","2","41","","","","","","","","","","29"
"","","","","","","","","","","","preload","399","6883133","0.0-399.0","","","","","true","","","","","","","","","","","preload","","","2","42","false","[]","[]","[]","","","","","",""
"","","","","","","","","","","","canvas-keyboard-response","400","6883435","0.0-400.0","null","null","","","","","","","","","","","","","","fixation","","","2","42","","","","","","","","","",""
"","","","","","","","","","","","canvas-keyboard-response","401","6883738","0.0-401.0","null","null","","","","","","","","","","","","","","stimulus","","","2","42","","","","","","","","","",""
"","","","","","","","","","","","canvas-button-response","402","6886100","0.0-402.0","2360","house","","","","","","","","","","","","","","perceptual","","","2","42","","","","","7","house","6","0","1",""
"","","","","","","","","","","","canvas-button-response","403","6886844","0.0-403.0","743","7","","","","","","","","","","","","","","confidence","","","2","42","","","","","","","","","","30"
"","","","","","","","","","","","preload","404","6886844","0.0-404.0","","","","","true","","","","","","","","","","","preload","","","2","43","false","[]","[]","[]","","","","","",""
"","","","","","","","","","","","canvas-keyboard-response","405","6887146","0.0-405.0","null","null","","","","","","","","","","","","","","fixation","","","2","43","","","","","","","","","",""
"","","","","","","","","","","","canvas-keyboard-response","406","6887449","0.0-406.0","null","null","","","","","","","","","","","","","","stimulus","","","2","43","","","","","","","","","",""
"","","","","","","","","","","","canvas-button-response","407","6888475","0.0-407.0","1024","knife","","","","","","","","","","","","","","perceptual","","","2","43","","","","","183","bridge","10","0","0",""
"","","","","","","","","","","","canvas-button-response","408","6889404","0.0-408.0","927","7","","","","","","","","","","","","","","confidence","","","2","43","","","","","","","","","","30"
"","","","","","","","","","","","preload","409","6889404","0.0-409.0","","","","","true","","","","","","","","","","","preload","","","2","44","false","[]","[]","[]","","","","","",""
"","","","","","","","","","","","canvas-keyboard-response","410","6889707","0.0-410.0","null","null","","","","","","","","","","","","","","fixation","","","2","44","","","","","","","","","",""
"","","","","","","","","","","","canvas-keyboard-response","411","6890009","0.0-411.0","null","null","","","","","","","","","","","","","","stimulus","","","2","44","","","","","","","","","",""
"","","","","","","","","","","","canvas-button-response","412","6890820","0.0-412.0","809","elephant","","","","","","","","","","","","","","perceptual","","","2","44","","","","","341","elephant","10","0","1",""
"","","","","","","","","","","","canvas-button-response","413","6891515","0.0-413.0","694","10","","","","","","","","","","","","","","confidence","","","2","44","","","","","","","","","","31"
"","","","","","","","","","","","preload","414","6891516","0.0-414.0","","","","","true","","","","","","","","","","","preload","","","2","45","false","[]","[]","[]","","","","","",""
"","","","","","","","","","","","canvas-keyboard-response","415","6891819","0.0-415.0","null","null","","","","","","","","","","","","","","fixation","","","2","45","","","","","","","","","",""
"","","","","","","","","","","","canvas-keyboard-response","416","6892122","0.0-416.0","null","null","","","","","","","","","","","","","","stimulus","","","2","45","","","","","","","","","",""
"","","","","","","","","","","","canvas-button-response","417","6893179","0.0-417.0","1055","cat","","","","","","","","","","","","","","perceptual","","","2","45","","","","","297","cat","6","0","1",""
"","","","","","","","","","","","canvas-button-response","418","6894051","0.0-418.0","871","9","","","","","","","","","","","","","","confidence","","","2","45","","","","","","","","","","32"
"","","","","","","","","","","","preload","419","6894052","0.0-419.0","","","","","true","","","","","","","","","","","preload","","","2","46","false","[]","[]","[]","","","","","",""
"","","","","","","","","","","","canvas-keyboard-response","420","6894354","0.0-420.0","null","null","","","","","","","","","","","","","","fixation","","","2","46","","","","","","","","","",""
"","","","","","","","","","","","canvas-keyboard-response","421","6894658","0.0-421.0","null","null","","","","","","","","","","","","","","stimulus","","","2","46","","","","","","","","","",""
"","","","","","","","","","","","canvas-button-response","422","6897995","0.0-422.0","3335","train","","","","","","","","","","","","","","perceptual","","","2","46","","","","","325","elephant","6","0","0",""
"","","","","","","","","","","","canvas-button-response","423","6899123","0.0-423.0","1127","5","","","","","","","","","","","","","","confidence","","","2","46","","","","","","","","","","32"
"","","","","","","","","","","","preload","424","6899124","0.0-424.0","","","","","true","","","","","","","","","","","preload","","","2","47","false","[]","[]","[]","","","","","",""
"","","","","","","","","","","","canvas-keyboard-response","425","6899427","0.0-425.0","null","null","","","","","","","","","","","","","","fixation","","","2","47","","","","","","","","","",""
"","","","","","","","","","","","canvas-keyboard-response","426","6899730","0.0-426.0","null","null","","","","","","","","","","","","","","stimulus","","","2","47","","","","","","","","","",""
"","","","","","","","","","","","canvas-button-response","427","6900595","0.0-427.0","864","elephant","","","","","","","","","","","","","","perceptual","","","2","47","","","","","331","elephant","6","0","1",""
"","","","","","","","","","","","canvas-button-response","428","6901684","0.0-428.0","1088","10","","","","","","","","","","","","","","confidence","","","2","47","","","","","","","","","","33"
"","","","","","","","","","","","preload","429","6901685","0.0-429.0","","","","","true","","","","","","","","","","","preload","","","2","48","false","[]","[]","[]","","","","","",""
"","","","","","","","","","","","canvas-keyboard-response","430","6901988","0.0-430.0","null","null","","","","","","","","","","","","","","fixation","","","2","48","","","","","","","","","",""
"","","","","","","","","","","","canvas-keyboard-response","431","6902292","0.0-431.0","null","null","","","","","","","","","","","","","","stimulus","","","2","48","","","","","","","","","",""
"","","","","","","","","","","","canvas-button-response","432","6903162","0.0-432.0","868","cat","","","","","","","","","","","","","","perceptual","","","2","48","","","","","304","cat","10","0","1",""
"","","","","","","","","","","","canvas-button-response","433","6903819","0.0-433.0","656","10","","","","","","","","","","","","","","confidence","","","2","48","","","","","","","","","","34"
"","","","","","","","","","","","preload","434","6903819","0.0-434.0","","","","","true","","","","","","","","","","","preload","","","2","49","false","[]","[]","[]","","","","","",""
"","","","","","","","","","","","canvas-keyboard-response","435","6904122","0.0-435.0","null","null","","","","","","","","","","","","","","fixation","","","2","49","","","","","","","","","",""
"","","","","","","","","","","","canvas-keyboard-response","436","6904425","0.0-436.0","null","null","","","","","","","","","","","","","","stimulus","","","2","49","","","","","","","","","",""
"","","","","","","","","","","","canvas-button-response","437","6907670","0.0-437.0","3244","train","","","","","","","","","","","","","","perceptual","","","2","49","","","","","33","house","10","0","0",""
"","","","","","","","","","","","canvas-button-response","438","6908919","0.0-438.0","1247","4","","","","","","","","","","","","","","confidence","","","2","49","","","","","","","","","","34"
"","","","","","","","","","","","html-button-response","439","7365193","0.0-439.0","456269","0","","","","","","","","","","","","","","<p style=""font-size:20px;color:#000000"">You got 34 out of 50 trials correct in this block.<br><br>You have completed 6% of the experiment.<br><br>Take a short break.<br><br>When you are ready, click Continue to proceed.","","","2","49","","","","","","","","","",""
"","","","","","","","","","","","html-keyboard-response","440","7366210","0.0-440.0","null","null","","","","","","","","","","","","","","<p style=""font-size:32px;color:#000000""><br><br> RUN: &nbsp 1/4 <br><br> BLOCK: 2/4 ","","","2","49","","","","","","","","","",""
"","","","","","","","","","","","preload","441","7366211","0.0-441.0","","","","","true","","","","","","","","","","","preload","","","2","50","false","[]","[]","[]","","","","","",""
"","","","","","","","","","","","canvas-keyboard-response","442","7366523","0.0-442.0","null","null","","","","","","","","","","","","","","fixation","","","2","50","","","","","","","","","",""
"","","","","","","","","","","","canvas-keyboard-response","443","7366826","0.0-443.0","null","null","","","","","","","","","","","","","","stimulus","","","2","50","","","","","","","","","",""
"","","","","","","","","","","","canvas-button-response","444","7371215","0.0-444.0","4384","bridge","","","","","","","","","","","","","","perceptual","","","2","50","","","","","29","house","10","0","0",""
"","","","","","","","","","","","canvas-button-response","445","7372700","0.0-445.0","1483","3","","","","","","","","","","","","","","confidence","","","2","50","","","","","","","","","","0"
"","","","","","","","","","","","preload","446","7372701","0.0-446.0","","","","","true","","","","","","","","","","","preload","","","2","51","false","[]","[]","[]","","","","","",""
"","","","","","","","","","","","canvas-keyboard-response","447","7373004","0.0-447.0","null","null","","","","","","","","","","","","","","fixation","","","2","51","","","","","","","","","",""
"","","","","","","","","","","","canvas-keyboard-response","448","7373306","0.0-448.0","null","null","","","","","","","","","","","","","","stimulus","","","2","51","","","","","","","","","",""
"","","","","","","","","","","","canvas-button-response","449","7374428","0.0-449.0","1119","flower","","","","","","","","","","","","","","perceptual","","","2","51","","","","","218","flower","6","0","1",""
"","","","","","","","","","","","canvas-button-response","450","7375661","0.0-450.0","1232","6","","","","","","","","","","","","","","confidence","","","2","51","","","","","","","","","","1"
"","","","","","","","","","","","preload","451","7375661","0.0-451.0","","","","","true","","","","","","","","","","","preload","","","2","52","false","[]","[]","[]","","","","","",""
"","","","","","","","","","","","canvas-keyboard-response","452","7375964","0.0-452.0","null","null","","","","","","","","","","","","","","fixation","","","2","52","","","","","","","","","",""
"","","","","","","","","","","","canvas-keyboard-response","453","7376267","0.0-453.0","null","null","","","","","","","","","","","","","","stimulus","","","2","52","","","","","","","","","",""
"","","","","","","","","","","","canvas-button-response","454","7378110","0.0-454.0","1840","car","","","","","","","","","","","","","","perceptual","","","2","52","","","","","262","train","10","0","0",""
"","","","","","","","","","","","canvas-button-response","455","7379108","0.0-455.0","997","5","","","","","","","","","","","","","","confidence","","","2","52","","","","","","","","","","1"
"","","","","","","","","","","","preload","456","7379108","0.0-456.0","","","","","true","","","","","","","","","","","preload","","","2","53","false","[]","[]","[]","","","","","",""
"","","","","","","","","","","","canvas-keyboard-response","457","7379410","0.0-457.0","null","null","","","","","","","","","","","","","","fixation","","","2","53","","","","","","","","","",""
"","","","","","","","","","","","canvas-keyboard-response","458","7379713","0.0-458.0","null","null","","","","","","","","","","","","","","stimulus","","","2","53","","","","","","","","","",""
"","","","","","","","","","","","canvas-button-response","459","7380661","0.0-459.0","946","cat","","","","","","","","","","","","","","perceptual","","","2","53","","","","","281","cat","6","0","1",""
"","","","","","","","","","","","canvas-button-response","460","7381781","0.0-460.0","1118","8","","","","","","","","","","","","","","confidence","","","2","53","","","","","","","","","","2"
"","","","","","","","","","","","preload","461","7381781","0.0-461.0","","","","","true","","","","","","","","","","","preload","","","2","54","false","[]","[]","[]","","","","","",""
"","","","","","","","","","","","canvas-keyboard-response","462","7382084","0.0-462.0","null","null","","","","","","","","","","","","","","fixation","","","2","54","","","","","","","","","",""
"","","","","","","","","","","","canvas-keyboard-response","463","7382387","0.0-463.0","null","null","","","","","","","","","","","","","","stimulus","","","2","54","","","","","","","","","",""
"","","","","","","","","","","","canvas-button-response","464","7387966","0.0-464.0","5578","bridge","","","","","","","","","","","","","","perceptual","","","2","54","","","","","164","bridge","6","0","1",""
"","","","","","","","","","","","canvas-button-response","465","7389032","0.0-465.0","1064","7","","","","","","","","","","","","","","confidence","","","2","54","","","","","","","","","","3"
"","","","","","","","","","","","preload","466","7389033","0.0-466.0","","","","","true","","","","","","","","","","","preload","","","2","55","false","[]","[]","[]","","","","","",""
"","","","","","","","","","","","canvas-keyboard-response","467","7389336","0.0-467.0","null","null","","","","","","","","","","","","","","fixation","","","2","55","","","","","","","","","",""
"","","","","","","","","","","","canvas-keyboard-response","468","7389639","0.0-468.0","null","null","","","","","","","","","","","","","","stimulus","","","2","55","","","","","","","","","",""
"","","","","","","","","","","","canvas-button-response","469","7391208","0.0-469.0","1568","flower","","","","","","","","","","","","","","perceptual","","","2","55","","","","","225","flower","10","0","1",""
"","","","","","","","","","","","canvas-button-response","470","7392704","0.0-470.0","1494","7","","","","","","","","","","","","","","confidence","","","2","55","","","","","","","","","","4"
"","","","","","","","","","","","preload","471","7392705","0.0-471.0","","","","","true","","","","","","","","","","","preload","","","2","56","false","[]","[]","[]","","","","","",""
"","","","","","","","","","","","canvas-keyboard-response","472","7393007","0.0-472.0","null","null","","","","","","","","","","","","","","fixation","","","2","56","","","","","","","","","",""
"","","","","","","","","","","","canvas-keyboard-response","473","7393311","0.0-473.0","null","null","","","","","","","","","","","","","","stimulus","","","2","56","","","","","","","","","",""
"","","","","","","","","","","","canvas-button-response","474","7394585","0.0-474.0","1271","bed","","","","","","","","","","","","","","perceptual","","","2","56","","","","","123","bed","6","0","1",""
"","","","","","","","","","","","canvas-button-response","475","7395855","0.0-475.0","1269","8","","","","","","","","","","","","","","confidence","","","2","56","","","","","","","","","","5"
"","","","","","","","","","","","preload","476","7395856","0.0-476.0","","","","","true","","","","","","","","","","","preload","","","2","57","false","[]","[]","[]","","","","","",""
"","","","","","","","","","","","canvas-keyboard-response","477","7396158","0.0-477.0","null","null","","","","","","","","","","","","","","fixation","","","2","57","","","","","","","","","",""
"","","","","","","","","","","","canvas-keyboard-response","478","7396461","0.0-478.0","null","null","","","","","","","","","","","","","","stimulus","","","2","57","","","","","","","","","",""
"","","","","","","","","","","","canvas-button-response","479","7402423","0.0-479.0","5961","train","","","","","","","","","","","","","","perceptual","","","2","57","","","","","288","cat","6","0","0",""
"","","","","","","","","","","","canvas-button-response","480","7404744","0.0-480.0","2319","4","","","","","","","","","","","","","","confidence","","","2","57","","","","","","","","","","5"
"","","","","","","","","","","","preload","481","7404744","0.0-481.0","","","","","true","","","","","","","","","","","preload","","","2","58","false","[]","[]","[]","","","","","",""
"","","","","","","","","","","","canvas-keyboard-response","482","7405048","0.0-482.0","null","null","","","","","","","","","","","","","","fixation","","","2","58","","","","","","","","","",""
"","","","","","","","","","","","canvas-keyboard-response","483","7405351","0.0-483.0","null","null","","","","","","","","","","","","","","stimulus","","","2","58","","","","","","","","","",""
"","","","","","","","","","","","canvas-button-response","484","7406256","0.0-484.0","903","bed","","","","","","","","","","","","","","perceptual","","","2","58","","","","","131","bed","6","0","1",""
"","","","","","","","","","","","canvas-button-response","485","7407616","0.0-485.0","1359","10","","","","","","","","","","","","","","confidence","","","2","58","","","","","","","","","","6"
"","","","","","","","","","","","preload","486","7407617","0.0-486.0","","","","","true","","","","","","","","","","","preload","","","2","59","false","[]","[]","[]","","","","","",""
"","","","","","","","","","","","canvas-keyboard-response","487","7407920","0.0-487.0","null","null","","","","","","","","","","","","","","fixation","","","2","59","","","","","","","","","",""
"","","","","","","","","","","","canvas-keyboard-response","488","7408223","0.0-488.0","null","null","","","","","","","","","","","","","","stimulus","","","2","59","","","","","","","","","",""
"","","","","","","","","","","","canvas-button-response","489","7409409","0.0-489.0","1184","bridge","","","","","","","","","","","","","","perceptual","","","2","59","","","","","169","bridge","6","0","1",""
