"width","height","webaudio","browser","browser_version","mobile","os","fullscreen","vsync_rate","webcam","microphone","trial_type","trial_index","time_elapsed","internal_node_id","rt","response","accuracy","view_history","success","item_width_mm","item_height_mm","item_width_px","px2mm","view_dist_mm","item_width_deg","px2deg","scale_factor","win_width_deg","win_height_deg","stimulus","datetime","subjectID","curr_triallist","trial_no","timeout","failed_images","failed_audio","failed_video","image_index","category","blur","reps","correct","running_score"
"4410","2298","true","chrome","140.0.0","false","Mac OS","true","60.17","true","true","browser-check","0","1002","0.0-0.0","","","","","","","","","","","","","","","","","","","","","","","","","","","","","",""
"","","","","","","","","","","","survey","1","57458","0.0-1.0","56420","{""P0_Q0"":""904096875"",""P0_Q1"":""18"",""P1_Q0"":""Female"",""P1_Q1"":""Not Hispanic or Latino"",""P1_Q2"":""Asian"",""P1_Q3"":""Corrected-to-Normal (using glasses/contacts)"",""P1_Q4"":""Right-Handed""}","[]","","","","","","","","","","","","","","","","","","","","","","","","","","",""
"","","","","","","","","","","","instructions","2","230676","0.0-2.0","173219","","","[{""page_index"":0,""viewing_time"":1320},{""page_index"":1,""viewing_time"":135999},{""page_index"":2,""viewing_time"":30317},{""page_index"":3,""viewing_time"":5584}]","","","","","","","","","","","","","","","","","","","","","","","","","",""
"","","","","","","","","","","","fullscreen","3","232828","0.0-3.0","1148","","","","true","","","","","","","","","","","","","","","","","","","","","","","","",""
"","","","","","","","","","","","virtual-chinrest","4","300360","0.0-4.0","67530","","","","","85.6","53.98","204.1769911171308","2.3857127752277307","719.78","6.805899703904361","30","6.396411235440252","49","25.533333333333335","","","","","","","","","","","","","","",""
"","","","","","","","","","","","instructions","5","355397","0.0-5.0","55036","","","[{""page_index"":0,""viewing_time"":11047},{""page_index"":1,""viewing_time"":9450},{""page_index"":2,""viewing_time"":27871},{""page_index"":3,""viewing_time"":1050},{""page_index"":4,""viewing_time"":921},{""page_index"":5,""viewing_time"":2303},{""page_index"":6,""viewing_time"":2393}]","","","","","","","","","","","","","","","","","","","","","","","","","",""
"","","","","","","","","","","","html-button-response","6","357625","0.0-6.0","2226","0","","","","","","","","","","","","","","start_practice","Sat Oct 18 2025 19:39:56 GMT-0400 (Eastern Daylight Time)","27699","","","","","","","","","","","",""
"","","","","","","","","","","","preload","7","357627","0.0-7.0","","","","","true","","","","","","","","","","","preload","","","0","0","false","[]","[]","[]","","","","","",""
"","","","","","","","","","","","canvas-keyboard-response","8","357929","0.0-8.0","null","null","","","","","","","","","","","","","","fixation","","","0","0","","","","","","","","","",""
"","","","","","","","","","","","canvas-keyboard-response","9","358232","0.0-9.0","null","null","","","","","","","","","","","","","","stimulus","","","0","0","","","","","","","","","",""
"","","","","","","","","","","","canvas-button-response","10","362908","0.0-10.0","4674","train","","","","","","","","","","","","","","perceptual","","","0","0","","","","","62","train","1","","1",""
"","","","","","","","","","","","canvas-button-response","11","369442","0.0-11.0","6531","10","","","","","","","","","","","","","","confidence","","","0","0","","","","","","","","","","1"
"","","","","","","","","","","","html-keyboard-response","12","370444","0.0-12.0","null","null","","","","","","","","","","","","","","feedback","Sat Oct 18 2025 19:40:10 GMT-0400 (Eastern Daylight Time)","27699","0","0","","","","","","","","","",""
"","","","","","","","","","","","preload","13","370445","0.0-13.0","","","","","true","","","","","","","","","","","preload","","","0","1","false","[]","[]","[]","","","","","",""
"","","","","","","","","","","","canvas-keyboard-response","14","370748","0.0-14.0","null","null","","","","","","","","","","","","","","fixation","","","0","1","","","","","","","","","",""
"","","","","","","","","","","","canvas-keyboard-response","15","371051","0.0-15.0","null","null","","","","","","","","","","","","","","stimulus","","","0","1","","","","","","","","","",""
"","","","","","","","","","","","canvas-button-response","16","372542","0.0-16.0","1489","knife","","","","","","","","","","","","","","perceptual","","","0","1","","","","","92","knife","1","","1",""
"","","","","","","","","","","","canvas-button-response","17","373575","0.0-17.0","1031","10","","","","","","","","","","","","","","confidence","","","0","1","","","","","","","","","","2"
"","","","","","","","","","","","html-keyboard-response","18","374578","0.0-18.0","null","null","","","","","","","","","","","","","","feedback","Sat Oct 18 2025 19:40:14 GMT-0400 (Eastern Daylight Time)","27699","0","1","","","","","","","","","",""
"","","","","","","","","","","","preload","19","374579","0.0-19.0","","","","","true","","","","","","","","","","","preload","","","0","2","false","[]","[]","[]","","","","","",""
"","","","","","","","","","","","canvas-keyboard-response","20","374882","0.0-20.0","null","null","","","","","","","","","","","","","","fixation","","","0","2","","","","","","","","","",""
"","","","","","","","","","","","canvas-keyboard-response","21","375184","0.0-21.0","null","null","","","","","","","","","","","","","","stimulus","","","0","2","","","","","","","","","",""
"","","","","","","","","","","","canvas-button-response","22","376125","0.0-22.0","939","house","","","","","","","","","","","","","","perceptual","","","0","2","","","","","2","house","1","","1",""
"","","","","","","","","","","","canvas-button-response","23","377442","0.0-23.0","1315","10","","","","","","","","","","","","","","confidence","","","0","2","","","","","","","","","","3"
"","","","","","","","","","","","html-keyboard-response","24","378445","0.0-24.0","null","null","","","","","","","","","","","","","","feedback","Sat Oct 18 2025 19:40:18 GMT-0400 (Eastern Daylight Time)","27699","0","2","","","","","","","","","",""
"","","","","","","","","","","","preload","25","378446","0.0-25.0","","","","","true","","","","","","","","","","","preload","","","0","3","false","[]","[]","[]","","","","","",""
"","","","","","","","","","","","canvas-keyboard-response","26","378749","0.0-26.0","null","null","","","","","","","","","","","","","","fixation","","","0","3","","","","","","","","","",""
"","","","","","","","","","","","canvas-keyboard-response","27","379051","0.0-27.0","null","null","","","","","","","","","","","","","","stimulus","","","0","3","","","","","","","","","",""
"","","","","","","","","","","","canvas-button-response","28","382374","0.0-28.0","3322","cat","","","","","","","","","","","","","","perceptual","","","0","3","","","","","72","cat","1","","1",""
"","","","","","","","","","","","canvas-button-response","29","383342","0.0-29.0","965","10","","","","","","","","","","","","","","confidence","","","0","3","","","","","","","","","","4"
"","","","","","","","","","","","html-keyboard-response","30","384344","0.0-30.0","null","null","","","","","","","","","","","","","","feedback","Sat Oct 18 2025 19:40:24 GMT-0400 (Eastern Daylight Time)","27699","0","3","","","","","","","","","",""
"","","","","","","","","","","","preload","31","384345","0.0-31.0","","","","","true","","","","","","","","","","","preload","","","0","4","false","[]","[]","[]","","","","","",""
"","","","","","","","","","","","canvas-keyboard-response","32","384648","0.0-32.0","null","null","","","","","","","","","","","","","","fixation","","","0","4","","","","","","","","","",""
"","","","","","","","","","","","canvas-keyboard-response","33","384950","0.0-33.0","null","null","","","","","","","","","","","","","","stimulus","","","0","4","","","","","","","","","",""
"","","","","","","","","","","","canvas-button-response","34","387158","0.0-34.0","2206","elephant","","","","","","","","","","","","","","perceptual","","","0","4","","","","","82","elephant","1","","1",""
"","","","","","","","","","","","canvas-button-response","35","387875","0.0-35.0","715","10","","","","","","","","","","","","","","confidence","","","0","4","","","","","","","","","","5"
"","","","","","","","","","","","html-keyboard-response","36","388876","0.0-36.0","null","null","","","","","","","","","","","","","","feedback","Sat Oct 18 2025 19:40:29 GMT-0400 (Eastern Daylight Time)","27699","0","4","","","","","","","","","",""
"","","","","","","","","","","","preload","37","388877","0.0-37.0","","","","","true","","","","","","","","","","","preload","","","0","5","false","[]","[]","[]","","","","","",""
"","","","","","","","","","","","canvas-keyboard-response","38","389180","0.0-38.0","null","null","","","","","","","","","","","","","","fixation","","","0","5","","","","","","","","","",""
"","","","","","","","","","","","canvas-keyboard-response","39","389483","0.0-39.0","null","null","","","","","","","","","","","","","","stimulus","","","0","5","","","","","","","","","",""
"","","","","","","","","","","","canvas-button-response","40","391558","0.0-40.0","2073","flower","","","","","","","","","","","","","","perceptual","","","0","5","","","","","52","flower","1","","1",""
"","","","","","","","","","","","canvas-button-response","41","393341","0.0-41.0","1781","5","","","","","","","","","","","","","","confidence","","","0","5","","","","","","","","","","6"
"","","","","","","","","","","","html-keyboard-response","42","394344","0.0-42.0","null","null","","","","","","","","","","","","","","feedback","Sat Oct 18 2025 19:40:34 GMT-0400 (Eastern Daylight Time)","27699","0","5","","","","","","","","","",""
"","","","","","","","","","","","preload","43","394345","0.0-43.0","","","","","true","","","","","","","","","","","preload","","","0","6","false","[]","[]","[]","","","","","",""
"","","","","","","","","","","","canvas-keyboard-response","44","394647","0.0-44.0","null","null","","","","","","","","","","","","","","fixation","","","0","6","","","","","","","","","",""
"","","","","","","","","","","","canvas-keyboard-response","45","394950","0.0-45.0","null","null","","","","","","","","","","","","","","stimulus","","","0","6","","","","","","","","","",""
"","","","","","","","","","","","canvas-button-response","46","395991","0.0-46.0","1039","bridge","","","","","","","","","","","","","","perceptual","","","0","6","","","","","42","bridge","1","","1",""
"","","","","","","","","","","","canvas-button-response","47","404324","0.0-47.0","8332","10","","","","","","","","","","","","","","confidence","","","0","6","","","","","","","","","","7"
"","","","","","","","","","","","html-keyboard-response","48","405327","0.0-48.0","null","null","","","","","","","","","","","","","","feedback","Sat Oct 18 2025 19:40:45 GMT-0400 (Eastern Daylight Time)","27699","0","6","","","","","","","","","",""
"","","","","","","","","","","","preload","49","405328","0.0-49.0","","","","","true","","","","","","","","","","","preload","","","0","7","false","[]","[]","[]","","","","","",""
"","","","","","","","","","","","canvas-keyboard-response","50","405631","0.0-50.0","null","null","","","","","","","","","","","","","","fixation","","","0","7","","","","","","","","","",""
"","","","","","","","","","","","canvas-keyboard-response","51","405933","0.0-51.0","null","null","","","","","","","","","","","","","","stimulus","","","0","7","","","","","","","","","",""
"","","","","","","","","","","","canvas-button-response","52","407158","0.0-52.0","1223","bed","","","","","","","","","","","","","","perceptual","","","0","7","","","","","32","bed","1","","1",""
"","","","","","","","","","","","canvas-button-response","53","407958","0.0-53.0","798","10","","","","","","","","","","","","","","confidence","","","0","7","","","","","","","","","","8"
"","","","","","","","","","","","html-keyboard-response","54","408961","0.0-54.0","null","null","","","","","","","","","","","","","","feedback","Sat Oct 18 2025 19:40:49 GMT-0400 (Eastern Daylight Time)","27699","0","7","","","","","","","","","",""
"","","","","","","","","","","","preload","55","408962","0.0-55.0","","","","","true","","","","","","","","","","","preload","","","0","8","false","[]","[]","[]","","","","","",""
"","","","","","","","","","","","canvas-keyboard-response","56","409264","0.0-56.0","null","null","","","","","","","","","","","","","","fixation","","","0","8","","","","","","","","","",""
"","","","","","","","","","","","canvas-keyboard-response","57","409567","0.0-57.0","null","null","","","","","","","","","","","","","","stimulus","","","0","8","","","","","","","","","",""
"","","","","","","","","","","","canvas-button-response","58","412958","0.0-58.0","3389","phone","","","","","","","","","","","","","","perceptual","","","0","8","","","","","12","car","1","","0",""
"","","","","","","","","","","","canvas-button-response","59","414307","0.0-59.0","1348","0","","","","","","","","","","","","","","confidence","","","0","8","","","","","","","","","","8"
"","","","","","","","","","","","html-keyboard-response","60","415310","0.0-60.0","null","null","","","","","","","","","","","","","","feedback","Sat Oct 18 2025 19:40:55 GMT-0400 (Eastern Daylight Time)","27699","0","8","","","","","","","","","",""
"","","","","","","","","","","","preload","61","415311","0.0-61.0","","","","","true","","","","","","","","","","","preload","","","0","9","false","[]","[]","[]","","","","","",""
"","","","","","","","","","","","canvas-keyboard-response","62","415614","0.0-62.0","null","null","","","","","","","","","","","","","","fixation","","","0","9","","","","","","","","","",""
"","","","","","","","","","","","canvas-keyboard-response","63","415917","0.0-63.0","null","null","","","","","","","","","","","","","","stimulus","","","0","9","","","","","","","","","",""
"","","","","","","","","","","","canvas-button-response","64","416741","0.0-64.0","822","phone","","","","","","","","","","","","","","perceptual","","","0","9","","","","","22","phone","1","","1",""
"","","","","","","","","","","","canvas-button-response","65","417624","0.0-65.0","881","10","","","","","","","","","","","","","","confidence","","","0","9","","","","","","","","","","9"
"","","","","","","","","","","","html-keyboard-response","66","418626","0.0-66.0","null","null","","","","","","","","","","","","","","feedback","Sat Oct 18 2025 19:40:58 GMT-0400 (Eastern Daylight Time)","27699","0","9","","","","","","","","","",""
"","","","","","","","","","","","html-button-response","67","533023","0.0-67.0","114396","0","","","","","","","","","","","","","","start_practice","Sat Oct 18 2025 19:40:59 GMT-0400 (Eastern Daylight Time)","27699","0","9","","","","","","","","","",""
"","","","","","","","","","","","preload","68","533024","0.0-68.0","","","","","true","","","","","","","","","","","preload","","","1","0","false","[]","[]","[]","","","","","",""
"","","","","","","","","","","","canvas-keyboard-response","69","533325","0.0-69.0","null","null","","","","","","","","","","","","","","fixation","","","1","0","","","","","","","","","",""
"","","","","","","","","","","","canvas-keyboard-response","70","533628","0.0-70.0","null","null","","","","","","","","","","","","","","stimulus","","","1","0","","","","","","","","","",""
"","","","","","","","","","","","canvas-button-response","71","534938","0.0-71.0","1309","car","","","","","","","","","","","","","","perceptual","","","1","0","","","","","67","train","10","","0",""
"","","","","","","","","","","","canvas-button-response","72","536189","0.0-72.0","1249","0","","","","","","","","","","","","","","confidence","","","1","0","","","","","","","","","","0"
"","","","","","","","","","","","html-keyboard-response","73","537191","0.0-73.0","null","null","","","","","","","","","","","","","","feedback","Sat Oct 18 2025 19:42:57 GMT-0400 (Eastern Daylight Time)","27699","1","0","","","","","","","","","",""
"","","","","","","","","","","","preload","74","537192","0.0-74.0","","","","","true","","","","","","","","","","","preload","","","1","1","false","[]","[]","[]","","","","","",""
"","","","","","","","","","","","canvas-keyboard-response","75","537494","0.0-75.0","null","null","","","","","","","","","","","","","","fixation","","","1","1","","","","","","","","","",""
"","","","","","","","","","","","canvas-keyboard-response","76","537797","0.0-76.0","null","null","","","","","","","","","","","","","","stimulus","","","1","1","","","","","","","","","",""
"","","","","","","","","","","","canvas-button-response","77","539055","0.0-77.0","1257","bed","","","","","","","","","","","","","","perceptual","","","1","1","","","","","34","bed","6","","1",""
"","","","","","","","","","","","canvas-button-response","78","540706","0.0-78.0","1649","10","","","","","","","","","","","","","","confidence","","","1","1","","","","","","","","","","1"
"","","","","","","","","","","","html-keyboard-response","79","541709","0.0-79.0","null","null","","","","","","","","","","","","","","feedback","Sat Oct 18 2025 19:43:01 GMT-0400 (Eastern Daylight Time)","27699","1","1","","","","","","","","","",""
"","","","","","","","","","","","preload","80","541710","0.0-80.0","","","","","true","","","","","","","","","","","preload","","","1","2","false","[]","[]","[]","","","","","",""
"","","","","","","","","","","","canvas-keyboard-response","81","542012","0.0-81.0","null","null","","","","","","","","","","","","","","fixation","","","1","2","","","","","","","","","",""
"","","","","","","","","","","","canvas-keyboard-response","82","542315","0.0-82.0","null","null","","","","","","","","","","","","","","stimulus","","","1","2","","","","","","","","","",""
"","","","","","","","","","","","canvas-button-response","83","542973","0.0-83.0","656","phone","","","","","","","","","","","","","","perceptual","","","1","2","","","","","24","phone","6","","1",""
"","","","","","","","","","","","canvas-button-response","84","544006","0.0-84.0","1031","10","","","","","","","","","","","","","","confidence","","","1","2","","","","","","","","","","2"
"","","","","","","","","","","","html-keyboard-response","85","545008","0.0-85.0","null","null","","","","","","","","","","","","","","feedback","Sat Oct 18 2025 19:43:05 GMT-0400 (Eastern Daylight Time)","27699","1","2","","","","","","","","","",""
"","","","","","","","","","","","preload","86","545009","0.0-86.0","","","","","true","","","","","","","","","","","preload","","","1","3","false","[]","[]","[]","","","","","",""
"","","","","","","","","","","","canvas-keyboard-response","87","545312","0.0-87.0","null","null","","","","","","","","","","","","","","fixation","","","1","3","","","","","","","","","",""
"","","","","","","","","","","","canvas-keyboard-response","88","545615","0.0-88.0","null","null","","","","","","","","","","","","","","stimulus","","","1","3","","","","","","","","","",""
"","","","","","","","","","","","canvas-button-response","89","548506","0.0-89.0","2889","knife","","","","","","","","","","","","","","perceptual","","","1","3","","","","","27","phone","10","","0",""
"","","","","","","","","","","","canvas-button-response","90","550273","0.0-90.0","1765","2","","","","","","","","","","","","","","confidence","","","1","3","","","","","","","","","","2"
"","","","","","","","","","","","html-keyboard-response","91","551275","0.0-91.0","null","null","","","","","","","","","","","","","","feedback","Sat Oct 18 2025 19:43:11 GMT-0400 (Eastern Daylight Time)","27699","1","3","","","","","","","","","",""
"","","","","","","","","","","","preload","92","551276","0.0-92.0","","","","","true","","","","","","","","","","","preload","","","1","4","false","[]","[]","[]","","","","","",""
"","","","","","","","","","","","canvas-keyboard-response","93","551579","0.0-93.0","null","null","","","","","","","","","","","","","","fixation","","","1","4","","","","","","","","","",""
"","","","","","","","","","","","canvas-keyboard-response","94","551882","0.0-94.0","null","null","","","","","","","","","","","","","","stimulus","","","1","4","","","","","","","","","",""
"","","","","","","","","","","","canvas-button-response","95","552588","0.0-95.0","705","flower","","","","","","","","","","","","","","perceptual","","","1","4","","","","","54","flower","6","","1",""
"","","","","","","","","","","","canvas-button-response","96","553539","0.0-96.0","950","10","","","","","","","","","","","","","","confidence","","","1","4","","","","","","","","","","3"
"","","","","","","","","","","","html-keyboard-response","97","554542","0.0-97.0","null","null","","","","","","","","","","","","","","feedback","Sat Oct 18 2025 19:43:14 GMT-0400 (Eastern Daylight Time)","27699","1","4","","","","","","","","","",""
"","","","","","","","","","","","preload","98","554543","0.0-98.0","","","","","true","","","","","","","","","","","preload","","","1","5","false","[]","[]","[]","","","","","",""
"","","","","","","","","","","","canvas-keyboard-response","99","554845","0.0-99.0","null","null","","","","","","","","","","","","","","fixation","","","1","5","","","","","","","","","",""
"","","","","","","","","","","","canvas-keyboard-response","100","555148","0.0-100.0","null","null","","","","","","","","","","","","","","stimulus","","","1","5","","","","","","","","","",""
"","","","","","","","","","","","canvas-button-response","101","557889","0.0-101.0","2740","train","","","","","","","","","","","","","","perceptual","","","1","5","","","","","64","train","6","","1",""
"","","","","","","","","","","","canvas-button-response","102","558473","0.0-102.0","581","10","","","","","","","","","","","","","","confidence","","","1","5","","","","","","","","","","4"
"","","","","","","","","","","","html-keyboard-response","103","559475","0.0-103.0","null","null","","","","","","","","","","","","","","feedback","Sat Oct 18 2025 19:43:19 GMT-0400 (Eastern Daylight Time)","27699","1","5","","","","","","","","","",""
"","","","","","","","","","","","preload","104","559476","0.0-104.0","","","","","true","","","","","","","","","","","preload","","","1","6","false","[]","[]","[]","","","","","",""
"","","","","","","","","","","","canvas-keyboard-response","105","559779","0.0-105.0","null","null","","","","","","","","","","","","","","fixation","","","1","6","","","","","","","","","",""
"","","","","","","","","","","","canvas-keyboard-response","106","560082","0.0-106.0","null","null","","","","","","","","","","","","","","stimulus","","","1","6","","","","","","","","","",""
"","","","","","","","","","","","canvas-button-response","107","571122","0.0-107.0","11038","elephant","","","","","","","","","","","","","","perceptual","","","1","6","","","","","77","cat","10","","0",""
"","","","","","","","","","","","canvas-button-response","108","573206","0.0-108.0","2082","0","","","","","","","","","","","","","","confidence","","","1","6","","","","","","","","","","4"
"","","","","","","","","","","","html-keyboard-response","109","574209","0.0-109.0","null","null","","","","","","","","","","","","","","feedback","Sat Oct 18 2025 19:43:34 GMT-0400 (Eastern Daylight Time)","27699","1","6","","","","","","","","","",""
"","","","","","","","","","","","preload","110","574210","0.0-110.0","","","","","true","","","","","","","","","","","preload","","","1","7","false","[]","[]","[]","","","","","",""
"","","","","","","","","","","","canvas-keyboard-response","111","574512","0.0-111.0","null","null","","","","","","","","","","","","","","fixation","","","1","7","","","","","","","","","",""
"","","","","","","","","","","","canvas-keyboard-response","112","574815","0.0-112.0","null","null","","","","","","","","","","","","","","stimulus","","","1","7","","","","","","","","","",""
"","","","","","","","","","","","canvas-button-response","113","576839","0.0-113.0","2022","house","","","","","","","","","","","","","","perceptual","","","1","7","","","","","17","car","10","","0",""
"","","","","","","","","","","","canvas-button-response","114","577872","0.0-114.0","1031","1","","","","","","","","","","","","","","confidence","","","1","7","","","","","","","","","","4"
"","","","","","","","","","","","html-keyboard-response","115","578875","0.0-115.0","null","null","","","","","","","","","","","","","","feedback","Sat Oct 18 2025 19:43:39 GMT-0400 (Eastern Daylight Time)","27699","1","7","","","","","","","","","",""
"","","","","","","","","","","","preload","116","578876","0.0-116.0","","","","","true","","","","","","","","","","","preload","","","1","8","false","[]","[]","[]","","","","","",""
"","","","","","","","","","","","canvas-keyboard-response","117","579178","0.0-117.0","null","null","","","","","","","","","","","","","","fixation","","","1","8","","","","","","","","","",""
"","","","","","","","","","","","canvas-keyboard-response","118","579481","0.0-118.0","null","null","","","","","","","","","","","","","","stimulus","","","1","8","","","","","","","","","",""
"","","","","","","","","","","","canvas-button-response","119","580322","0.0-119.0","839","cat","","","","","","","","","","","","","","perceptual","","","1","8","","","","","74","cat","6","","1",""
"","","","","","","","","","","","canvas-button-response","120","581123","0.0-120.0","799","10","","","","","","","","","","","","","","confidence","","","1","8","","","","","","","","","","5"
"","","","","","","","","","","","html-keyboard-response","121","582125","0.0-121.0","null","null","","","","","","","","","","","","","","feedback","Sat Oct 18 2025 19:43:42 GMT-0400 (Eastern Daylight Time)","27699","1","8","","","","","","","","","",""
"","","","","","","","","","","","preload","122","582126","0.0-122.0","","","","","true","","","","","","","","","","","preload","","","1","9","false","[]","[]","[]","","","","","",""
"","","","","","","","","","","","canvas-keyboard-response","123","582428","0.0-123.0","null","null","","","","","","","","","","","","","","fixation","","","1","9","","","","","","","","","",""
"","","","","","","","","","","","canvas-keyboard-response","124","582731","0.0-124.0","null","null","","","","","","","","","","","","","","stimulus","","","1","9","","","","","","","","","",""
"","","","","","","","","","","","canvas-button-response","125","583589","0.0-125.0","855","bridge","","","","","","","","","","","","","","perceptual","","","1","9","","","","","44","bridge","6","","1",""
"","","","","","","","","","","","canvas-button-response","126","585239","0.0-126.0","1649","5","","","","","","","","","","","","","","confidence","","","1","9","","","","","","","","","","6"
"","","","","","","","","","","","html-keyboard-response","127","586242","0.0-127.0","null","null","","","","","","","","","","","","","","feedback","Sat Oct 18 2025 19:43:46 GMT-0400 (Eastern Daylight Time)","27699","1","9","","","","","","","","","",""
"","","","","","","","","","","","preload","128","586243","0.0-128.0","","","","","true","","","","","","","","","","","preload","","","1","10","false","[]","[]","[]","","","","","",""
"","","","","","","","","","","","canvas-keyboard-response","129","586546","0.0-129.0","null","null","","","","","","","","","","","","","","fixation","","","1","10","","","","","","","","","",""
"","","","","","","","","","","","canvas-keyboard-response","130","586849","0.0-130.0","null","null","","","","","","","","","","","","","","stimulus","","","1","10","","","","","","","","","",""
"","","","","","","","","","","","canvas-button-response","131","588039","0.0-131.0","1188","elephant","","","","","","","","","","","","","","perceptual","","","1","10","","","","","84","elephant","6","","1",""
"","","","","","","","","","","","canvas-button-response","132","589872","0.0-132.0","1831","10","","","","","","","","","","","","","","confidence","","","1","10","","","","","","","","","","7"
"","","","","","","","","","","","html-keyboard-response","133","590875","0.0-133.0","null","null","","","","","","","","","","","","","","feedback","Sat Oct 18 2025 19:43:51 GMT-0400 (Eastern Daylight Time)","27699","1","10","","","","","","","","","",""
"","","","","","","","","","","","preload","134","590876","0.0-134.0","","","","","true","","","","","","","","","","","preload","","","1","11","false","[]","[]","[]","","","","","",""
"","","","","","","","","","","","canvas-keyboard-response","135","591179","0.0-135.0","null","null","","","","","","","","","","","","","","fixation","","","1","11","","","","","","","","","",""
"","","","","","","","","","","","canvas-keyboard-response","136","591482","0.0-136.0","null","null","","","","","","","","","","","","","","stimulus","","","1","11","","","","","","","","","",""
"","","","","","","","","","","","canvas-button-response","137","593839","0.0-137.0","2355","flower","","","","","","","","","","","","","","perceptual","","","1","11","","","","","4","house","6","","0",""
"","","","","","","","","","","","canvas-button-response","138","594905","0.0-138.0","1065","0","","","","","","","","","","","","","","confidence","","","1","11","","","","","","","","","","7"
"","","","","","","","","","","","html-keyboard-response","139","595908","0.0-139.0","null","null","","","","","","","","","","","","","","feedback","Sat Oct 18 2025 19:43:56 GMT-0400 (Eastern Daylight Time)","27699","1","11","","","","","","","","","",""
"","","","","","","","","","","","preload","140","595909","0.0-140.0","","","","","true","","","","","","","","","","","preload","","","1","12","false","[]","[]","[]","","","","","",""
"","","","","","","","","","","","canvas-keyboard-response","141","596212","0.0-141.0","null","null","","","","","","","","","","","","","","fixation","","","1","12","","","","","","","","","",""
"","","","","","","","","","","","canvas-keyboard-response","142","596514","0.0-142.0","null","null","","","","","","","","","","","","","","stimulus","","","1","12","","","","","","","","","",""
"","","","","","","","","","","","canvas-button-response","143","597889","0.0-143.0","1373","phone","","","","","","","","","","","","","","perceptual","","","1","12","","","","","94","knife","6","","0",""
"","","","","","","","","","","","canvas-button-response","144","598939","0.0-144.0","1048","9","","","","","","","","","","","","","","confidence","","","1","12","","","","","","","","","","7"
"","","","","","","","","","","","html-keyboard-response","145","599941","0.0-145.0","null","null","","","","","","","","","","","","","","feedback","Sat Oct 18 2025 19:44:00 GMT-0400 (Eastern Daylight Time)","27699","1","12","","","","","","","","","",""
"","","","","","","","","","","","preload","146","599942","0.0-146.0","","","","","true","","","","","","","","","","","preload","","","1","13","false","[]","[]","[]","","","","","",""
"","","","","","","","","","","","canvas-keyboard-response","147","600245","0.0-147.0","null","null","","","","","","","","","","","","","","fixation","","","1","13","","","","","","","","","",""
"","","","","","","","","","","","canvas-keyboard-response","148","600548","0.0-148.0","null","null","","","","","","","","","","","","","","stimulus","","","1","13","","","","","","","","","",""
"","","","","","","","","","","","canvas-button-response","149","624839","0.0-149.0","24289","knife","","","","","","","","","","","","","","perceptual","","","1","13","","","","","47","bridge","10","","0",""
"","","","","","","","","","","","canvas-button-response","150","626172","0.0-150.0","1331","0","","","","","","","","","","","","","","confidence","","","1","13","","","","","","","","","","7"
"","","","","","","","","","","","html-keyboard-response","151","627174","0.0-151.0","null","null","","","","","","","","","","","","","","feedback","Sat Oct 18 2025 19:44:27 GMT-0400 (Eastern Daylight Time)","27699","1","13","","","","","","","","","",""
"","","","","","","","","","","","preload","152","627175","0.0-152.0","","","","","true","","","","","","","","","","","preload","","","1","14","false","[]","[]","[]","","","","","",""
"","","","","","","","","","","","canvas-keyboard-response","153","627477","0.0-153.0","null","null","","","","","","","","","","","","","","fixation","","","1","14","","","","","","","","","",""
"","","","","","","","","","","","canvas-keyboard-response","154","627780","0.0-154.0","null","null","","","","","","","","","","","","","","stimulus","","","1","14","","","","","","","","","",""
"","","","","","","","","","","","canvas-button-response","155","628705","0.0-155.0","924","car","","","","","","","","","","","","","","perceptual","","","1","14","","","","","14","car","6","","1",""
"","","","","","","","","","","","canvas-button-response","156","630005","0.0-156.0","1298","2","","","","","","","","","","","","","","confidence","","","1","14","","","","","","","","","","8"
"","","","","","","","","","","","html-keyboard-response","157","631007","0.0-157.0","null","null","","","","","","","","","","","","","","feedback","Sat Oct 18 2025 19:44:31 GMT-0400 (Eastern Daylight Time)","27699","1","14","","","","","","","","","",""
"","","","","","","","","","","","preload","158","631008","0.0-158.0","","","","","true","","","","","","","","","","","preload","","","1","15","false","[]","[]","[]","","","","","",""
"","","","","","","","","","","","canvas-keyboard-response","159","631311","0.0-159.0","null","null","","","","","","","","","","","","","","fixation","","","1","15","","","","","","","","","",""
"","","","","","","","","","","","canvas-keyboard-response","160","631614","0.0-160.0","null","null","","","","","","","","","","","","","","stimulus","","","1","15","","","","","","","","","",""
"","","","","","","","","","","","canvas-button-response","161","632322","0.0-161.0","706","flower","","","","","","","","","","","","","","perceptual","","","1","15","","","","","57","flower","10","","1",""
"","","","","","","","","","","","canvas-button-response","162","633138","0.0-162.0","815","9","","","","","","","","","","","","","","confidence","","","1","15","","","","","","","","","","9"
"","","","","","","","","","","","html-keyboard-response","163","634141","0.0-163.0","null","null","","","","","","","","","","","","","","feedback","Sat Oct 18 2025 19:44:34 GMT-0400 (Eastern Daylight Time)","27699","1","15","","","","","","","","","",""
"","","","","","","","","","","","preload","164","634142","0.0-164.0","","","","","true","","","","","","","","","","","preload","","","1","16","false","[]","[]","[]","","","","","",""
"","","","","","","","","","","","canvas-keyboard-response","165","634444","0.0-165.0","null","null","","","","","","","","","","","","","","fixation","","","1","16","","","","","","","","","",""
"","","","","","","","","","","","canvas-keyboard-response","166","634746","0.0-166.0","null","null","","","","","","","","","","","","","","stimulus","","","1","16","","","","","","","","","",""
"","","","","","","","","","","","canvas-button-response","167","636771","0.0-167.0","2024","car","","","","","","","","","","","","","","perceptual","","","1","16","","","","","37","bed","10","","0",""
"","","","","","","","","","","","canvas-button-response","168","637705","0.0-168.0","931","5","","","","","","","","","","","","","","confidence","","","1","16","","","","","","","","","","9"
"","","","","","","","","","","","html-keyboard-response","169","638707","0.0-169.0","null","null","","","","","","","","","","","","","","feedback","Sat Oct 18 2025 19:44:38 GMT-0400 (Eastern Daylight Time)","27699","1","16","","","","","","","","","",""
"","","","","","","","","","","","preload","170","638708","0.0-170.0","","","","","true","","","","","","","","","","","preload","","","1","17","false","[]","[]","[]","","","","","",""
"","","","","","","","","","","","canvas-keyboard-response","171","639011","0.0-171.0","null","null","","","","","","","","","","","","","","fixation","","","1","17","","","","","","","","","",""
"","","","","","","","","","","","canvas-keyboard-response","172","639314","0.0-172.0","null","null","","","","","","","","","","","","","","stimulus","","","1","17","","","","","","","","","",""
"","","","","","","","","","","","canvas-button-response","173","640072","0.0-173.0","756","house","","","","","","","","","","","","","","perceptual","","","1","17","","","","","7","house","10","","1",""
"","","","","","","","","","","","canvas-button-response","174","641105","0.0-174.0","1031","8","","","","","","","","","","","","","","confidence","","","1","17","","","","","","","","","","10"
"","","","","","","","","","","","html-keyboard-response","175","642107","0.0-175.0","null","null","","","","","","","","","","","","","","feedback","Sat Oct 18 2025 19:44:42 GMT-0400 (Eastern Daylight Time)","27699","1","17","","","","","","","","","",""
"","","","","","","","","","","","preload","176","642108","0.0-176.0","","","","","true","","","","","","","","","","","preload","","","1","18","false","[]","[]","[]","","","","","",""
"","","","","","","","","","","","canvas-keyboard-response","177","642411","0.0-177.0","null","null","","","","","","","","","","","","","","fixation","","","1","18","","","","","","","","","",""
"","","","","","","","","","","","canvas-keyboard-response","178","642714","0.0-178.0","null","null","","","","","","","","","","","","","","stimulus","","","1","18","","","","","","","","","",""
"","","","","","","","","","","","canvas-button-response","179","643355","0.0-179.0","639","knife","","","","","","","","","","","","","","perceptual","","","1","18","","","","","97","knife","10","","1",""
"","","","","","","","","","","","canvas-button-response","180","644021","0.0-180.0","664","10","","","","","","","","","","","","","","confidence","","","1","18","","","","","","","","","","11"
"","","","","","","","","","","","html-keyboard-response","181","645024","0.0-181.0","null","null","","","","","","","","","","","","","","feedback","Sat Oct 18 2025 19:44:45 GMT-0400 (Eastern Daylight Time)","27699","1","18","","","","","","","","","",""
"","","","","","","","","","","","preload","182","645024","0.0-182.0","","","","","true","","","","","","","","","","","preload","","","1","19","false","[]","[]","[]","","","","","",""
"","","","","","","","","","","","canvas-keyboard-response","183","645326","0.0-183.0","null","null","","","","","","","","","","","","","","fixation","","","1","19","","","","","","","","","",""
"","","","","","","","","","","","canvas-keyboard-response","184","645628","0.0-184.0","null","null","","","","","","","","","","","","","","stimulus","","","1","19","","","","","","","","","",""
"","","","","","","","","","","","canvas-button-response","185","650121","0.0-185.0","4491","flower","","","","","","","","","","","","","","perceptual","","","1","19","","","","","87","elephant","10","","0",""
"","","","","","","","","","","","canvas-button-response","186","651071","0.0-186.0","949","2","","","","","","","","","","","","","","confidence","","","1","19","","","","","","","","","","11"
"","","","","","","","","","","","html-keyboard-response","187","652074","0.0-187.0","null","null","","","","","","","","","","","","","","feedback","Sat Oct 18 2025 19:44:52 GMT-0400 (Eastern Daylight Time)","27699","1","19","","","","","","","","","",""
"","","","","","","","","","","","html-button-response","188","765903","0.0-188.0","113829","0","","","","","","","","","","","","","","start experiment","Sat Oct 18 2025 19:44:53 GMT-0400 (Eastern Daylight Time)","27699","1","19","","","","","","","","","",""
"","","","","","","","","","","","preload","189","765904","0.0-189.0","","","","","true","","","","","","","","","","","preload","","","2","0","false","[]","[]","[]","","","","","",""
"","","","","","","","","","","","canvas-keyboard-response","190","766207","0.0-190.0","null","null","","","","","","","","","","","","","","fixation","","","2","0","","","","","","","","","",""
"","","","","","","","","","","","canvas-keyboard-response","191","766508","0.0-191.0","null","null","","","","","","","","","","","","","","stimulus","","","2","0","","","","","","","","","",""
"","","","","","","","","","","","canvas-button-response","192","767537","0.0-192.0","1027","flower","","","","","","","","","","","","","","perceptual","","","2","0","","","","","220","flower","10","0","1",""
"","","","","","","","","","","","canvas-button-response","193","768520","0.0-193.0","982","10","","","","","","","","","","","","","","confidence","","","2","0","","","","","","","","","","1"
"","","","","","","","","","","","preload","194","768521","0.0-194.0","","","","","true","","","","","","","","","","","preload","","","2","1","false","[]","[]","[]","","","","","",""
"","","","","","","","","","","","canvas-keyboard-response","195","768823","0.0-195.0","null","null","","","","","","","","","","","","","","fixation","","","2","1","","","","","","","","","",""
"","","","","","","","","","","","canvas-keyboard-response","196","769127","0.0-196.0","null","null","","","","","","","","","","","","","","stimulus","","","2","1","","","","","","","","","",""
"","","","","","","","","","","","canvas-button-response","197","770303","0.0-197.0","1175","knife","","","","","","","","","","","","","","perceptual","","","2","1","","","","","367","knife","6","0","1",""
"","","","","","","","","","","","canvas-button-response","198","771086","0.0-198.0","782","10","","","","","","","","","","","","","","confidence","","","2","1","","","","","","","","","","2"
"","","","","","","","","","","","preload","199","771087","0.0-199.0","","","","","true","","","","","","","","","","","preload","","","2","2","false","[]","[]","[]","","","","","",""
"","","","","","","","","","","","canvas-keyboard-response","200","771389","0.0-200.0","null","null","","","","","","","","","","","","","","fixation","","","2","2","","","","","","","","","",""
"","","","","","","","","","","","canvas-keyboard-response","201","771692","0.0-201.0","null","null","","","","","","","","","","","","","","stimulus","","","2","2","","","","","","","","","",""
"","","","","","","","","","","","canvas-button-response","202","775503","0.0-202.0","3810","house","","","","","","","","","","","","","","perceptual","","","2","2","","","","","342","elephant","10","0","0",""
"","","","","","","","","","","","canvas-button-response","203","776386","0.0-203.0","881","2","","","","","","","","","","","","","","confidence","","","2","2","","","","","","","","","","2"
"","","","","","","","","","","","preload","204","776387","0.0-204.0","","","","","true","","","","","","","","","","","preload","","","2","3","false","[]","[]","[]","","","","","",""
"","","","","","","","","","","","canvas-keyboard-response","205","776689","0.0-205.0","null","null","","","","","","","","","","","","","","fixation","","","2","3","","","","","","","","","",""
"","","","","","","","","","","","canvas-keyboard-response","206","776991","0.0-206.0","null","null","","","","","","","","","","","","","","stimulus","","","2","3","","","","","","","","","",""
"","","","","","","","","","","","canvas-button-response","207","777653","0.0-207.0","659","knife","","","","","","","","","","","","","","perceptual","","","2","3","","","","","393","knife","10","0","1",""
"","","","","","","","","","","","canvas-button-response","208","779403","0.0-208.0","1749","10","","","","","","","","","","","","","","confidence","","","2","3","","","","","","","","","","3"
"","","","","","","","","","","","preload","209","779404","0.0-209.0","","","","","true","","","","","","","","","","","preload","","","2","4","false","[]","[]","[]","","","","","",""
"","","","","","","","","","","","canvas-keyboard-response","210","779707","0.0-210.0","null","null","","","","","","","","","","","","","","fixation","","","2","4","","","","","","","","","",""
"","","","","","","","","","","","canvas-keyboard-response","211","780009","0.0-211.0","null","null","","","","","","","","","","","","","","stimulus","","","2","4","","","","","","","","","",""
"","","","","","","","","","","","canvas-button-response","212","780920","0.0-212.0","909","cat","","","","","","","","","","","","","","perceptual","","","2","4","","","","","286","cat","6","0","1",""
"","","","","","","","","","","","canvas-button-response","213","782020","0.0-213.0","1098","10","","","","","","","","","","","","","","confidence","","","2","4","","","","","","","","","","4"
"","","","","","","","","","","","preload","214","782020","0.0-214.0","","","","","true","","","","","","","","","","","preload","","","2","5","false","[]","[]","[]","","","","","",""
"","","","","","","","","","","","canvas-keyboard-response","215","782323","0.0-215.0","null","null","","","","","","","","","","","","","","fixation","","","2","5","","","","","","","","","",""
"","","","","","","","","","","","canvas-keyboard-response","216","782625","0.0-216.0","null","null","","","","","","","","","","","","","","stimulus","","","2","5","","","","","","","","","",""
"","","","","","","","","","","","canvas-button-response","217","783669","0.0-217.0","1042","bed","","","","","","","","","","","","","","perceptual","","","2","5","","","","","147","bed","10","0","1",""
"","","","","","","","","","","","canvas-button-response","218","785286","0.0-218.0","1615","7","","","","","","","","","","","","","","confidence","","","2","5","","","","","","","","","","5"
"","","","","","","","","","","","preload","219","785287","0.0-219.0","","","","","true","","","","","","","","","","","preload","","","2","6","false","[]","[]","[]","","","","","",""
"","","","","","","","","","","","canvas-keyboard-response","220","785589","0.0-220.0","null","null","","","","","","","","","","","","","","fixation","","","2","6","","","","","","","","","",""
"","","","","","","","","","","","canvas-keyboard-response","221","785892","0.0-221.0","null","null","","","","","","","","","","","","","","stimulus","","","2","6","","","","","","","","","",""
"","","","","","","","","","","","canvas-button-response","222","848552","0.0-222.0","62659","bridge","","","","","","","","","","","","","","perceptual","","","2","6","","","","","76","car","10","0","0",""
"","","","","","","","","","","","canvas-button-response","223","849702","0.0-223.0","1149","1","","","","","","","","","","","","","","confidence","","","2","6","","","","","","","","","","5"
"","","","","","","","","","","","preload","224","849703","0.0-224.0","","","","","true","","","","","","","","","","","preload","","","2","7","false","[]","[]","[]","","","","","",""
"","","","","","","","","","","","canvas-keyboard-response","225","850005","0.0-225.0","null","null","","","","","","","","","","","","","","fixation","","","2","7","","","","","","","","","",""
"","","","","","","","","","","","canvas-keyboard-response","226","850308","0.0-226.0","null","null","","","","","","","","","","","","","","stimulus","","","2","7","","","","","","","","","",""
"","","","","","","","","","","","canvas-button-response","227","851185","0.0-227.0","875","bridge","","","","","","","","","","","","","","perceptual","","","2","7","","","","","167","bridge","6","0","1",""
"","","","","","","","","","","","canvas-button-response","228","852619","0.0-228.0","1432","6","","","","","","","","","","","","","","confidence","","","2","7","","","","","","","","","","6"
"","","","","","","","","","","","preload","229","852620","0.0-229.0","","","","","true","","","","","","","","","","","preload","","","2","8","false","[]","[]","[]","","","","","",""
"","","","","","","","","","","","canvas-keyboard-response","230","852922","0.0-230.0","null","null","","","","","","","","","","","","","","fixation","","","2","8","","","","","","","","","",""
"","","","","","","","","","","","canvas-keyboard-response","231","853224","0.0-231.0","null","null","","","","","","","","","","","","","","stimulus","","","2","8","","","","","","","","","",""
"","","","","","","","","","","","canvas-button-response","232","855919","0.0-232.0","2693","bed","","","","","","","","","","","","","","perceptual","","","2","8","","","","","100","phone","10","0","0",""
"","","","","","","","","","","","canvas-button-response","233","856636","0.0-233.0","715","1","","","","","","","","","","","","","","confidence","","","2","8","","","","","","","","","","6"
"","","","","","","","","","","","preload","234","856637","0.0-234.0","","","","","true","","","","","","","","","","","preload","","","2","9","false","[]","[]","[]","","","","","",""
"","","","","","","","","","","","canvas-keyboard-response","235","856940","0.0-235.0","null","null","","","","","","","","","","","","","","fixation","","","2","9","","","","","","","","","",""
"","","","","","","","","","","","canvas-keyboard-response","236","857243","0.0-236.0","null","null","","","","","","","","","","","","","","stimulus","","","2","9","","","","","","","","","",""
"","","","","","","","","","","","canvas-button-response","237","857819","0.0-237.0","574","flower","","","","","","","","","","","","","","perceptual","","","2","9","","","","","226","flower","10","0","1",""
"","","","","","","","","","","","canvas-button-response","238","858719","0.0-238.0","898","10","","","","","","","","","","","","","","confidence","","","2","9","","","","","","","","","","7"
"","","","","","","","","","","","preload","239","858719","0.0-239.0","","","","","true","","","","","","","","","","","preload","","","2","10","false","[]","[]","[]","","","","","",""
"","","","","","","","","","","","canvas-keyboard-response","240","859022","0.0-240.0","null","null","","","","","","","","","","","","","","fixation","","","2","10","","","","","","","","","",""
"","","","","","","","","","","","canvas-keyboard-response","241","859324","0.0-241.0","null","null","","","","","","","","","","","","","","stimulus","","","2","10","","","","","","","","","",""
"","","","","","","","","","","","canvas-button-response","242","907718","0.0-242.0","48392","bridge","","","","","","","","","","","","","","perceptual","","","2","10","","","","","127","bed","6","0","0",""
"","","","","","","","","","","","canvas-button-response","243","908901","0.0-243.0","1182","1","","","","","","","","","","","","","","confidence","","","2","10","","","","","","","","","","7"
"","","","","","","","","","","","preload","244","908902","0.0-244.0","","","","","true","","","","","","","","","","","preload","","","2","11","false","[]","[]","[]","","","","","",""
"","","","","","","","","","","","canvas-keyboard-response","245","909204","0.0-245.0","null","null","","","","","","","","","","","","","","fixation","","","2","11","","","","","","","","","",""
"","","","","","","","","","","","canvas-keyboard-response","246","909507","0.0-246.0","null","null","","","","","","","","","","","","","","stimulus","","","2","11","","","","","","","","","",""
"","","","","","","","","","","","canvas-button-response","247","910335","0.0-247.0","826","cat","","","","","","","","","","","","","","perceptual","","","2","11","","","","","399","knife","10","0","0",""
"","","","","","","","","","","","canvas-button-response","248","911768","0.0-248.0","1431","8","","","","","","","","","","","","","","confidence","","","2","11","","","","","","","","","","7"
"","","","","","","","","","","","preload","249","911769","0.0-249.0","","","","","true","","","","","","","","","","","preload","","","2","12","false","[]","[]","[]","","","","","",""
"","","","","","","","","","","","canvas-keyboard-response","250","912071","0.0-250.0","null","null","","","","","","","","","","","","","","fixation","","","2","12","","","","","","","","","",""
"","","","","","","","","","","","canvas-keyboard-response","251","912373","0.0-251.0","null","null","","","","","","","","","","","","","","stimulus","","","2","12","","","","","","","","","",""
"","","","","","","","","","","","canvas-button-response","252","913268","0.0-252.0","893","cat","","","","","","","","","","","","","","perceptual","","","2","12","","","","","298","cat","6","0","1",""
"","","","","","","","","","","","canvas-button-response","253","914019","0.0-253.0","748","9","","","","","","","","","","","","","","confidence","","","2","12","","","","","","","","","","8"
"","","","","","","","","","","","preload","254","914019","0.0-254.0","","","","","true","","","","","","","","","","","preload","","","2","13","false","[]","[]","[]","","","","","",""
"","","","","","","","","","","","canvas-keyboard-response","255","914321","0.0-255.0","null","null","","","","","","","","","","","","","","fixation","","","2","13","","","","","","","","","",""
"","","","","","","","","","","","canvas-keyboard-response","256","914624","0.0-256.0","null","null","","","","","","","","","","","","","","stimulus","","","2","13","","","","","","","","","",""
"","","","","","","","","","","","canvas-button-response","257","916652","0.0-257.0","2026","car","","","","","","","","","","","","","","perceptual","","","2","13","","","","","150","bed","10","0","0",""
"","","","","","","","","","","","canvas-button-response","258","917335","0.0-258.0","681","1","","","","","","","","","","","","","","confidence","","","2","13","","","","","","","","","","8"
"","","","","","","","","","","","preload","259","917336","0.0-259.0","","","","","true","","","","","","","","","","","preload","","","2","14","false","[]","[]","[]","","","","","",""
"","","","","","","","","","","","canvas-keyboard-response","260","917638","0.0-260.0","null","null","","","","","","","","","","","","","","fixation","","","2","14","","","","","","","","","",""
"","","","","","","","","","","","canvas-keyboard-response","261","917941","0.0-261.0","null","null","","","","","","","","","","","","","","stimulus","","","2","14","","","","","","","","","",""
"","","","","","","","","","","","canvas-button-response","262","918935","0.0-262.0","992","flower","","","","","","","","","","","","","","perceptual","","","2","14","","","","","309","cat","10","0","0",""
"","","","","","","","","","","","canvas-button-response","263","920118","0.0-263.0","1182","8","","","","","","","","","","","","","","confidence","","","2","14","","","","","","","","","","8"
"","","","","","","","","","","","preload","264","920119","0.0-264.0","","","","","true","","","","","","","","","","","preload","","","2","15","false","[]","[]","[]","","","","","",""
"","","","","","","","","","","","canvas-keyboard-response","265","920421","0.0-265.0","null","null","","","","","","","","","","","","","","fixation","","","2","15","","","","","","","","","",""
"","","","","","","","","","","","canvas-keyboard-response","266","920724","0.0-266.0","null","null","","","","","","","","","","","","","","stimulus","","","2","15","","","","","","","","","",""
"","","","","","","","","","","","canvas-button-response","267","928234","0.0-267.0","7508","bed","","","","","","","","","","","","","","perceptual","","","2","15","","","","","194","bridge","10","0","0",""
"","","","","","","","","","","","canvas-button-response","268","930084","0.0-268.0","1848","1","","","","","","","","","","","","","","confidence","","","2","15","","","","","","","","","","8"
"","","","","","","","","","","","preload","269","930085","0.0-269.0","","","","","true","","","","","","","","","","","preload","","","2","16","false","[]","[]","[]","","","","","",""
"","","","","","","","","","","","canvas-keyboard-response","270","930388","0.0-270.0","null","null","","","","","","","","","","","","","","fixation","","","2","16","","","","","","","","","",""
"","","","","","","","","","","","canvas-keyboard-response","271","930691","0.0-271.0","null","null","","","","","","","","","","","","","","stimulus","","","2","16","","","","","","","","","",""
"","","","","","","","","","","","canvas-button-response","272","944318","0.0-272.0","13625","bridge","","","","","","","","","","","","","","perceptual","","","2","16","","","","","290","cat","6","0","0",""
"","","","","","","","","","","","canvas-button-response","273","945868","0.0-273.0","1549","1","","","","","","","","","","","","","","confidence","","","2","16","","","","","","","","","","8"
"","","","","","","","","","","","preload","274","945869","0.0-274.0","","","","","true","","","","","","","","","","","preload","","","2","17","false","[]","[]","[]","","","","","",""
"","","","","","","","","","","","canvas-keyboard-response","275","946172","0.0-275.0","null","null","","","","","","","","","","","","","","fixation","","","2","17","","","","","","","","","",""
"","","","","","","","","","","","canvas-keyboard-response","276","946475","0.0-276.0","null","null","","","","","","","","","","","","","","stimulus","","","2","17","","","","","","","","","",""
"","","","","","","","","","","","canvas-button-response","277","948301","0.0-277.0","1825","car","","","","","","","","","","","","","","perceptual","","","2","17","","","","","383","knife","10","0","0",""
"","","","","","","","","","","","canvas-button-response","278","949984","0.0-278.0","1681","5","","","","","","","","","","","","","","confidence","","","2","17","","","","","","","","","","8"
"","","","","","","","","","","","preload","279","949985","0.0-279.0","","","","","true","","","","","","","","","","","preload","","","2","18","false","[]","[]","[]","","","","","",""
"","","","","","","","","","","","canvas-keyboard-response","280","950287","0.0-280.0","null","null","","","","","","","","","","","","","","fixation","","","2","18","","","","","","","","","",""
"","","","","","","","","","","","canvas-keyboard-response","281","950590","0.0-281.0","null","null","","","","","","","","","","","","","","stimulus","","","2","18","","","","","","","","","",""
"","","","","","","","","","","","canvas-button-response","282","951284","0.0-282.0","692","car","","","","","","","","","","","","","","perceptual","","","2","18","","","","","59","car","6","0","1",""
"","","","","","","","","","","","canvas-button-response","283","951968","0.0-283.0","682","5","","","","","","","","","","","","","","confidence","","","2","18","","","","","","","","","","9"
"","","","","","","","","","","","preload","284","951969","0.0-284.0","","","","","true","","","","","","","","","","","preload","","","2","19","false","[]","[]","[]","","","","","",""
"","","","","","","","","","","","canvas-keyboard-response","285","952272","0.0-285.0","null","null","","","","","","","","","","","","","","fixation","","","2","19","","","","","","","","","",""
"","","","","","","","","","","","canvas-keyboard-response","286","952574","0.0-286.0","null","null","","","","","","","","","","","","","","stimulus","","","2","19","","","","","","","","","",""
"","","","","","","","","","","","canvas-button-response","287","953951","0.0-287.0","1375","knife","","","","","","","","","","","","","","perceptual","","","2","19","","","","","360","knife","6","0","1",""
"","","","","","","","","","","","canvas-button-response","288","954868","0.0-288.0","915","9","","","","","","","","","","","","","","confidence","","","2","19","","","","","","","","","","10"
"","","","","","","","","","","","preload","289","954868","0.0-289.0","","","","","true","","","","","","","","","","","preload","","","2","20","false","[]","[]","[]","","","","","",""
"","","","","","","","","","","","canvas-keyboard-response","290","955170","0.0-290.0","null","null","","","","","","","","","","","","","","fixation","","","2","20","","","","","","","","","",""
"","","","","","","","","","","","canvas-keyboard-response","291","955473","0.0-291.0","null","null","","","","","","","","","","","","","","stimulus","","","2","20","","","","","","","","","",""
"","","","","","","","","","","","canvas-button-response","292","964284","0.0-292.0","8810","bed","","","","","","","","","","","","","","perceptual","","","2","20","","","","","312","cat","10","0","0",""
"","","","","","","","","","","","canvas-button-response","293","965101","0.0-293.0","815","1","","","","","","","","","","","","","","confidence","","","2","20","","","","","","","","","","10"
"","","","","","","","","","","","preload","294","965101","0.0-294.0","","","","","true","","","","","","","","","","","preload","","","2","21","false","[]","[]","[]","","","","","",""
"","","","","","","","","","","","canvas-keyboard-response","295","965404","0.0-295.0","null","null","","","","","","","","","","","","","","fixation","","","2","21","","","","","","","","","",""
"","","","","","","","","","","","canvas-keyboard-response","296","965706","0.0-296.0","null","null","","","","","","","","","","","","","","stimulus","","","2","21","","","","","","","","","",""
"","","","","","","","","","","","canvas-button-response","297","968867","0.0-297.0","3160","train","","","","","","","","","","","","","","perceptual","","","2","21","","","","","259","train","6","0","1",""
"","","","","","","","","","","","canvas-button-response","298","971851","0.0-298.0","2982","10","","","","","","","","","","","","","","confidence","","","2","21","","","","","","","","","","11"
"","","","","","","","","","","","preload","299","971852","0.0-299.0","","","","","true","","","","","","","","","","","preload","","","2","22","false","[]","[]","[]","","","","","",""
"","","","","","","","","","","","canvas-keyboard-response","300","972155","0.0-300.0","null","null","","","","","","","","","","","","","","fixation","","","2","22","","","","","","","","","",""
"","","","","","","","","","","","canvas-keyboard-response","301","972458","0.0-301.0","null","null","","","","","","","","","","","","","","stimulus","","","2","22","","","","","","","","","",""
"","","","","","","","","","","","canvas-button-response","302","980200","0.0-302.0","7741","bed","","","","","","","","","","","","","","perceptual","","","2","22","","","","","157","bed","10","0","1",""
"","","","","","","","","","","","canvas-button-response","303","981100","0.0-303.0","899","1","","","","","","","","","","","","","","confidence","","","2","22","","","","","","","","","","12"
"","","","","","","","","","","","preload","304","981101","0.0-304.0","","","","","true","","","","","","","","","","","preload","","","2","23","false","[]","[]","[]","","","","","",""
"","","","","","","","","","","","canvas-keyboard-response","305","981403","0.0-305.0","null","null","","","","","","","","","","","","","","fixation","","","2","23","","","","","","","","","",""
"","","","","","","","","","","","canvas-keyboard-response","306","981706","0.0-306.0","null","null","","","","","","","","","","","","","","stimulus","","","2","23","","","","","","","","","",""
"","","","","","","","","","","","canvas-button-response","307","986867","0.0-307.0","5159","house","","","","","","","","","","","","","","perceptual","","","2","23","","","","","12","house","6","0","1",""
"","","","","","","","","","","","canvas-button-response","308","989384","0.0-308.0","2515","5","","","","","","","","","","","","","","confidence","","","2","23","","","","","","","","","","13"
"","","","","","","","","","","","preload","309","989385","0.0-309.0","","","","","true","","","","","","","","","","","preload","","","2","24","false","[]","[]","[]","","","","","",""
"","","","","","","","","","","","canvas-keyboard-response","310","989688","0.0-310.0","null","null","","","","","","","","","","","","","","fixation","","","2","24","","","","","","","","","",""
"","","","","","","","","","","","canvas-keyboard-response","311","989991","0.0-311.0","null","null","","","","","","","","","","","","","","stimulus","","","2","24","","","","","","","","","",""
"","","","","","","","","","","","canvas-button-response","312","995834","0.0-312.0","5841","bridge","","","","","","","","","","","","","","perceptual","","","2","24","","","","","279","train","10","0","0",""
"","","","","","","","","","","","canvas-button-response","313","1000634","0.0-313.0","4799","8","","","","","","","","","","","","","","confidence","","","2","24","","","","","","","","","","13"
"","","","","","","","","","","","preload","314","1000635","0.0-314.0","","","","","true","","","","","","","","","","","preload","","","2","25","false","[]","[]","[]","","","","","",""
"","","","","","","","","","","","canvas-keyboard-response","315","1000937","0.0-315.0","null","null","","","","","","","","","","","","","","fixation","","","2","25","","","","","","","","","",""
"","","","","","","","","","","","canvas-keyboard-response","316","1001240","0.0-316.0","null","null","","","","","","","","","","","","","","stimulus","","","2","25","","","","","","","","","",""
"","","","","","","","","","","","canvas-button-response","317","1003717","0.0-317.0","2475","phone","","","","","","","","","","","","","","perceptual","","","2","25","","","","","80","phone","6","0","1",""
"","","","","","","","","","","","canvas-button-response","318","1006918","0.0-318.0","3198","9","","","","","","","","","","","","","","confidence","","","2","25","","","","","","","","","","14"
"","","","","","","","","","","","preload","319","1006919","0.0-319.0","","","","","true","","","","","","","","","","","preload","","","2","26","false","[]","[]","[]","","","","","",""
"","","","","","","","","","","","canvas-keyboard-response","320","1007221","0.0-320.0","null","null","","","","","","","","","","","","","","fixation","","","2","26","","","","","","","","","",""
"","","","","","","","","","","","canvas-keyboard-response","321","1007523","0.0-321.0","null","null","","","","","","","","","","","","","","stimulus","","","2","26","","","","","","","","","",""
"","","","","","","","","","","","canvas-button-response","322","1017133","0.0-322.0","9608","car","","","","","","","","","","","","","","perceptual","","","2","26","","","","","176","bridge","6","0","0",""
"","","","","","","","","","","","canvas-button-response","323","1018317","0.0-323.0","1182","1","","","","","","","","","","","","","","confidence","","","2","26","","","","","","","","","","14"
"","","","","","","","","","","","preload","324","1018318","0.0-324.0","","","","","true","","","","","","","","","","","preload","","","2","27","false","[]","[]","[]","","","","","",""
"","","","","","","","","","","","canvas-keyboard-response","325","1018620","0.0-325.0","null","null","","","","","","","","","","","","","","fixation","","","2","27","","","","","","","","","",""
"","","","","","","","","","","","canvas-keyboard-response","326","1018922","0.0-326.0","null","null","","","","","","","","","","","","","","stimulus","","","2","27","","","","","","","","","",""
"","","","","","","","","","","","canvas-button-response","327","1027850","0.0-327.0","8926","phone","","","","","","","","","","","","","","perceptual","","","2","27","","","","","116","phone","10","0","1",""
"","","","","","","","","","","","canvas-button-response","328","1031650","0.0-328.0","3798","7","","","","","","","","","","","","","","confidence","","","2","27","","","","","","","","","","15"
"","","","","","","","","","","","preload","329","1031651","0.0-329.0","","","","","true","","","","","","","","","","","preload","","","2","28","false","[]","[]","[]","","","","","",""
"","","","","","","","","","","","canvas-keyboard-response","330","1031953","0.0-330.0","null","null","","","","","","","","","","","","","","fixation","","","2","28","","","","","","","","","",""
"","","","","","","","","","","","canvas-keyboard-response","331","1032255","0.0-331.0","null","null","","","","","","","","","","","","","","stimulus","","","2","28","","","","","","","","","",""
"","","","","","","","","","","","canvas-button-response","332","1034033","0.0-332.0","1776","cat","","","","","","","","","","","","","","perceptual","","","2","28","","","","","314","cat","10","0","1",""
"","","","","","","","","","","","canvas-button-response","333","1036567","0.0-333.0","2531","4","","","","","","","","","","","","","","confidence","","","2","28","","","","","","","","","","16"
"","","","","","","","","","","","preload","334","1036568","0.0-334.0","","","","","true","","","","","","","","","","","preload","","","2","29","false","[]","[]","[]","","","","","",""
"","","","","","","","","","","","canvas-keyboard-response","335","1036870","0.0-335.0","null","null","","","","","","","","","","","","","","fixation","","","2","29","","","","","","","","","",""
"","","","","","","","","","","","canvas-keyboard-response","336","1037173","0.0-336.0","null","null","","","","","","","","","","","","","","stimulus","","","2","29","","","","","","","","","",""
"","","","","","","","","","","","canvas-button-response","337","1038284","0.0-337.0","1109","bed","","","","","","","","","","","","","","perceptual","","","2","29","","","","","158","bed","10","0","1",""
"","","","","","","","","","","","canvas-button-response","338","1041017","0.0-338.0","2731","7","","","","","","","","","","","","","","confidence","","","2","29","","","","","","","","","","17"
"","","","","","","","","","","","preload","339","1041017","0.0-339.0","","","","","true","","","","","","","","","","","preload","","","2","30","false","[]","[]","[]","","","","","",""
"","","","","","","","","","","","canvas-keyboard-response","340","1041320","0.0-340.0","null","null","","","","","","","","","","","","","","fixation","","","2","30","","","","","","","","","",""
"","","","","","","","","","","","canvas-keyboard-response","341","1041622","0.0-341.0","null","null","","","","","","","","","","","","","","stimulus","","","2","30","","","","","","","","","",""
"","","","","","","","","","","","canvas-button-response","342","1042900","0.0-342.0","1276","cat","","","","","","","","","","","","","","perceptual","","","2","30","","","","","192","bridge","10","0","0",""
"","","","","","","","","","","","canvas-button-response","343","1044100","0.0-343.0","1198","8","","","","","","","","","","","","","","confidence","","","2","30","","","","","","","","","","17"
"","","","","","","","","","","","preload","344","1044101","0.0-344.0","","","","","true","","","","","","","","","","","preload","","","2","31","false","[]","[]","[]","","","","","",""
"","","","","","","","","","","","canvas-keyboard-response","345","1044403","0.0-345.0","null","null","","","","","","","","","","","","","","fixation","","","2","31","","","","","","","","","",""
"","","","","","","","","","","","canvas-keyboard-response","346","1044706","0.0-346.0","null","null","","","","","","","","","","","","","","stimulus","","","2","31","","","","","","","","","",""
"","","","","","","","","","","","canvas-button-response","347","1054666","0.0-347.0","9959","knife","","","","","","","","","","","","","","perceptual","","","2","31","","","","","369","knife","6","0","1",""
"","","","","","","","","","","","canvas-button-response","348","1057450","0.0-348.0","2782","4","","","","","","","","","","","","","","confidence","","","2","31","","","","","","","","","","18"
"","","","","","","","","","","","preload","349","1057450","0.0-349.0","","","","","true","","","","","","","","","","","preload","","","2","32","false","[]","[]","[]","","","","","",""
"","","","","","","","","","","","canvas-keyboard-response","350","1057752","0.0-350.0","null","null","","","","","","","","","","","","","","fixation","","","2","32","","","","","","","","","",""
"","","","","","","","","","","","canvas-keyboard-response","351","1058055","0.0-351.0","null","null","","","","","","","","","","","","","","stimulus","","","2","32","","","","","","","","","",""
"","","","","","","","","","","","canvas-button-response","352","1061533","0.0-352.0","3476","train","","","","","","","","","","","","","","perceptual","","","2","32","","","","","266","train","10","0","1",""
"","","","","","","","","","","","canvas-button-response","353","1063600","0.0-353.0","2065","2","","","","","","","","","","","","","","confidence","","","2","32","","","","","","","","","","19"
"","","","","","","","","","","","preload","354","1063601","0.0-354.0","","","","","true","","","","","","","","","","","preload","","","2","33","false","[]","[]","[]","","","","","",""
"","","","","","","","","","","","canvas-keyboard-response","355","1063902","0.0-355.0","null","null","","","","","","","","","","","","","","fixation","","","2","33","","","","","","","","","",""
"","","","","","","","","","","","canvas-keyboard-response","356","1064205","0.0-356.0","null","null","","","","","","","","","","","","","","stimulus","","","2","33","","","","","","","","","",""
"","","","","","","","","","","","canvas-button-response","357","1065233","0.0-357.0","1026","car","","","","","","","","","","","","","","perceptual","","","2","33","","","","","60","car","10","0","1",""
"","","","","","","","","","","","canvas-button-response","358","1067983","0.0-358.0","2748","10","","","","","","","","","","","","","","confidence","","","2","33","","","","","","","","","","20"
"","","","","","","","","","","","preload","359","1067984","0.0-359.0","","","","","true","","","","","","","","","","","preload","","","2","34","false","[]","[]","[]","","","","","",""
"","","","","","","","","","","","canvas-keyboard-response","360","1068286","0.0-360.0","null","null","","","","","","","","","","","","","","fixation","","","2","34","","","","","","","","","",""
"","","","","","","","","","","","canvas-keyboard-response","361","1068589","0.0-361.0","null","null","","","","","","","","","","","","","","stimulus","","","2","34","","","","","","","","","",""
"","","","","","","","","","","","canvas-button-response","362","1131048","0.0-362.0","62458","house","","","","","","","","","","","","","","perceptual","","","2","34","","","","","26","house","10","0","1",""
"","","","","","","","","","","","canvas-button-response","363","1132249","0.0-363.0","1199","1","","","","","","","","","","","","","","confidence","","","2","34","","","","","","","","","","21"
"","","","","","","","","","","","preload","364","1132250","0.0-364.0","","","","","true","","","","","","","","","","","preload","","","2","35","false","[]","[]","[]","","","","","",""
"","","","","","","","","","","","canvas-keyboard-response","365","1132552","0.0-365.0","null","null","","","","","","","","","","","","","","fixation","","","2","35","","","","","","","","","",""
"","","","","","","","","","","","canvas-keyboard-response","366","1132855","0.0-366.0","null","null","","","","","","","","","","","","","","stimulus","","","2","35","","","","","","","","","",""
"","","","","","","","","","","","canvas-button-response","367","1134099","0.0-367.0","1242","bridge","","","","","","","","","","","","","","perceptual","","","2","35","","","","","160","bridge","6","0","1",""
"","","","","","","","","","","","canvas-button-response","368","1141232","0.0-368.0","7131","8","","","","","","","","","","","","","","confidence","","","2","35","","","","","","","","","","22"
"","","","","","","","","","","","preload","369","1141233","0.0-369.0","","","","","true","","","","","","","","","","","preload","","","2","36","false","[]","[]","[]","","","","","",""
"","","","","","","","","","","","canvas-keyboard-response","370","1141535","0.0-370.0","null","null","","","","","","","","","","","","","","fixation","","","2","36","","","","","","","","","",""
"","","","","","","","","","","","canvas-keyboard-response","371","1141838","0.0-371.0","null","null","","","","","","","","","","","","","","stimulus","","","2","36","","","","","","","","","",""
"","","","","","","","","","","","canvas-button-response","372","1142832","0.0-372.0","992","flower","","","","","","","","","","","","","","perceptual","","","2","36","","","","","237","flower","10","0","1",""
"","","","","","","","","","","","canvas-button-response","373","1143549","0.0-373.0","715","10","","","","","","","","","","","","","","confidence","","","2","36","","","","","","","","","","23"
"","","","","","","","","","","","preload","374","1143549","0.0-374.0","","","","","true","","","","","","","","","","","preload","","","2","37","false","[]","[]","[]","","","","","",""
"","","","","","","","","","","","canvas-keyboard-response","375","1143852","0.0-375.0","null","null","","","","","","","","","","","","","","fixation","","","2","37","","","","","","","","","",""
"","","","","","","","","","","","canvas-keyboard-response","376","1144154","0.0-376.0","null","null","","","","","","","","","","","","","","stimulus","","","2","37","","","","","","","","","",""
"","","","","","","","","","","","canvas-button-response","377","1145048","0.0-377.0","892","cat","","","","","","","","","","","","","","perceptual","","","2","37","","","","","299","cat","6","0","1",""
"","","","","","","","","","","","canvas-button-response","378","1145865","0.0-378.0","814","10","","","","","","","","","","","","","","confidence","","","2","37","","","","","","","","","","24"
"","","","","","","","","","","","preload","379","1145865","0.0-379.0","","","","","true","","","","","","","","","","","preload","","","2","38","false","[]","[]","[]","","","","","",""
"","","","","","","","","","","","canvas-keyboard-response","380","1146167","0.0-380.0","null","null","","","","","","","","","","","","","","fixation","","","2","38","","","","","","","","","",""
"","","","","","","","","","","","canvas-keyboard-response","381","1146470","0.0-381.0","null","null","","","","","","","","","","","","","","stimulus","","","2","38","","","","","","","","","",""
"","","","","","","","","","","","canvas-button-response","382","1176498","0.0-382.0","30027","bridge","","","","","","","","","","","","","","perceptual","","","2","38","","","","","56","car","6","0","0",""
"","","","","","","","","","","","canvas-button-response","383","1182865","0.0-383.0","6365","1","","","","","","","","","","","","","","confidence","","","2","38","","","","","","","","","","24"
"","","","","","","","","","","","preload","384","1182866","0.0-384.0","","","","","true","","","","","","","","","","","preload","","","2","39","false","[]","[]","[]","","","","","",""
"","","","","","","","","","","","canvas-keyboard-response","385","1183168","0.0-385.0","null","null","","","","","","","","","","","","","","fixation","","","2","39","","","","","","","","","",""
"","","","","","","","","","","","canvas-keyboard-response","386","1183471","0.0-386.0","null","null","","","","","","","","","","","","","","stimulus","","","2","39","","","","","","","","","",""
"","","","","","","","","","","","canvas-button-response","387","1184331","0.0-387.0","859","knife","","","","","","","","","","","","","","perceptual","","","2","39","","","","","379","knife","6","0","1",""
"","","","","","","","","","","","canvas-button-response","388","1185448","0.0-388.0","1115","10","","","","","","","","","","","","","","confidence","","","2","39","","","","","","","","","","25"
"","","","","","","","","","","","preload","389","1185449","0.0-389.0","","","","","true","","","","","","","","","","","preload","","","2","40","false","[]","[]","[]","","","","","",""
"","","","","","","","","","","","canvas-keyboard-response","390","1185751","0.0-390.0","null","null","","","","","","","","","","","","","","fixation","","","2","40","","","","","","","","","",""
"","","","","","","","","","","","canvas-keyboard-response","391","1186053","0.0-391.0","null","null","","","","","","","","","","","","","","stimulus","","","2","40","","","","","","","","","",""
"","","","","","","","","","","","canvas-button-response","392","1188065","0.0-392.0","2010","flower","","","","","","","","","","","","","","perceptual","","","2","40","","","","","370","knife","6","0","0",""
"","","","","","","","","","","","canvas-button-response","393","1192614","0.0-393.0","4548","0","","","","","","","","","","","","","","confidence","","","2","40","","","","","","","","","","25"
"","","","","","","","","","","","preload","394","1192615","0.0-394.0","","","","","true","","","","","","","","","","","preload","","","2","41","false","[]","[]","[]","","","","","",""
"","","","","","","","","","","","canvas-keyboard-response","395","1192918","0.0-395.0","null","null","","","","","","","","","","","","","","fixation","","","2","41","","","","","","","","","",""
"","","","","","","","","","","","canvas-keyboard-response","396","1193221","0.0-396.0","null","null","","","","","","","","","","","","","","stimulus","","","2","41","","","","","","","","","",""
"","","","","","","","","","","","canvas-button-response","397","1194031","0.0-397.0","809","cat","","","","","","","","","","","","","","perceptual","","","2","41","","","","","297","cat","6","0","1",""
"","","","","","","","","","","","canvas-button-response","398","1195232","0.0-398.0","1198","10","","","","","","","","","","","","","","confidence","","","2","41","","","","","","","","","","26"
"","","","","","","","","","","","preload","399","1195232","0.0-399.0","","","","","true","","","","","","","","","","","preload","","","2","42","false","[]","[]","[]","","","","","",""
"","","","","","","","","","","","canvas-keyboard-response","400","1195535","0.0-400.0","null","null","","","","","","","","","","","","","","fixation","","","2","42","","","","","","","","","",""
"","","","","","","","","","","","canvas-keyboard-response","401","1195838","0.0-401.0","null","null","","","","","","","","","","","","","","stimulus","","","2","42","","","","","","","","","",""
"","","","","","","","","","","","canvas-button-response","402","1196731","0.0-402.0","891","cat","","","","","","","","","","","","","","perceptual","","","2","42","","","","","296","cat","6","0","1",""
"","","","","","","","","","","","canvas-button-response","403","1197431","0.0-403.0","698","10","","","","","","","","","","","","","","confidence","","","2","42","","","","","","","","","","27"
"","","","","","","","","","","","preload","404","1197432","0.0-404.0","","","","","true","","","","","","","","","","","preload","","","2","43","false","[]","[]","[]","","","","","",""
"","","","","","","","","","","","canvas-keyboard-response","405","1197734","0.0-405.0","null","null","","","","","","","","","","","","","","fixation","","","2","43","","","","","","","","","",""
"","","","","","","","","","","","canvas-keyboard-response","406","1198036","0.0-406.0","null","null","","","","","","","","","","","","","","stimulus","","","2","43","","","","","","","","","",""
"","","","","","","","","","","","canvas-button-response","407","1199614","0.0-407.0","1576","bed","","","","","","","","","","","","","","perceptual","","","2","43","","","","","139","bed","6","0","1",""
"","","","","","","","","","","","canvas-button-response","408","1201715","0.0-408.0","2098","3","","","","","","","","","","","","","","confidence","","","2","43","","","","","","","","","","28"
"","","","","","","","","","","","preload","409","1201716","0.0-409.0","","","","","true","","","","","","","","","","","preload","","","2","44","false","[]","[]","[]","","","","","",""
"","","","","","","","","","","","canvas-keyboard-response","410","1202018","0.0-410.0","null","null","","","","","","","","","","","","","","fixation","","","2","44","","","","","","","","","",""
"","","","","","","","","","","","canvas-keyboard-response","411","1202321","0.0-411.0","null","null","","","","","","","","","","","","","","stimulus","","","2","44","","","","","","","","","",""
"","","","","","","","","","","","canvas-button-response","412","1221048","0.0-412.0","18725","car","","","","","","","","","","","","","","perceptual","","","2","44","","","","","343","elephant","10","0","0",""
"","","","","","","","","","","","canvas-button-response","413","1222031","0.0-413.0","982","0","","","","","","","","","","","","","","confidence","","","2","44","","","","","","","","","","28"
"","","","","","","","","","","","preload","414","1222032","0.0-414.0","","","","","true","","","","","","","","","","","preload","","","2","45","false","[]","[]","[]","","","","","",""
"","","","","","","","","","","","canvas-keyboard-response","415","1222335","0.0-415.0","null","null","","","","","","","","","","","","","","fixation","","","2","45","","","","","","","","","",""
"","","","","","","","","","","","canvas-keyboard-response","416","1222638","0.0-416.0","null","null","","","","","","","","","","","","","","stimulus","","","2","45","","","","","","","","","",""
"","","","","","","","","","","","canvas-button-response","417","1224631","0.0-417.0","1991","phone","","","","","","","","","","","","","","perceptual","","","2","45","","","","","388","knife","10","0","0",""
"","","","","","","","","","","","canvas-button-response","418","1226097","0.0-418.0","1465","3","","","","","","","","","","","","","","confidence","","","2","45","","","","","","","","","","28"
"","","","","","","","","","","","preload","419","1226098","0.0-419.0","","","","","true","","","","","","","","","","","preload","","","2","46","false","[]","[]","[]","","","","","",""
"","","","","","","","","","","","canvas-keyboard-response","420","1226400","0.0-420.0","null","null","","","","","","","","","","","","","","fixation","","","2","46","","","","","","","","","",""
"","","","","","","","","","","","canvas-keyboard-response","421","1226703","0.0-421.0","null","null","","","","","","","","","","","","","","stimulus","","","2","46","","","","","","","","","",""
"","","","","","","","","","","","canvas-button-response","422","1227497","0.0-422.0","793","car","","","","","","","","","","","","","","perceptual","","","2","46","","","","","54","car","6","0","1",""
"","","","","","","","","","","","canvas-button-response","423","1229097","0.0-423.0","1598","5","","","","","","","","","","","","","","confidence","","","2","46","","","","","","","","","","29"
"","","","","","","","","","","","preload","424","1229098","0.0-424.0","","","","","true","","","","","","","","","","","preload","","","2","47","false","[]","[]","[]","","","","","",""
"","","","","","","","","","","","canvas-keyboard-response","425","1229401","0.0-425.0","null","null","","","","","","","","","","","","","","fixation","","","2","47","","","","","","","","","",""
"","","","","","","","","","","","canvas-keyboard-response","426","1229704","0.0-426.0","null","null","","","","","","","","","","","","","","stimulus","","","2","47","","","","","","","","","",""
"","","","","","","","","","","","canvas-button-response","427","1231197","0.0-427.0","1492","bridge","","","","","","","","","","","","","","perceptual","","","2","47","","","","","268","train","10","0","0",""
"","","","","","","","","","","","canvas-button-response","428","1233131","0.0-428.0","1932","7","","","","","","","","","","","","","","confidence","","","2","47","","","","","","","","","","29"
"","","","","","","","","","","","preload","429","1233131","0.0-429.0","","","","","true","","","","","","","","","","","preload","","","2","48","false","[]","[]","[]","","","","","",""
"","","","","","","","","","","","canvas-keyboard-response","430","1233434","0.0-430.0","null","null","","","","","","","","","","","","","","fixation","","","2","48","","","","","","","","","",""
"","","","","","","","","","","","canvas-keyboard-response","431","1233736","0.0-431.0","null","null","","","","","","","","","","","","","","stimulus","","","2","48","","","","","","","","","",""
"","","","","","","","","","","","canvas-button-response","432","1235898","0.0-432.0","2160","elephant","","","","","","","","","","","","","","perceptual","","","2","48","","","","","287","cat","6","0","0",""
"","","","","","","","","","","","canvas-button-response","433","1237848","0.0-433.0","1948","5","","","","","","","","","","","","","","confidence","","","2","48","","","","","","","","","","29"
"","","","","","","","","","","","preload","434","1237849","0.0-434.0","","","","","true","","","","","","","","","","","preload","","","2","49","false","[]","[]","[]","","","","","",""
"","","","","","","","","","","","canvas-keyboard-response","435","1238152","0.0-435.0","null","null","","","","","","","","","","","","","","fixation","","","2","49","","","","","","","","","",""
"","","","","","","","","","","","canvas-keyboard-response","436","1238454","0.0-436.0","null","null","","","","","","","","","","","","","","stimulus","","","2","49","","","","","","","","","",""
"","","","","","","","","","","","canvas-button-response","437","1239647","0.0-437.0","1191","car","","","","","","","","","","","","","","perceptual","","","2","49","","","","","267","train","10","0","0",""
"","","","","","","","","","","","canvas-button-response","438","1241031","0.0-438.0","1382","4","","","","","","","","","","","","","","confidence","","","2","49","","","","","","","","","","29"
"","","","","","","","","","","","html-button-response","439","1297796","0.0-439.0","56764","0","","","","","","","","","","","","","","<p style=""font-size:20px;color:#000000"">You got 29 out of 50 trials correct in this block.<br><br>You have completed 6% of the experiment.<br><br>Take a short break.<br><br>When you are ready, click Continue to proceed.","","","2","49","","","","","","","","","",""
"","","","","","","","","","","","html-keyboard-response","440","1298799","0.0-440.0","null","null","","","","","","","","","","","","","","<p style=""font-size:32px;color:#000000""><br><br> RUN: &nbsp 1/4 <br><br> BLOCK: 2/4 ","","","2","49","","","","","","","","","",""
"","","","","","","","","","","","preload","441","1298800","0.0-441.0","","","","","true","","","","","","","","","","","preload","","","2","50","false","[]","[]","[]","","","","","",""
"","","","","","","","","","","","canvas-keyboard-response","442","1299103","0.0-442.0","null","null","","","","","","","","","","","","","","fixation","","","2","50","","","","","","","","","",""
"","","","","","","","","","","","canvas-keyboard-response","443","1299405","0.0-443.0","null","null","","","","","","","","","","","","","","stimulus","","","2","50","","","","","","","","","",""
"","","","","","","","","","","","canvas-button-response","444","1300397","0.0-444.0","989","flower","","","","","","","","","","","","","","perceptual","","","2","50","","","","","216","flower","6","0","1",""
"","","","","","","","","","","","canvas-button-response","445","1301197","0.0-445.0","798","10","","","","","","","","","","","","","","confidence","","","2","50","","","","","","","","","","1"
"","","","","","","","","","","","preload","446","1301197","0.0-446.0","","","","","true","","","","","","","","","","","preload","","","2","51","false","[]","[]","[]","","","","","",""
"","","","","","","","","","","","canvas-keyboard-response","447","1301499","0.0-447.0","null","null","","","","","","","","","","","","","","fixation","","","2","51","","","","","","","","","",""
"","","","","","","","","","","","canvas-keyboard-response","448","1301801","0.0-448.0","null","null","","","","","","","","","","","","","","stimulus","","","2","51","","","","","","","","","",""
"","","","","","","","","","","","canvas-button-response","449","1302630","0.0-449.0","827","flower","","","","","","","","","","","","","","perceptual","","","2","51","","","","","234","flower","10","0","1",""
"","","","","","","","","","","","canvas-button-response","450","1303496","0.0-450.0","865","10","","","","","","","","","","","","","","confidence","","","2","51","","","","","","","","","","2"
"","","","","","","","","","","","preload","451","1303497","0.0-451.0","","","","","true","","","","","","","","","","","preload","","","2","52","false","[]","[]","[]","","","","","",""
"","","","","","","","","","","","canvas-keyboard-response","452","1303800","0.0-452.0","null","null","","","","","","","","","","","","","","fixation","","","2","52","","","","","","","","","",""
"","","","","","","","","","","","canvas-keyboard-response","453","1304103","0.0-453.0","null","null","","","","","","","","","","","","","","stimulus","","","2","52","","","","","","","","","",""
"","","","","","","","","","","","canvas-button-response","454","1304779","0.0-454.0","675","cat","","","","","","","","","","","","","","perceptual","","","2","52","","","","","319","cat","10","0","1",""
"","","","","","","","","","","","canvas-button-response","455","1305396","0.0-455.0","615","10","","","","","","","","","","","","","","confidence","","","2","52","","","","","","","","","","3"
"","","","","","","","","","","","preload","456","1305397","0.0-456.0","","","","","true","","","","","","","","","","","preload","","","2","53","false","[]","[]","[]","","","","","",""
"","","","","","","","","","","","canvas-keyboard-response","457","1305699","0.0-457.0","null","null","","","","","","","","","","","","","","fixation","","","2","53","","","","","","","","","",""
"","","","","","","","","","","","canvas-keyboard-response","458","1306002","0.0-458.0","null","null","","","","","","","","","","","","","","stimulus","","","2","53","","","","","","","","","",""
"","","","","","","","","","","","canvas-button-response","459","1306946","0.0-459.0","943","elephant","","","","","","","","","","","","","","perceptual","","","2","53","","","","","324","elephant","6","0","1",""
"","","","","","","","","","","","canvas-button-response","460","1307479","0.0-460.0","531","10","","","","","","","","","","","","","","confidence","","","2","53","","","","","","","","","","4"
"","","","","","","","","","","","preload","461","1307479","0.0-461.0","","","","","true","","","","","","","","","","","preload","","","2","54","false","[]","[]","[]","","","","","",""
"","","","","","","","","","","","canvas-keyboard-response","462","1307781","0.0-462.0","null","null","","","","","","","","","","","","","","fixation","","","2","54","","","","","","","","","",""
"","","","","","","","","","","","canvas-keyboard-response","463","1308084","0.0-463.0","null","null","","","","","","","","","","","","","","stimulus","","","2","54","","","","","","","","","",""
"","","","","","","","","","","","canvas-button-response","464","1308896","0.0-464.0","810","elephant","","","","","","","","","","","","","","perceptual","","","2","54","","","","","350","elephant","10","0","1",""
"","","","","","","","","","","","canvas-button-response","465","1309530","0.0-465.0","632","10","","","","","","","","","","","","","","confidence","","","2","54","","","","","","","","","","5"
"","","","","","","","","","","","preload","466","1309531","0.0-466.0","","","","","true","","","","","","","","","","","preload","","","2","55","false","[]","[]","[]","","","","","",""
"","","","","","","","","","","","canvas-keyboard-response","467","1309833","0.0-467.0","null","null","","","","","","","","","","","","","","fixation","","","2","55","","","","","","","","","",""
"","","","","","","","","","","","canvas-keyboard-response","468","1310135","0.0-468.0","null","null","","","","","","","","","","","","","","stimulus","","","2","55","","","","","","","","","",""
"","","","","","","","","","","","canvas-button-response","469","1311096","0.0-469.0","960","bed","","","","","","","","","","","","","","perceptual","","","2","55","","","","","132","bed","6","0","1",""
"","","","","","","","","","","","canvas-button-response","470","1312147","0.0-470.0","1048","10","","","","","","","","","","","","","","confidence","","","2","55","","","","","","","","","","6"
"","","","","","","","","","","","preload","471","1312148","0.0-471.0","","","","","true","","","","","","","","","","","preload","","","2","56","false","[]","[]","[]","","","","","",""
"","","","","","","","","","","","canvas-keyboard-response","472","1312450","0.0-472.0","null","null","","","","","","","","","","","","","","fixation","","","2","56","","","","","","","","","",""
"","","","","","","","","","","","canvas-keyboard-response","473","1312753","0.0-473.0","null","null","","","","","","","","","","","","","","stimulus","","","2","56","","","","","","","","","",""
"","","","","","","","","","","","canvas-button-response","474","1313513","0.0-474.0","758","phone","","","","","","","","","","","","","","perceptual","","","2","56","","","","","83","phone","6","0","1",""
"","","","","","","","","","","","canvas-button-response","475","1314080","0.0-475.0","565","10","","","","","","","","","","","","","","confidence","","","2","56","","","","","","","","","","7"
"","","","","","","","","","","","preload","476","1314080","0.0-476.0","","","","","true","","","","","","","","","","","preload","","","2","57","false","[]","[]","[]","","","","","",""
"","","","","","","","","","","","canvas-keyboard-response","477","1314383","0.0-477.0","null","null","","","","","","","","","","","","","","fixation","","","2","57","","","","","","","","","",""
"","","","","","","","","","","","canvas-keyboard-response","478","1314686","0.0-478.0","null","null","","","","","","","","","","","","","","stimulus","","","2","57","","","","","","","","","",""
"","","","","","","","","","","","canvas-button-response","479","1321230","0.0-479.0","6542","car","","","","","","","","","","","","","","perceptual","","","2","57","","","","","357","elephant","10","0","0",""
"","","","","","","","","","","","canvas-button-response","480","1322396","0.0-480.0","1164","5","","","","","","","","","","","","","","confidence","","","2","57","","","","","","","","","","7"
"","","","","","","","","","","","preload","481","1322397","0.0-481.0","","","","","true","","","","","","","","","","","preload","","","2","58","false","[]","[]","[]","","","","","",""
"","","","","","","","","","","","canvas-keyboard-response","482","1322699","0.0-482.0","null","null","","","","","","","","","","","","","","fixation","","","2","58","","","","","","","","","",""
"","","","","","","","","","","","canvas-keyboard-response","483","1323002","0.0-483.0","null","null","","","","","","","","","","","","","","stimulus","","","2","58","","","","","","","","","",""
"","","","","","","","","","","","canvas-button-response","484","1323863","0.0-484.0","859","car","","","","","","","","","","","","","","perceptual","","","2","58","","","","","77","car","10","0","1",""
"","","","","","","","","","","","canvas-button-response","485","1324697","0.0-485.0","832","4","","","","","","","","","","","","","","confidence","","","2","58","","","","","","","","","","8"
"","","","","","","","","","","","preload","486","1324698","0.0-486.0","","","","","true","","","","","","","","","","","preload","","","2","59","false","[]","[]","[]","","","","","",""
"","","","","","","","","","","","canvas-keyboard-response","487","1324999","0.0-487.0","null","null","","","","","","","","","","","","","","fixation","","","2","59","","","","","","","","","",""
"","","","","","","","","","","","canvas-keyboard-response","488","1325302","0.0-488.0","null","null","","","","","","","","","","","","","","stimulus","","","2","59","","","","","","","","","",""
"","","","","","","","","","","","canvas-button-response","489","1326079","0.0-489.0","775","bridge","","","","","","","","","","","","","","perceptual","","","2","59","","","","","165","bridge","6","0","1",""
"","","","","","","","","","","","canvas-button-response","490","1326796","0.0-490.0","715","9","","","","","","","","","","","","","","confidence","","","2","59","","","","","","","","","","9"
