"width","height","webaudio","browser","browser_version","mobile","os","fullscreen","vsync_rate","webcam","microphone","trial_type","trial_index","time_elapsed","internal_node_id","rt","response","accuracy","view_history","success","item_width_mm","item_height_mm","item_width_px","px2mm","view_dist_mm","item_width_deg","px2deg","scale_factor","win_width_deg","win_height_deg","stimulus","datetime","subjectID","curr_triallist","trial_no","timeout","failed_images","failed_audio","failed_video","image_index","category","blur","reps","correct","running_score"
"1470","798","true","chrome","140.0.0","false","Mac OS","true","60.97","true","true","browser-check","0","991","0.0-0.0","","","","","","","","","","","","","","","","","","","","","","","","","","","","","",""
"","","","","","","","","","","","survey","1","377530","0.0-1.0","376501","{""P0_Q0"":""903870575"",""P0_Q1"":""20"",""P1_Q0"":""Female"",""P1_Q1"":""Not Hispanic or Latino"",""P1_Q2"":""Asian"",""P1_Q3"":""Corrected-to-Normal (using glasses/contacts)"",""P1_Q4"":""Right-Handed""}","[]","","","","","","","","","","","","","","","","","","","","","","","","","","",""
"","","","","","","","","","","","instructions","2","431546","0.0-2.0","54016","","","[{""page_index"":0,""viewing_time"":3631},{""page_index"":1,""viewing_time"":11469},{""page_index"":2,""viewing_time"":32639},{""page_index"":3,""viewing_time"":6277}]","","","","","","","","","","","","","","","","","","","","","","","","","",""
"","","","","","","","","","","","fullscreen","3","433766","0.0-3.0","1216","","","","true","","","","","","","","","","","","","","","","","","","","","","","","",""
"","","","","","","","","","","","virtual-chinrest","4","508804","0.0-4.0","75036","","","","","85.6","53.98","267.4412414148144","3.126338585983363","549.05","8.914708047160481","29.999999999999996","1.615308086795585","49.00000000000001","30.66666666666667","","","","","","","","","","","","","","",""
"","","","","","","","","","","","instructions","5","581562","0.0-5.0","72757","","","[{""page_index"":0,""viewing_time"":3995},{""page_index"":1,""viewing_time"":6868},{""page_index"":2,""viewing_time"":7800},{""page_index"":3,""viewing_time"":2951},{""page_index"":4,""viewing_time"":4743},{""page_index"":5,""viewing_time"":44070},{""page_index"":6,""viewing_time"":2329}]","","","","","","","","","","","","","","","","","","","","","","","","","",""
"","","","","","","","","","","","html-button-response","6","585650","0.0-6.0","4084","0","","","","","","","","","","","","","","start_practice","Mon Oct 13 2025 12:45:03 GMT-0400 (Eastern Daylight Time)","27786","","","","","","","","","","","",""
"","","","","","","","","","","","preload","7","585651","0.0-7.0","","","","","true","","","","","","","","","","","preload","","","0","0","false","[]","[]","[]","","","","","",""
"","","","","","","","","","","","canvas-keyboard-response","8","585956","0.0-8.0","null","null","","","","","","","","","","","","","","fixation","","","0","0","","","","","","","","","",""
"","","","","","","","","","","","canvas-keyboard-response","9","586261","0.0-9.0","null","null","","","","","","","","","","","","","","stimulus","","","0","0","","","","","","","","","",""
"","","","","","","","","","","","canvas-button-response","10","588469","0.0-10.0","2204","house","","","","","","","","","","","","","","perceptual","","","0","0","","","","","2","house","1","","1",""
"","","","","","","","","","","","canvas-button-response","11","590160","0.0-11.0","1689","10","","","","","","","","","","","","","","confidence","","","0","0","","","","","","","","","","1"
"","","","","","","","","","","","html-keyboard-response","12","591164","0.0-12.0","null","null","","","","","","","","","","","","","","feedback","Mon Oct 13 2025 12:45:12 GMT-0400 (Eastern Daylight Time)","27786","0","0","","","","","","","","","",""
"","","","","","","","","","","","preload","13","591166","0.0-13.0","","","","","true","","","","","","","","","","","preload","","","0","1","false","[]","[]","[]","","","","","",""
"","","","","","","","","","","","canvas-keyboard-response","14","591469","0.0-14.0","null","null","","","","","","","","","","","","","","fixation","","","0","1","","","","","","","","","",""
"","","","","","","","","","","","canvas-keyboard-response","15","591772","0.0-15.0","null","null","","","","","","","","","","","","","","stimulus","","","0","1","","","","","","","","","",""
"","","","","","","","","","","","canvas-button-response","16","592677","0.0-16.0","902","car","","","","","","","","","","","","","","perceptual","","","0","1","","","","","12","car","1","","1",""
"","","","","","","","","","","","canvas-button-response","17","593536","0.0-17.0","856","10","","","","","","","","","","","","","","confidence","","","0","1","","","","","","","","","","2"
"","","","","","","","","","","","html-keyboard-response","18","594539","0.0-18.0","null","null","","","","","","","","","","","","","","feedback","Mon Oct 13 2025 12:45:15 GMT-0400 (Eastern Daylight Time)","27786","0","1","","","","","","","","","",""
"","","","","","","","","","","","preload","19","594540","0.0-19.0","","","","","true","","","","","","","","","","","preload","","","0","2","false","[]","[]","[]","","","","","",""
"","","","","","","","","","","","canvas-keyboard-response","20","594844","0.0-20.0","null","null","","","","","","","","","","","","","","fixation","","","0","2","","","","","","","","","",""
"","","","","","","","","","","","canvas-keyboard-response","21","595147","0.0-21.0","null","null","","","","","","","","","","","","","","stimulus","","","0","2","","","","","","","","","",""
"","","","","","","","","","","","canvas-button-response","22","596961","0.0-22.0","1811","train","","","","","","","","","","","","","","perceptual","","","0","2","","","","","62","train","1","","1",""
"","","","","","","","","","","","canvas-button-response","23","597705","0.0-23.0","741","10","","","","","","","","","","","","","","confidence","","","0","2","","","","","","","","","","3"
"","","","","","","","","","","","html-keyboard-response","24","598708","0.0-24.0","null","null","","","","","","","","","","","","","","feedback","Mon Oct 13 2025 12:45:19 GMT-0400 (Eastern Daylight Time)","27786","0","2","","","","","","","","","",""
"","","","","","","","","","","","preload","25","598708","0.0-25.0","","","","","true","","","","","","","","","","","preload","","","0","3","false","[]","[]","[]","","","","","",""
"","","","","","","","","","","","canvas-keyboard-response","26","599011","0.0-26.0","null","null","","","","","","","","","","","","","","fixation","","","0","3","","","","","","","","","",""
"","","","","","","","","","","","canvas-keyboard-response","27","599314","0.0-27.0","null","null","","","","","","","","","","","","","","stimulus","","","0","3","","","","","","","","","",""
"","","","","","","","","","","","canvas-button-response","28","600507","0.0-28.0","1191","bed","","","","","","","","","","","","","","perceptual","","","0","3","","","","","32","bed","1","","1",""
"","","","","","","","","","","","canvas-button-response","29","601365","0.0-29.0","856","10","","","","","","","","","","","","","","confidence","","","0","3","","","","","","","","","","4"
"","","","","","","","","","","","html-keyboard-response","30","602368","0.0-30.0","null","null","","","","","","","","","","","","","","feedback","Mon Oct 13 2025 12:45:23 GMT-0400 (Eastern Daylight Time)","27786","0","3","","","","","","","","","",""
"","","","","","","","","","","","preload","31","602368","0.0-31.0","","","","","true","","","","","","","","","","","preload","","","0","4","false","[]","[]","[]","","","","","",""
"","","","","","","","","","","","canvas-keyboard-response","32","602671","0.0-32.0","null","null","","","","","","","","","","","","","","fixation","","","0","4","","","","","","","","","",""
"","","","","","","","","","","","canvas-keyboard-response","33","602975","0.0-33.0","null","null","","","","","","","","","","","","","","stimulus","","","0","4","","","","","","","","","",""
"","","","","","","","","","","","canvas-button-response","34","604090","0.0-34.0","1113","bridge","","","","","","","","","","","","","","perceptual","","","0","4","","","","","42","bridge","1","","1",""
"","","","","","","","","","","","canvas-button-response","35","604834","0.0-35.0","742","10","","","","","","","","","","","","","","confidence","","","0","4","","","","","","","","","","5"
"","","","","","","","","","","","html-keyboard-response","36","605838","0.0-36.0","null","null","","","","","","","","","","","","","","feedback","Mon Oct 13 2025 12:45:26 GMT-0400 (Eastern Daylight Time)","27786","0","4","","","","","","","","","",""
"","","","","","","","","","","","preload","37","605839","0.0-37.0","","","","","true","","","","","","","","","","","preload","","","0","5","false","[]","[]","[]","","","","","",""
"","","","","","","","","","","","canvas-keyboard-response","38","606142","0.0-38.0","null","null","","","","","","","","","","","","","","fixation","","","0","5","","","","","","","","","",""
"","","","","","","","","","","","canvas-keyboard-response","39","606445","0.0-39.0","null","null","","","","","","","","","","","","","","stimulus","","","0","5","","","","","","","","","",""
"","","","","","","","","","","","canvas-button-response","40","608685","0.0-40.0","2238","house","","","","","","","","","","","","","","perceptual","","","0","5","","","","","52","flower","1","","0",""
"","","","","","","","","","","","canvas-button-response","41","613819","0.0-41.0","5132","8","","","","","","","","","","","","","","confidence","","","0","5","","","","","","","","","","5"
"","","","","","","","","","","","html-keyboard-response","42","614822","0.0-42.0","null","null","","","","","","","","","","","","","","feedback","Mon Oct 13 2025 12:45:35 GMT-0400 (Eastern Daylight Time)","27786","0","5","","","","","","","","","",""
"","","","","","","","","","","","preload","43","614824","0.0-43.0","","","","","true","","","","","","","","","","","preload","","","0","6","false","[]","[]","[]","","","","","",""
"","","","","","","","","","","","canvas-keyboard-response","44","615127","0.0-44.0","null","null","","","","","","","","","","","","","","fixation","","","0","6","","","","","","","","","",""
"","","","","","","","","","","","canvas-keyboard-response","45","615431","0.0-45.0","null","null","","","","","","","","","","","","","","stimulus","","","0","6","","","","","","","","","",""
"","","","","","","","","","","","canvas-button-response","46","622818","0.0-46.0","7384","bridge","","","","","","","","","","","","","","perceptual","","","0","6","","","","","82","elephant","1","","0",""
"","","","","","","","","","","","canvas-button-response","47","623520","0.0-47.0","700","0","","","","","","","","","","","","","","confidence","","","0","6","","","","","","","","","","5"
"","","","","","","","","","","","html-keyboard-response","48","624523","0.0-48.0","null","null","","","","","","","","","","","","","","feedback","Mon Oct 13 2025 12:45:45 GMT-0400 (Eastern Daylight Time)","27786","0","6","","","","","","","","","",""
"","","","","","","","","","","","preload","49","624525","0.0-49.0","","","","","true","","","","","","","","","","","preload","","","0","7","false","[]","[]","[]","","","","","",""
"","","","","","","","","","","","canvas-keyboard-response","50","624828","0.0-50.0","null","null","","","","","","","","","","","","","","fixation","","","0","7","","","","","","","","","",""
"","","","","","","","","","","","canvas-keyboard-response","51","625132","0.0-51.0","null","null","","","","","","","","","","","","","","stimulus","","","0","7","","","","","","","","","",""
"","","","","","","","","","","","canvas-button-response","52","626269","0.0-52.0","1135","cat","","","","","","","","","","","","","","perceptual","","","0","7","","","","","72","cat","1","","1",""
"","","","","","","","","","","","canvas-button-response","53","627097","0.0-53.0","825","10","","","","","","","","","","","","","","confidence","","","0","7","","","","","","","","","","6"
"","","","","","","","","","","","html-keyboard-response","54","628100","0.0-54.0","null","null","","","","","","","","","","","","","","feedback","Mon Oct 13 2025 12:45:49 GMT-0400 (Eastern Daylight Time)","27786","0","7","","","","","","","","","",""
"","","","","","","","","","","","preload","55","628102","0.0-55.0","","","","","true","","","","","","","","","","","preload","","","0","8","false","[]","[]","[]","","","","","",""
"","","","","","","","","","","","canvas-keyboard-response","56","628404","0.0-56.0","null","null","","","","","","","","","","","","","","fixation","","","0","8","","","","","","","","","",""
"","","","","","","","","","","","canvas-keyboard-response","57","628708","0.0-57.0","null","null","","","","","","","","","","","","","","stimulus","","","0","8","","","","","","","","","",""
"","","","","","","","","","","","canvas-button-response","58","630676","0.0-58.0","1966","knife","","","","","","","","","","","","","","perceptual","","","0","8","","","","","92","knife","1","","1",""
"","","","","","","","","","","","canvas-button-response","59","632199","0.0-59.0","1520","9","","","","","","","","","","","","","","confidence","","","0","8","","","","","","","","","","7"
"","","","","","","","","","","","html-keyboard-response","60","633202","0.0-60.0","null","null","","","","","","","","","","","","","","feedback","Mon Oct 13 2025 12:45:54 GMT-0400 (Eastern Daylight Time)","27786","0","8","","","","","","","","","",""
"","","","","","","","","","","","preload","61","633203","0.0-61.0","","","","","true","","","","","","","","","","","preload","","","0","9","false","[]","[]","[]","","","","","",""
"","","","","","","","","","","","canvas-keyboard-response","62","633507","0.0-62.0","null","null","","","","","","","","","","","","","","fixation","","","0","9","","","","","","","","","",""
"","","","","","","","","","","","canvas-keyboard-response","63","633810","0.0-63.0","null","null","","","","","","","","","","","","","","stimulus","","","0","9","","","","","","","","","",""
"","","","","","","","","","","","canvas-button-response","64","635396","0.0-64.0","1584","phone","","","","","","","","","","","","","","perceptual","","","0","9","","","","","22","phone","1","","1",""
"","","","","","","","","","","","canvas-button-response","65","636148","0.0-65.0","749","10","","","","","","","","","","","","","","confidence","","","0","9","","","","","","","","","","8"
"","","","","","","","","","","","html-keyboard-response","66","637152","0.0-66.0","null","null","","","","","","","","","","","","","","feedback","Mon Oct 13 2025 12:45:58 GMT-0400 (Eastern Daylight Time)","27786","0","9","","","","","","","","","",""
"","","","","","","","","","","","html-button-response","67","646776","0.0-67.0","9622","0","","","","","","","","","","","","","","start_practice","Mon Oct 13 2025 12:45:59 GMT-0400 (Eastern Daylight Time)","27786","0","9","","","","","","","","","",""
"","","","","","","","","","","","preload","68","646777","0.0-68.0","","","","","true","","","","","","","","","","","preload","","","1","0","false","[]","[]","[]","","","","","",""
"","","","","","","","","","","","canvas-keyboard-response","69","647080","0.0-69.0","null","null","","","","","","","","","","","","","","fixation","","","1","0","","","","","","","","","",""
"","","","","","","","","","","","canvas-keyboard-response","70","647383","0.0-70.0","null","null","","","","","","","","","","","","","","stimulus","","","1","0","","","","","","","","","",""
"","","","","","","","","","","","canvas-button-response","71","649777","0.0-71.0","2393","house","","","","","","","","","","","","","","perceptual","","","1","0","","","","","87","elephant","10","","0",""
"","","","","","","","","","","","canvas-button-response","72","651566","0.0-72.0","1787","0","","","","","","","","","","","","","","confidence","","","1","0","","","","","","","","","","0"
"","","","","","","","","","","","html-keyboard-response","73","652569","0.0-73.0","null","null","","","","","","","","","","","","","","feedback","Mon Oct 13 2025 12:46:13 GMT-0400 (Eastern Daylight Time)","27786","1","0","","","","","","","","","",""
"","","","","","","","","","","","preload","74","652570","0.0-74.0","","","","","true","","","","","","","","","","","preload","","","1","1","false","[]","[]","[]","","","","","",""
"","","","","","","","","","","","canvas-keyboard-response","75","652873","0.0-75.0","null","null","","","","","","","","","","","","","","fixation","","","1","1","","","","","","","","","",""
"","","","","","","","","","","","canvas-keyboard-response","76","653176","0.0-76.0","null","null","","","","","","","","","","","","","","stimulus","","","1","1","","","","","","","","","",""
"","","","","","","","","","","","canvas-button-response","77","654740","0.0-77.0","1561","knife","","","","","","","","","","","","","","perceptual","","","1","1","","","","","97","knife","10","","1",""
"","","","","","","","","","","","canvas-button-response","78","655428","0.0-78.0","685","10","","","","","","","","","","","","","","confidence","","","1","1","","","","","","","","","","1"
"","","","","","","","","","","","html-keyboard-response","79","656431","0.0-79.0","null","null","","","","","","","","","","","","","","feedback","Mon Oct 13 2025 12:46:17 GMT-0400 (Eastern Daylight Time)","27786","1","1","","","","","","","","","",""
"","","","","","","","","","","","preload","80","656432","0.0-80.0","","","","","true","","","","","","","","","","","preload","","","1","2","false","[]","[]","[]","","","","","",""
"","","","","","","","","","","","canvas-keyboard-response","81","656734","0.0-81.0","null","null","","","","","","","","","","","","","","fixation","","","1","2","","","","","","","","","",""
"","","","","","","","","","","","canvas-keyboard-response","82","657037","0.0-82.0","null","null","","","","","","","","","","","","","","stimulus","","","1","2","","","","","","","","","",""
"","","","","","","","","","","","canvas-button-response","83","660359","0.0-83.0","3319","bridge","","","","","","","","","","","","","","perceptual","","","1","2","","","","","37","bed","10","","0",""
"","","","","","","","","","","","canvas-button-response","84","661412","0.0-84.0","1051","3","","","","","","","","","","","","","","confidence","","","1","2","","","","","","","","","","1"
"","","","","","","","","","","","html-keyboard-response","85","662415","0.0-85.0","null","null","","","","","","","","","","","","","","feedback","Mon Oct 13 2025 12:46:23 GMT-0400 (Eastern Daylight Time)","27786","1","2","","","","","","","","","",""
"","","","","","","","","","","","preload","86","662416","0.0-86.0","","","","","true","","","","","","","","","","","preload","","","1","3","false","[]","[]","[]","","","","","",""
"","","","","","","","","","","","canvas-keyboard-response","87","662720","0.0-87.0","null","null","","","","","","","","","","","","","","fixation","","","1","3","","","","","","","","","",""
"","","","","","","","","","","","canvas-keyboard-response","88","663023","0.0-88.0","null","null","","","","","","","","","","","","","","stimulus","","","1","3","","","","","","","","","",""
"","","","","","","","","","","","canvas-button-response","89","664503","0.0-89.0","1477","train","","","","","","","","","","","","","","perceptual","","","1","3","","","","","64","train","6","","1",""
"","","","","","","","","","","","canvas-button-response","90","665100","0.0-90.0","595","10","","","","","","","","","","","","","","confidence","","","1","3","","","","","","","","","","2"
"","","","","","","","","","","","html-keyboard-response","91","666103","0.0-91.0","null","null","","","","","","","","","","","","","","feedback","Mon Oct 13 2025 12:46:27 GMT-0400 (Eastern Daylight Time)","27786","1","3","","","","","","","","","",""
"","","","","","","","","","","","preload","92","666105","0.0-92.0","","","","","true","","","","","","","","","","","preload","","","1","4","false","[]","[]","[]","","","","","",""
"","","","","","","","","","","","canvas-keyboard-response","93","666407","0.0-93.0","null","null","","","","","","","","","","","","","","fixation","","","1","4","","","","","","","","","",""
"","","","","","","","","","","","canvas-keyboard-response","94","666711","0.0-94.0","null","null","","","","","","","","","","","","","","stimulus","","","1","4","","","","","","","","","",""
"","","","","","","","","","","","canvas-button-response","95","671948","0.0-95.0","5234","flower","","","","","","","","","","","","","","perceptual","","","1","4","","","","","17","car","10","","0",""
"","","","","","","","","","","","canvas-button-response","96","672725","0.0-96.0","775","1","","","","","","","","","","","","","","confidence","","","1","4","","","","","","","","","","2"
"","","","","","","","","","","","html-keyboard-response","97","673728","0.0-97.0","null","null","","","","","","","","","","","","","","feedback","Mon Oct 13 2025 12:46:34 GMT-0400 (Eastern Daylight Time)","27786","1","4","","","","","","","","","",""
"","","","","","","","","","","","preload","98","673729","0.0-98.0","","","","","true","","","","","","","","","","","preload","","","1","5","false","[]","[]","[]","","","","","",""
"","","","","","","","","","","","canvas-keyboard-response","99","674032","0.0-99.0","null","null","","","","","","","","","","","","","","fixation","","","1","5","","","","","","","","","",""
"","","","","","","","","","","","canvas-keyboard-response","100","674335","0.0-100.0","null","null","","","","","","","","","","","","","","stimulus","","","1","5","","","","","","","","","",""
"","","","","","","","","","","","canvas-button-response","101","677729","0.0-101.0","3391","car","","","","","","","","","","","","","","perceptual","","","1","5","","","","","14","car","6","","1",""
"","","","","","","","","","","","canvas-button-response","102","678653","0.0-102.0","922","1","","","","","","","","","","","","","","confidence","","","1","5","","","","","","","","","","3"
"","","","","","","","","","","","html-keyboard-response","103","679656","0.0-103.0","null","null","","","","","","","","","","","","","","feedback","Mon Oct 13 2025 12:46:40 GMT-0400 (Eastern Daylight Time)","27786","1","5","","","","","","","","","",""
"","","","","","","","","","","","preload","104","679657","0.0-104.0","","","","","true","","","","","","","","","","","preload","","","1","6","false","[]","[]","[]","","","","","",""
"","","","","","","","","","","","canvas-keyboard-response","105","679960","0.0-105.0","null","null","","","","","","","","","","","","","","fixation","","","1","6","","","","","","","","","",""
"","","","","","","","","","","","canvas-keyboard-response","106","680263","0.0-106.0","null","null","","","","","","","","","","","","","","stimulus","","","1","6","","","","","","","","","",""
"","","","","","","","","","","","canvas-button-response","107","681997","0.0-107.0","1731","car","","","","","","","","","","","","","","perceptual","","","1","6","","","","","27","phone","10","","0",""
"","","","","","","","","","","","canvas-button-response","108","682699","0.0-108.0","699","1","","","","","","","","","","","","","","confidence","","","1","6","","","","","","","","","","3"
"","","","","","","","","","","","html-keyboard-response","109","683702","0.0-109.0","null","null","","","","","","","","","","","","","","feedback","Mon Oct 13 2025 12:46:44 GMT-0400 (Eastern Daylight Time)","27786","1","6","","","","","","","","","",""
"","","","","","","","","","","","preload","110","683703","0.0-110.0","","","","","true","","","","","","","","","","","preload","","","1","7","false","[]","[]","[]","","","","","",""
"","","","","","","","","","","","canvas-keyboard-response","111","684006","0.0-111.0","null","null","","","","","","","","","","","","","","fixation","","","1","7","","","","","","","","","",""
"","","","","","","","","","","","canvas-keyboard-response","112","684309","0.0-112.0","null","null","","","","","","","","","","","","","","stimulus","","","1","7","","","","","","","","","",""
"","","","","","","","","","","","canvas-button-response","113","689711","0.0-113.0","5399","bed","","","","","","","","","","","","","","perceptual","","","1","7","","","","","54","flower","6","","0",""
"","","","","","","","","","","","canvas-button-response","114","690602","0.0-114.0","888","1","","","","","","","","","","","","","","confidence","","","1","7","","","","","","","","","","3"
"","","","","","","","","","","","html-keyboard-response","115","691605","0.0-115.0","null","null","","","","","","","","","","","","","","feedback","Mon Oct 13 2025 12:46:52 GMT-0400 (Eastern Daylight Time)","27786","1","7","","","","","","","","","",""
"","","","","","","","","","","","preload","116","691606","0.0-116.0","","","","","true","","","","","","","","","","","preload","","","1","8","false","[]","[]","[]","","","","","",""
"","","","","","","","","","","","canvas-keyboard-response","117","691909","0.0-117.0","null","null","","","","","","","","","","","","","","fixation","","","1","8","","","","","","","","","",""
"","","","","","","","","","","","canvas-keyboard-response","118","692212","0.0-118.0","null","null","","","","","","","","","","","","","","stimulus","","","1","8","","","","","","","","","",""
"","","","","","","","","","","","canvas-button-response","119","693523","0.0-119.0","1308","cat","","","","","","","","","","","","","","perceptual","","","1","8","","","","","77","cat","10","","1",""
"","","","","","","","","","","","canvas-button-response","120","694625","0.0-120.0","1100","3","","","","","","","","","","","","","","confidence","","","1","8","","","","","","","","","","4"
"","","","","","","","","","","","html-keyboard-response","121","695628","0.0-121.0","null","null","","","","","","","","","","","","","","feedback","Mon Oct 13 2025 12:46:56 GMT-0400 (Eastern Daylight Time)","27786","1","8","","","","","","","","","",""
"","","","","","","","","","","","preload","122","695629","0.0-122.0","","","","","true","","","","","","","","","","","preload","","","1","9","false","[]","[]","[]","","","","","",""
"","","","","","","","","","","","canvas-keyboard-response","123","695932","0.0-123.0","null","null","","","","","","","","","","","","","","fixation","","","1","9","","","","","","","","","",""
"","","","","","","","","","","","canvas-keyboard-response","124","696235","0.0-124.0","null","null","","","","","","","","","","","","","","stimulus","","","1","9","","","","","","","","","",""
"","","","","","","","","","","","canvas-button-response","125","697677","0.0-125.0","1440","flower","","","","","","","","","","","","","","perceptual","","","1","9","","","","","57","flower","10","","1",""
"","","","","","","","","","","","canvas-button-response","126","701658","0.0-126.0","3979","4","","","","","","","","","","","","","","confidence","","","1","9","","","","","","","","","","5"
"","","","","","","","","","","","html-keyboard-response","127","702662","0.0-127.0","null","null","","","","","","","","","","","","","","feedback","Mon Oct 13 2025 12:47:03 GMT-0400 (Eastern Daylight Time)","27786","1","9","","","","","","","","","",""
"","","","","","","","","","","","preload","128","702663","0.0-128.0","","","","","true","","","","","","","","","","","preload","","","1","10","false","[]","[]","[]","","","","","",""
"","","","","","","","","","","","canvas-keyboard-response","129","702966","0.0-129.0","null","null","","","","","","","","","","","","","","fixation","","","1","10","","","","","","","","","",""
"","","","","","","","","","","","canvas-keyboard-response","130","703268","0.0-130.0","null","null","","","","","","","","","","","","","","stimulus","","","1","10","","","","","","","","","",""
"","","","","","","","","","","","canvas-button-response","131","706680","0.0-131.0","3409","house","","","","","","","","","","","","","","perceptual","","","1","10","","","","","4","house","6","","1",""
"","","","","","","","","","","","canvas-button-response","132","708013","0.0-132.0","1332","8","","","","","","","","","","","","","","confidence","","","1","10","","","","","","","","","","6"
"","","","","","","","","","","","html-keyboard-response","133","709016","0.0-133.0","null","null","","","","","","","","","","","","","","feedback","Mon Oct 13 2025 12:47:10 GMT-0400 (Eastern Daylight Time)","27786","1","10","","","","","","","","","",""
"","","","","","","","","","","","preload","134","709017","0.0-134.0","","","","","true","","","","","","","","","","","preload","","","1","11","false","[]","[]","[]","","","","","",""
"","","","","","","","","","","","canvas-keyboard-response","135","709320","0.0-135.0","null","null","","","","","","","","","","","","","","fixation","","","1","11","","","","","","","","","",""
"","","","","","","","","","","","canvas-keyboard-response","136","709623","0.0-136.0","null","null","","","","","","","","","","","","","","stimulus","","","1","11","","","","","","","","","",""
"","","","","","","","","","","","canvas-button-response","137","713943","0.0-137.0","4317","train","","","","","","","","","","","","","","perceptual","","","1","11","","","","","44","bridge","6","","0",""
"","","","","","","","","","","","canvas-button-response","138","715046","0.0-138.0","1101","5","","","","","","","","","","","","","","confidence","","","1","11","","","","","","","","","","6"
"","","","","","","","","","","","html-keyboard-response","139","716049","0.0-139.0","null","null","","","","","","","","","","","","","","feedback","Mon Oct 13 2025 12:47:17 GMT-0400 (Eastern Daylight Time)","27786","1","11","","","","","","","","","",""
"","","","","","","","","","","","preload","140","716050","0.0-140.0","","","","","true","","","","","","","","","","","preload","","","1","12","false","[]","[]","[]","","","","","",""
"","","","","","","","","","","","canvas-keyboard-response","141","716353","0.0-141.0","null","null","","","","","","","","","","","","","","fixation","","","1","12","","","","","","","","","",""
"","","","","","","","","","","","canvas-keyboard-response","142","716657","0.0-142.0","null","null","","","","","","","","","","","","","","stimulus","","","1","12","","","","","","","","","",""
"","","","","","","","","","","","canvas-button-response","143","718325","0.0-143.0","1666","cat","","","","","","","","","","","","","","perceptual","","","1","12","","","","","74","cat","6","","1",""
"","","","","","","","","","","","canvas-button-response","144","719478","0.0-144.0","1150","8","","","","","","","","","","","","","","confidence","","","1","12","","","","","","","","","","7"
"","","","","","","","","","","","html-keyboard-response","145","720481","0.0-145.0","null","null","","","","","","","","","","","","","","feedback","Mon Oct 13 2025 12:47:21 GMT-0400 (Eastern Daylight Time)","27786","1","12","","","","","","","","","",""
"","","","","","","","","","","","preload","146","720482","0.0-146.0","","","","","true","","","","","","","","","","","preload","","","1","13","false","[]","[]","[]","","","","","",""
"","","","","","","","","","","","canvas-keyboard-response","147","720786","0.0-147.0","null","null","","","","","","","","","","","","","","fixation","","","1","13","","","","","","","","","",""
"","","","","","","","","","","","canvas-keyboard-response","148","721089","0.0-148.0","null","null","","","","","","","","","","","","","","stimulus","","","1","13","","","","","","","","","",""
"","","","","","","","","","","","canvas-button-response","149","722258","0.0-149.0","1167","house","","","","","","","","","","","","","","perceptual","","","1","13","","","","","7","house","10","","1",""
"","","","","","","","","","","","canvas-button-response","150","722913","0.0-150.0","653","4","","","","","","","","","","","","","","confidence","","","1","13","","","","","","","","","","8"
"","","","","","","","","","","","html-keyboard-response","151","723916","0.0-151.0","null","null","","","","","","","","","","","","","","feedback","Mon Oct 13 2025 12:47:24 GMT-0400 (Eastern Daylight Time)","27786","1","13","","","","","","","","","",""
"","","","","","","","","","","","preload","152","723918","0.0-152.0","","","","","true","","","","","","","","","","","preload","","","1","14","false","[]","[]","[]","","","","","",""
"","","","","","","","","","","","canvas-keyboard-response","153","724221","0.0-153.0","null","null","","","","","","","","","","","","","","fixation","","","1","14","","","","","","","","","",""
"","","","","","","","","","","","canvas-keyboard-response","154","724524","0.0-154.0","null","null","","","","","","","","","","","","","","stimulus","","","1","14","","","","","","","","","",""
"","","","","","","","","","","","canvas-button-response","155","726086","0.0-155.0","1559","phone","","","","","","","","","","","","","","perceptual","","","1","14","","","","","24","phone","6","","1",""
"","","","","","","","","","","","canvas-button-response","156","726674","0.0-156.0","586","8","","","","","","","","","","","","","","confidence","","","1","14","","","","","","","","","","9"
"","","","","","","","","","","","html-keyboard-response","157","727677","0.0-157.0","null","null","","","","","","","","","","","","","","feedback","Mon Oct 13 2025 12:47:28 GMT-0400 (Eastern Daylight Time)","27786","1","14","","","","","","","","","",""
"","","","","","","","","","","","preload","158","727678","0.0-158.0","","","","","true","","","","","","","","","","","preload","","","1","15","false","[]","[]","[]","","","","","",""
"","","","","","","","","","","","canvas-keyboard-response","159","727981","0.0-159.0","null","null","","","","","","","","","","","","","","fixation","","","1","15","","","","","","","","","",""
"","","","","","","","","","","","canvas-keyboard-response","160","728284","0.0-160.0","null","null","","","","","","","","","","","","","","stimulus","","","1","15","","","","","","","","","",""
"","","","","","","","","","","","canvas-button-response","161","729742","0.0-161.0","1455","bed","","","","","","","","","","","","","","perceptual","","","1","15","","","","","34","bed","6","","1",""
"","","","","","","","","","","","canvas-button-response","162","731557","0.0-162.0","1813","8","","","","","","","","","","","","","","confidence","","","1","15","","","","","","","","","","10"
"","","","","","","","","","","","html-keyboard-response","163","732560","0.0-163.0","null","null","","","","","","","","","","","","","","feedback","Mon Oct 13 2025 12:47:33 GMT-0400 (Eastern Daylight Time)","27786","1","15","","","","","","","","","",""
"","","","","","","","","","","","preload","164","732561","0.0-164.0","","","","","true","","","","","","","","","","","preload","","","1","16","false","[]","[]","[]","","","","","",""
"","","","","","","","","","","","canvas-keyboard-response","165","732864","0.0-165.0","null","null","","","","","","","","","","","","","","fixation","","","1","16","","","","","","","","","",""
"","","","","","","","","","","","canvas-keyboard-response","166","733166","0.0-166.0","null","null","","","","","","","","","","","","","","stimulus","","","1","16","","","","","","","","","",""
"","","","","","","","","","","","canvas-button-response","167","737660","0.0-167.0","4491","bed","","","","","","","","","","","","","","perceptual","","","1","16","","","","","94","knife","6","","0",""
"","","","","","","","","","","","canvas-button-response","168","738550","0.0-168.0","888","1","","","","","","","","","","","","","","confidence","","","1","16","","","","","","","","","","10"
"","","","","","","","","","","","html-keyboard-response","169","739554","0.0-169.0","null","null","","","","","","","","","","","","","","feedback","Mon Oct 13 2025 12:47:40 GMT-0400 (Eastern Daylight Time)","27786","1","16","","","","","","","","","",""
"","","","","","","","","","","","preload","170","739555","0.0-170.0","","","","","true","","","","","","","","","","","preload","","","1","17","false","[]","[]","[]","","","","","",""
"","","","","","","","","","","","canvas-keyboard-response","171","739858","0.0-171.0","null","null","","","","","","","","","","","","","","fixation","","","1","17","","","","","","","","","",""
"","","","","","","","","","","","canvas-keyboard-response","172","740161","0.0-172.0","null","null","","","","","","","","","","","","","","stimulus","","","1","17","","","","","","","","","",""
"","","","","","","","","","","","canvas-button-response","173","741520","0.0-173.0","1356","train","","","","","","","","","","","","","","perceptual","","","1","17","","","","","67","train","10","","1",""
"","","","","","","","","","","","canvas-button-response","174","742175","0.0-174.0","652","8","","","","","","","","","","","","","","confidence","","","1","17","","","","","","","","","","11"
"","","","","","","","","","","","html-keyboard-response","175","743178","0.0-175.0","null","null","","","","","","","","","","","","","","feedback","Mon Oct 13 2025 12:47:44 GMT-0400 (Eastern Daylight Time)","27786","1","17","","","","","","","","","",""
"","","","","","","","","","","","preload","176","743179","0.0-176.0","","","","","true","","","","","","","","","","","preload","","","1","18","false","[]","[]","[]","","","","","",""
"","","","","","","","","","","","canvas-keyboard-response","177","743482","0.0-177.0","null","null","","","","","","","","","","","","","","fixation","","","1","18","","","","","","","","","",""
"","","","","","","","","","","","canvas-keyboard-response","178","743785","0.0-178.0","null","null","","","","","","","","","","","","","","stimulus","","","1","18","","","","","","","","","",""
"","","","","","","","","","","","canvas-button-response","179","745705","0.0-179.0","1917","cat","","","","","","","","","","","","","","perceptual","","","1","18","","","","","47","bridge","10","","0",""
"","","","","","","","","","","","canvas-button-response","180","746579","0.0-180.0","872","1","","","","","","","","","","","","","","confidence","","","1","18","","","","","","","","","","11"
"","","","","","","","","","","","html-keyboard-response","181","747582","0.0-181.0","null","null","","","","","","","","","","","","","","feedback","Mon Oct 13 2025 12:47:48 GMT-0400 (Eastern Daylight Time)","27786","1","18","","","","","","","","","",""
"","","","","","","","","","","","preload","182","747583","0.0-182.0","","","","","true","","","","","","","","","","","preload","","","1","19","false","[]","[]","[]","","","","","",""
"","","","","","","","","","","","canvas-keyboard-response","183","747886","0.0-183.0","null","null","","","","","","","","","","","","","","fixation","","","1","19","","","","","","","","","",""
"","","","","","","","","","","","canvas-keyboard-response","184","748189","0.0-184.0","null","null","","","","","","","","","","","","","","stimulus","","","1","19","","","","","","","","","",""
"","","","","","","","","","","","canvas-button-response","185","749891","0.0-185.0","1699","elephant","","","","","","","","","","","","","","perceptual","","","1","19","","","","","84","elephant","6","","1",""
"","","","","","","","","","","","canvas-button-response","186","750424","0.0-186.0","530","10","","","","","","","","","","","","","","confidence","","","1","19","","","","","","","","","","12"
"","","","","","","","","","","","html-keyboard-response","187","751427","0.0-187.0","null","null","","","","","","","","","","","","","","feedback","Mon Oct 13 2025 12:47:52 GMT-0400 (Eastern Daylight Time)","27786","1","19","","","","","","","","","",""
"","","","","","","","","","","","html-button-response","188","815182","0.0-188.0","63752","0","","","","","","","","","","","","","","start experiment","Mon Oct 13 2025 12:47:53 GMT-0400 (Eastern Daylight Time)","27786","1","19","","","","","","","","","",""
"","","","","","","","","","","","preload","189","815183","0.0-189.0","","","","","true","","","","","","","","","","","preload","","","2","0","false","[]","[]","[]","","","","","",""
"","","","","","","","","","","","canvas-keyboard-response","190","815485","0.0-190.0","null","null","","","","","","","","","","","","","","fixation","","","2","0","","","","","","","","","",""
"","","","","","","","","","","","canvas-keyboard-response","191","815789","0.0-191.0","null","null","","","","","","","","","","","","","","stimulus","","","2","0","","","","","","","","","",""
"","","","","","","","","","","","canvas-button-response","192","817584","0.0-192.0","1794","knife","","","","","","","","","","","","","","perceptual","","","2","0","","","","","368","knife","6","0","1",""
"","","","","","","","","","","","canvas-button-response","193","818443","0.0-193.0","856","3","","","","","","","","","","","","","","confidence","","","2","0","","","","","","","","","","1"
"","","","","","","","","","","","preload","194","818444","0.0-194.0","","","","","true","","","","","","","","","","","preload","","","2","1","false","[]","[]","[]","","","","","",""
"","","","","","","","","","","","canvas-keyboard-response","195","818747","0.0-195.0","null","null","","","","","","","","","","","","","","fixation","","","2","1","","","","","","","","","",""
"","","","","","","","","","","","canvas-keyboard-response","196","819050","0.0-196.0","null","null","","","","","","","","","","","","","","stimulus","","","2","1","","","","","","","","","",""
"","","","","","","","","","","","canvas-button-response","197","819962","0.0-197.0","909","car","","","","","","","","","","","","","","perceptual","","","2","1","","","","","63","car","10","0","1",""
"","","","","","","","","","","","canvas-button-response","198","820681","0.0-198.0","716","9","","","","","","","","","","","","","","confidence","","","2","1","","","","","","","","","","2"
"","","","","","","","","","","","preload","199","820682","0.0-199.0","","","","","true","","","","","","","","","","","preload","","","2","2","false","[]","[]","[]","","","","","",""
"","","","","","","","","","","","canvas-keyboard-response","200","820985","0.0-200.0","null","null","","","","","","","","","","","","","","fixation","","","2","2","","","","","","","","","",""
"","","","","","","","","","","","canvas-keyboard-response","201","821288","0.0-201.0","null","null","","","","","","","","","","","","","","stimulus","","","2","2","","","","","","","","","",""
"","","","","","","","","","","","canvas-button-response","202","822685","0.0-202.0","1394","house","","","","","","","","","","","","","","perceptual","","","2","2","","","","","181","bridge","10","0","0",""
"","","","","","","","","","","","canvas-button-response","203","823461","0.0-203.0","774","2","","","","","","","","","","","","","","confidence","","","2","2","","","","","","","","","","2"
"","","","","","","","","","","","preload","204","823463","0.0-204.0","","","","","true","","","","","","","","","","","preload","","","2","3","false","[]","[]","[]","","","","","",""
"","","","","","","","","","","","canvas-keyboard-response","205","823766","0.0-205.0","null","null","","","","","","","","","","","","","","fixation","","","2","3","","","","","","","","","",""
"","","","","","","","","","","","canvas-keyboard-response","206","824068","0.0-206.0","null","null","","","","","","","","","","","","","","stimulus","","","2","3","","","","","","","","","",""
"","","","","","","","","","","","canvas-button-response","207","826226","0.0-207.0","2154","flower","","","","","","","","","","","","","","perceptual","","","2","3","","","","","230","flower","10","0","1",""
"","","","","","","","","","","","canvas-button-response","208","827313","0.0-208.0","1084","7","","","","","","","","","","","","","","confidence","","","2","3","","","","","","","","","","3"
"","","","","","","","","","","","preload","209","827314","0.0-209.0","","","","","true","","","","","","","","","","","preload","","","2","4","false","[]","[]","[]","","","","","",""
"","","","","","","","","","","","canvas-keyboard-response","210","827617","0.0-210.0","null","null","","","","","","","","","","","","","","fixation","","","2","4","","","","","","","","","",""
"","","","","","","","","","","","canvas-keyboard-response","211","827920","0.0-211.0","null","null","","","","","","","","","","","","","","stimulus","","","2","4","","","","","","","","","",""
"","","","","","","","","","","","canvas-button-response","212","831500","0.0-212.0","3576","knife","","","","","","","","","","","","","","perceptual","","","2","4","","","","","108","phone","10","0","0",""
"","","","","","","","","","","","canvas-button-response","213","832106","0.0-213.0","604","0","","","","","","","","","","","","","","confidence","","","2","4","","","","","","","","","","3"
"","","","","","","","","","","","preload","214","832107","0.0-214.0","","","","","true","","","","","","","","","","","preload","","","2","5","false","[]","[]","[]","","","","","",""
"","","","","","","","","","","","canvas-keyboard-response","215","832410","0.0-215.0","null","null","","","","","","","","","","","","","","fixation","","","2","5","","","","","","","","","",""
"","","","","","","","","","","","canvas-keyboard-response","216","832713","0.0-216.0","null","null","","","","","","","","","","","","","","stimulus","","","2","5","","","","","","","","","",""
"","","","","","","","","","","","canvas-button-response","217","835762","0.0-217.0","3045","house","","","","","","","","","","","","","","perceptual","","","2","5","","","","","133","bed","6","0","0",""
"","","","","","","","","","","","canvas-button-response","218","837756","0.0-218.0","1992","4","","","","","","","","","","","","","","confidence","","","2","5","","","","","","","","","","3"
"","","","","","","","","","","","preload","219","837757","0.0-219.0","","","","","true","","","","","","","","","","","preload","","","2","6","false","[]","[]","[]","","","","","",""
"","","","","","","","","","","","canvas-keyboard-response","220","838060","0.0-220.0","null","null","","","","","","","","","","","","","","fixation","","","2","6","","","","","","","","","",""
"","","","","","","","","","","","canvas-keyboard-response","221","838364","0.0-221.0","null","null","","","","","","","","","","","","","","stimulus","","","2","6","","","","","","","","","",""
"","","","","","","","","","","","canvas-button-response","222","841747","0.0-222.0","3380","bridge","","","","","","","","","","","","","","perceptual","","","2","6","","","","","328","elephant","6","0","0",""
"","","","","","","","","","","","canvas-button-response","223","842571","0.0-223.0","822","2","","","","","","","","","","","","","","confidence","","","2","6","","","","","","","","","","3"
"","","","","","","","","","","","preload","224","842571","0.0-224.0","","","","","true","","","","","","","","","","","preload","","","2","7","false","[]","[]","[]","","","","","",""
"","","","","","","","","","","","canvas-keyboard-response","225","842874","0.0-225.0","null","null","","","","","","","","","","","","","","fixation","","","2","7","","","","","","","","","",""
"","","","","","","","","","","","canvas-keyboard-response","226","843176","0.0-226.0","null","null","","","","","","","","","","","","","","stimulus","","","2","7","","","","","","","","","",""
"","","","","","","","","","","","canvas-button-response","227","847798","0.0-227.0","4618","house","","","","","","","","","","","","","","perceptual","","","2","7","","","","","332","elephant","6","0","0",""
"","","","","","","","","","","","canvas-button-response","228","848960","0.0-228.0","1160","2","","","","","","","","","","","","","","confidence","","","2","7","","","","","","","","","","3"
"","","","","","","","","","","","preload","229","848962","0.0-229.0","","","","","true","","","","","","","","","","","preload","","","2","8","false","[]","[]","[]","","","","","",""
"","","","","","","","","","","","canvas-keyboard-response","230","849264","0.0-230.0","null","null","","","","","","","","","","","","","","fixation","","","2","8","","","","","","","","","",""
"","","","","","","","","","","","canvas-keyboard-response","231","849567","0.0-231.0","null","null","","","","","","","","","","","","","","stimulus","","","2","8","","","","","","","","","",""
"","","","","","","","","","","","canvas-button-response","232","850684","0.0-232.0","1115","bed","","","","","","","","","","","","","","perceptual","","","2","8","","","","","147","bed","10","0","1",""
"","","","","","","","","","","","canvas-button-response","233","852141","0.0-233.0","1454","7","","","","","","","","","","","","","","confidence","","","2","8","","","","","","","","","","4"
"","","","","","","","","","","","preload","234","852142","0.0-234.0","","","","","true","","","","","","","","","","","preload","","","2","9","false","[]","[]","[]","","","","","",""
"","","","","","","","","","","","canvas-keyboard-response","235","852444","0.0-235.0","null","null","","","","","","","","","","","","","","fixation","","","2","9","","","","","","","","","",""
"","","","","","","","","","","","canvas-keyboard-response","236","852747","0.0-236.0","null","null","","","","","","","","","","","","","","stimulus","","","2","9","","","","","","","","","",""
"","","","","","","","","","","","canvas-button-response","237","853522","0.0-237.0","772","car","","","","","","","","","","","","","","perceptual","","","2","9","","","","","67","car","10","0","1",""
"","","","","","","","","","","","canvas-button-response","238","854635","0.0-238.0","1111","9","","","","","","","","","","","","","","confidence","","","2","9","","","","","","","","","","5"
"","","","","","","","","","","","preload","239","854636","0.0-239.0","","","","","true","","","","","","","","","","","preload","","","2","10","false","[]","[]","[]","","","","","",""
"","","","","","","","","","","","canvas-keyboard-response","240","854939","0.0-240.0","null","null","","","","","","","","","","","","","","fixation","","","2","10","","","","","","","","","",""
"","","","","","","","","","","","canvas-keyboard-response","241","855242","0.0-241.0","null","null","","","","","","","","","","","","","","stimulus","","","2","10","","","","","","","","","",""
"","","","","","","","","","","","canvas-button-response","242","860258","0.0-242.0","5013","house","","","","","","","","","","","","","","perceptual","","","2","10","","","","","92","phone","6","0","0",""
"","","","","","","","","","","","canvas-button-response","243","861541","0.0-243.0","1281","7","","","","","","","","","","","","","","confidence","","","2","10","","","","","","","","","","5"
"","","","","","","","","","","","preload","244","861543","0.0-244.0","","","","","true","","","","","","","","","","","preload","","","2","11","false","[]","[]","[]","","","","","",""
"","","","","","","","","","","","canvas-keyboard-response","245","861845","0.0-245.0","null","null","","","","","","","","","","","","","","fixation","","","2","11","","","","","","","","","",""
"","","","","","","","","","","","canvas-keyboard-response","246","862148","0.0-246.0","null","null","","","","","","","","","","","","","","stimulus","","","2","11","","","","","","","","","",""
"","","","","","","","","","","","canvas-button-response","247","863120","0.0-247.0","969","knife","","","","","","","","","","","","","","perceptual","","","2","11","","","","","385","knife","10","0","1",""
"","","","","","","","","","","","canvas-button-response","248","864003","0.0-248.0","880","9","","","","","","","","","","","","","","confidence","","","2","11","","","","","","","","","","6"
"","","","","","","","","","","","preload","249","864004","0.0-249.0","","","","","true","","","","","","","","","","","preload","","","2","12","false","[]","[]","[]","","","","","",""
"","","","","","","","","","","","canvas-keyboard-response","250","864307","0.0-250.0","null","null","","","","","","","","","","","","","","fixation","","","2","12","","","","","","","","","",""
"","","","","","","","","","","","canvas-keyboard-response","251","864610","0.0-251.0","null","null","","","","","","","","","","","","","","stimulus","","","2","12","","","","","","","","","",""
"","","","","","","","","","","","canvas-button-response","252","866520","0.0-252.0","1907","bridge","","","","","","","","","","","","","","perceptual","","","2","12","","","","","165","bridge","6","0","1",""
"","","","","","","","","","","","canvas-button-response","253","867754","0.0-253.0","1232","10","","","","","","","","","","","","","","confidence","","","2","12","","","","","","","","","","7"
"","","","","","","","","","","","preload","254","867756","0.0-254.0","","","","","true","","","","","","","","","","","preload","","","2","13","false","[]","[]","[]","","","","","",""
"","","","","","","","","","","","canvas-keyboard-response","255","868057","0.0-255.0","null","null","","","","","","","","","","","","","","fixation","","","2","13","","","","","","","","","",""
"","","","","","","","","","","","canvas-keyboard-response","256","868360","0.0-256.0","null","null","","","","","","","","","","","","","","stimulus","","","2","13","","","","","","","","","",""
"","","","","","","","","","","","canvas-button-response","257","869487","0.0-257.0","1124","flower","","","","","","","","","","","","","","perceptual","","","2","13","","","","","226","flower","10","0","1",""
"","","","","","","","","","","","canvas-button-response","258","870566","0.0-258.0","1076","9","","","","","","","","","","","","","","confidence","","","2","13","","","","","","","","","","8"
"","","","","","","","","","","","preload","259","870567","0.0-259.0","","","","","true","","","","","","","","","","","preload","","","2","14","false","[]","[]","[]","","","","","",""
"","","","","","","","","","","","canvas-keyboard-response","260","870869","0.0-260.0","null","null","","","","","","","","","","","","","","fixation","","","2","14","","","","","","","","","",""
"","","","","","","","","","","","canvas-keyboard-response","261","871173","0.0-261.0","null","null","","","","","","","","","","","","","","stimulus","","","2","14","","","","","","","","","",""
"","","","","","","","","","","","canvas-button-response","262","873429","0.0-262.0","2254","cat","","","","","","","","","","","","","","perceptual","","","2","14","","","","","286","cat","6","0","1",""
"","","","","","","","","","","","canvas-button-response","263","874386","0.0-263.0","955","2","","","","","","","","","","","","","","confidence","","","2","14","","","","","","","","","","9"
"","","","","","","","","","","","preload","264","874387","0.0-264.0","","","","","true","","","","","","","","","","","preload","","","2","15","false","[]","[]","[]","","","","","",""
"","","","","","","","","","","","canvas-keyboard-response","265","874690","0.0-265.0","null","null","","","","","","","","","","","","","","fixation","","","2","15","","","","","","","","","",""
"","","","","","","","","","","","canvas-keyboard-response","266","874993","0.0-266.0","null","null","","","","","","","","","","","","","","stimulus","","","2","15","","","","","","","","","",""
"","","","","","","","","","","","canvas-button-response","267","876584","0.0-267.0","1588","bridge","","","","","","","","","","","","","","perceptual","","","2","15","","","","","169","bridge","6","0","1",""
"","","","","","","","","","","","canvas-button-response","268","877729","0.0-268.0","1143","10","","","","","","","","","","","","","","confidence","","","2","15","","","","","","","","","","10"
"","","","","","","","","","","","preload","269","877730","0.0-269.0","","","","","true","","","","","","","","","","","preload","","","2","16","false","[]","[]","[]","","","","","",""
"","","","","","","","","","","","canvas-keyboard-response","270","878032","0.0-270.0","null","null","","","","","","","","","","","","","","fixation","","","2","16","","","","","","","","","",""
"","","","","","","","","","","","canvas-keyboard-response","271","878335","0.0-271.0","null","null","","","","","","","","","","","","","","stimulus","","","2","16","","","","","","","","","",""
"","","","","","","","","","","","canvas-button-response","272","879649","0.0-272.0","1310","house","","","","","","","","","","","","","","perceptual","","","2","16","","","","","2","house","6","0","1",""
"","","","","","","","","","","","canvas-button-response","273","880639","0.0-273.0","988","10","","","","","","","","","","","","","","confidence","","","2","16","","","","","","","","","","11"
"","","","","","","","","","","","preload","274","880640","0.0-274.0","","","","","true","","","","","","","","","","","preload","","","2","17","false","[]","[]","[]","","","","","",""
"","","","","","","","","","","","canvas-keyboard-response","275","880942","0.0-275.0","null","null","","","","","","","","","","","","","","fixation","","","2","17","","","","","","","","","",""
"","","","","","","","","","","","canvas-keyboard-response","276","881245","0.0-276.0","null","null","","","","","","","","","","","","","","stimulus","","","2","17","","","","","","","","","",""
"","","","","","","","","","","","canvas-button-response","277","885093","0.0-277.0","3845","house","","","","","","","","","","","","","","perceptual","","","2","17","","","","","353","elephant","10","0","0",""
"","","","","","","","","","","","canvas-button-response","278","886182","0.0-278.0","1087","2","","","","","","","","","","","","","","confidence","","","2","17","","","","","","","","","","11"
"","","","","","","","","","","","preload","279","886183","0.0-279.0","","","","","true","","","","","","","","","","","preload","","","2","18","false","[]","[]","[]","","","","","",""
"","","","","","","","","","","","canvas-keyboard-response","280","886486","0.0-280.0","null","null","","","","","","","","","","","","","","fixation","","","2","18","","","","","","","","","",""
"","","","","","","","","","","","canvas-keyboard-response","281","886789","0.0-281.0","null","null","","","","","","","","","","","","","","stimulus","","","2","18","","","","","","","","","",""
"","","","","","","","","","","","canvas-button-response","282","890049","0.0-282.0","3257","house","","","","","","","","","","","","","","perceptual","","","2","18","","","","","140","bed","10","0","0",""
"","","","","","","","","","","","canvas-button-response","283","892870","0.0-283.0","2818","0","","","","","","","","","","","","","","confidence","","","2","18","","","","","","","","","","11"
"","","","","","","","","","","","preload","284","892871","0.0-284.0","","","","","true","","","","","","","","","","","preload","","","2","19","false","[]","[]","[]","","","","","",""
"","","","","","","","","","","","canvas-keyboard-response","285","893173","0.0-285.0","null","null","","","","","","","","","","","","","","fixation","","","2","19","","","","","","","","","",""
"","","","","","","","","","","","canvas-keyboard-response","286","893476","0.0-286.0","null","null","","","","","","","","","","","","","","stimulus","","","2","19","","","","","","","","","",""
"","","","","","","","","","","","canvas-button-response","287","894945","0.0-287.0","1466","phone","","","","","","","","","","","","","","perceptual","","","2","19","","","","","86","phone","6","0","1",""
"","","","","","","","","","","","canvas-button-response","288","895926","0.0-288.0","979","7","","","","","","","","","","","","","","confidence","","","2","19","","","","","","","","","","12"
"","","","","","","","","","","","preload","289","895928","0.0-289.0","","","","","true","","","","","","","","","","","preload","","","2","20","false","[]","[]","[]","","","","","",""
"","","","","","","","","","","","canvas-keyboard-response","290","896231","0.0-290.0","null","null","","","","","","","","","","","","","","fixation","","","2","20","","","","","","","","","",""
"","","","","","","","","","","","canvas-keyboard-response","291","896534","0.0-291.0","null","null","","","","","","","","","","","","","","stimulus","","","2","20","","","","","","","","","",""
"","","","","","","","","","","","canvas-button-response","292","898755","0.0-292.0","2219","bridge","","","","","","","","","","","","","","perceptual","","","2","20","","","","","143","bed","10","0","0",""
"","","","","","","","","","","","canvas-button-response","293","899705","0.0-293.0","948","1","","","","","","","","","","","","","","confidence","","","2","20","","","","","","","","","","12"
"","","","","","","","","","","","preload","294","899706","0.0-294.0","","","","","true","","","","","","","","","","","preload","","","2","21","false","[]","[]","[]","","","","","",""
"","","","","","","","","","","","canvas-keyboard-response","295","900008","0.0-295.0","null","null","","","","","","","","","","","","","","fixation","","","2","21","","","","","","","","","",""
"","","","","","","","","","","","canvas-keyboard-response","296","900312","0.0-296.0","null","null","","","","","","","","","","","","","","stimulus","","","2","21","","","","","","","","","",""
"","","","","","","","","","","","canvas-button-response","297","903401","0.0-297.0","3086","knife","","","","","","","","","","","","","","perceptual","","","2","21","","","","","316","cat","10","0","0",""
"","","","","","","","","","","","canvas-button-response","298","904595","0.0-298.0","1192","1","","","","","","","","","","","","","","confidence","","","2","21","","","","","","","","","","12"
"","","","","","","","","","","","preload","299","904596","0.0-299.0","","","","","true","","","","","","","","","","","preload","","","2","22","false","[]","[]","[]","","","","","",""
"","","","","","","","","","","","canvas-keyboard-response","300","904899","0.0-300.0","null","null","","","","","","","","","","","","","","fixation","","","2","22","","","","","","","","","",""
"","","","","","","","","","","","canvas-keyboard-response","301","905202","0.0-301.0","null","null","","","","","","","","","","","","","","stimulus","","","2","22","","","","","","","","","",""
"","","","","","","","","","","","canvas-button-response","302","907627","0.0-302.0","2422","house","","","","","","","","","","","","","","perceptual","","","2","22","","","","","22","house","10","0","1",""
"","","","","","","","","","","","canvas-button-response","303","909092","0.0-303.0","1463","0","","","","","","","","","","","","","","confidence","","","2","22","","","","","","","","","","13"
"","","","","","","","","","","","preload","304","909093","0.0-304.0","","","","","true","","","","","","","","","","","preload","","","2","23","false","[]","[]","[]","","","","","",""
"","","","","","","","","","","","canvas-keyboard-response","305","909395","0.0-305.0","null","null","","","","","","","","","","","","","","fixation","","","2","23","","","","","","","","","",""
"","","","","","","","","","","","canvas-keyboard-response","306","909699","0.0-306.0","null","null","","","","","","","","","","","","","","stimulus","","","2","23","","","","","","","","","",""
"","","","","","","","","","","","canvas-button-response","307","912174","0.0-307.0","2473","knife","","","","","","","","","","","","","","perceptual","","","2","23","","","","","389","knife","10","0","1",""
"","","","","","","","","","","","canvas-button-response","308","915094","0.0-308.0","2917","2","","","","","","","","","","","","","","confidence","","","2","23","","","","","","","","","","14"
"","","","","","","","","","","","preload","309","915095","0.0-309.0","","","","","true","","","","","","","","","","","preload","","","2","24","false","[]","[]","[]","","","","","",""
"","","","","","","","","","","","canvas-keyboard-response","310","915398","0.0-310.0","null","null","","","","","","","","","","","","","","fixation","","","2","24","","","","","","","","","",""
"","","","","","","","","","","","canvas-keyboard-response","311","915702","0.0-311.0","null","null","","","","","","","","","","","","","","stimulus","","","2","24","","","","","","","","","",""
"","","","","","","","","","","","canvas-button-response","312","916654","0.0-312.0","949","car","","","","","","","","","","","","","","perceptual","","","2","24","","","","","56","car","6","0","1",""
"","","","","","","","","","","","canvas-button-response","313","917880","0.0-313.0","1224","10","","","","","","","","","","","","","","confidence","","","2","24","","","","","","","","","","15"
"","","","","","","","","","","","preload","314","917881","0.0-314.0","","","","","true","","","","","","","","","","","preload","","","2","25","false","[]","[]","[]","","","","","",""
"","","","","","","","","","","","canvas-keyboard-response","315","918184","0.0-315.0","null","null","","","","","","","","","","","","","","fixation","","","2","25","","","","","","","","","",""
"","","","","","","","","","","","canvas-keyboard-response","316","918486","0.0-316.0","null","null","","","","","","","","","","","","","","stimulus","","","2","25","","","","","","","","","",""
"","","","","","","","","","","","canvas-button-response","317","920339","0.0-317.0","1851","cat","","","","","","","","","","","","","","perceptual","","","2","25","","","","","347","elephant","10","0","0",""
"","","","","","","","","","","","canvas-button-response","318","921557","0.0-318.0","1216","0","","","","","","","","","","","","","","confidence","","","2","25","","","","","","","","","","15"
"","","","","","","","","","","","preload","319","921559","0.0-319.0","","","","","true","","","","","","","","","","","preload","","","2","26","false","[]","[]","[]","","","","","",""
"","","","","","","","","","","","canvas-keyboard-response","320","921861","0.0-320.0","null","null","","","","","","","","","","","","","","fixation","","","2","26","","","","","","","","","",""
"","","","","","","","","","","","canvas-keyboard-response","321","922164","0.0-321.0","null","null","","","","","","","","","","","","","","stimulus","","","2","26","","","","","","","","","",""
"","","","","","","","","","","","canvas-button-response","322","925604","0.0-322.0","3437","bridge","","","","","","","","","","","","","","perceptual","","","2","26","","","","","160","bridge","6","0","1",""
"","","","","","","","","","","","canvas-button-response","323","927354","0.0-323.0","1748","5","","","","","","","","","","","","","","confidence","","","2","26","","","","","","","","","","16"
"","","","","","","","","","","","preload","324","927355","0.0-324.0","","","","","true","","","","","","","","","","","preload","","","2","27","false","[]","[]","[]","","","","","",""
"","","","","","","","","","","","canvas-keyboard-response","325","927658","0.0-325.0","null","null","","","","","","","","","","","","","","fixation","","","2","27","","","","","","","","","",""
"","","","","","","","","","","","canvas-keyboard-response","326","927961","0.0-326.0","null","null","","","","","","","","","","","","","","stimulus","","","2","27","","","","","","","","","",""
"","","","","","","","","","","","canvas-button-response","327","928833","0.0-327.0","870","car","","","","","","","","","","","","","","perceptual","","","2","27","","","","","58","car","6","0","1",""
"","","","","","","","","","","","canvas-button-response","328","929854","0.0-328.0","1019","9","","","","","","","","","","","","","","confidence","","","2","27","","","","","","","","","","17"
"","","","","","","","","","","","preload","329","929856","0.0-329.0","","","","","true","","","","","","","","","","","preload","","","2","28","false","[]","[]","[]","","","","","",""
"","","","","","","","","","","","canvas-keyboard-response","330","930158","0.0-330.0","null","null","","","","","","","","","","","","","","fixation","","","2","28","","","","","","","","","",""
"","","","","","","","","","","","canvas-keyboard-response","331","930461","0.0-331.0","null","null","","","","","","","","","","","","","","stimulus","","","2","28","","","","","","","","","",""
"","","","","","","","","","","","canvas-button-response","332","932707","0.0-332.0","2244","phone","","","","","","","","","","","","","","perceptual","","","2","28","","","","","19","house","6","0","0",""
"","","","","","","","","","","","canvas-button-response","333","933631","0.0-333.0","922","1","","","","","","","","","","","","","","confidence","","","2","28","","","","","","","","","","17"
"","","","","","","","","","","","preload","334","933632","0.0-334.0","","","","","true","","","","","","","","","","","preload","","","2","29","false","[]","[]","[]","","","","","",""
"","","","","","","","","","","","canvas-keyboard-response","335","933934","0.0-335.0","null","null","","","","","","","","","","","","","","fixation","","","2","29","","","","","","","","","",""
"","","","","","","","","","","","canvas-keyboard-response","336","934237","0.0-336.0","null","null","","","","","","","","","","","","","","stimulus","","","2","29","","","","","","","","","",""
"","","","","","","","","","","","canvas-button-response","337","935190","0.0-337.0","951","bridge","","","","","","","","","","","","","","perceptual","","","2","29","","","","","172","bridge","6","0","1",""
"","","","","","","","","","","","canvas-button-response","338","936081","0.0-338.0","890","10","","","","","","","","","","","","","","confidence","","","2","29","","","","","","","","","","18"
"","","","","","","","","","","","preload","339","936081","0.0-339.0","","","","","true","","","","","","","","","","","preload","","","2","30","false","[]","[]","[]","","","","","",""
"","","","","","","","","","","","canvas-keyboard-response","340","936383","0.0-340.0","null","null","","","","","","","","","","","","","","fixation","","","2","30","","","","","","","","","",""
"","","","","","","","","","","","canvas-keyboard-response","341","936686","0.0-341.0","null","null","","","","","","","","","","","","","","stimulus","","","2","30","","","","","","","","","",""
"","","","","","","","","","","","canvas-button-response","342","937604","0.0-342.0","917","house","","","","","","","","","","","","","","perceptual","","","2","30","","","","","3","house","6","0","1",""
"","","","","","","","","","","","canvas-button-response","343","938405","0.0-343.0","799","10","","","","","","","","","","","","","","confidence","","","2","30","","","","","","","","","","19"
"","","","","","","","","","","","preload","344","938406","0.0-344.0","","","","","true","","","","","","","","","","","preload","","","2","31","false","[]","[]","[]","","","","","",""
"","","","","","","","","","","","canvas-keyboard-response","345","938709","0.0-345.0","null","null","","","","","","","","","","","","","","fixation","","","2","31","","","","","","","","","",""
"","","","","","","","","","","","canvas-keyboard-response","346","939011","0.0-346.0","null","null","","","","","","","","","","","","","","stimulus","","","2","31","","","","","","","","","",""
"","","","","","","","","","","","canvas-button-response","347","941012","0.0-347.0","1999","car","","","","","","","","","","","","","","perceptual","","","2","31","","","","","346","elephant","10","0","0",""
"","","","","","","","","","","","canvas-button-response","348","941682","0.0-348.0","668","0","","","","","","","","","","","","","","confidence","","","2","31","","","","","","","","","","19"
"","","","","","","","","","","","preload","349","941684","0.0-349.0","","","","","true","","","","","","","","","","","preload","","","2","32","false","[]","[]","[]","","","","","",""
"","","","","","","","","","","","canvas-keyboard-response","350","941986","0.0-350.0","null","null","","","","","","","","","","","","","","fixation","","","2","32","","","","","","","","","",""
"","","","","","","","","","","","canvas-keyboard-response","351","942289","0.0-351.0","null","null","","","","","","","","","","","","","","stimulus","","","2","32","","","","","","","","","",""
"","","","","","","","","","","","canvas-button-response","352","943841","0.0-352.0","1550","bridge","","","","","","","","","","","","","","perceptual","","","2","32","","","","","323","elephant","6","0","0",""
"","","","","","","","","","","","canvas-button-response","353","944938","0.0-353.0","1094","2","","","","","","","","","","","","","","confidence","","","2","32","","","","","","","","","","19"
"","","","","","","","","","","","preload","354","944939","0.0-354.0","","","","","true","","","","","","","","","","","preload","","","2","33","false","[]","[]","[]","","","","","",""
"","","","","","","","","","","","canvas-keyboard-response","355","945242","0.0-355.0","null","null","","","","","","","","","","","","","","fixation","","","2","33","","","","","","","","","",""
"","","","","","","","","","","","canvas-keyboard-response","356","945545","0.0-356.0","null","null","","","","","","","","","","","","","","stimulus","","","2","33","","","","","","","","","",""
"","","","","","","","","","","","canvas-button-response","357","947487","0.0-357.0","1940","train","","","","","","","","","","","","","","perceptual","","","2","33","","","","","261","train","10","0","1",""
"","","","","","","","","","","","canvas-button-response","358","948304","0.0-358.0","815","8","","","","","","","","","","","","","","confidence","","","2","33","","","","","","","","","","20"
"","","","","","","","","","","","preload","359","948305","0.0-359.0","","","","","true","","","","","","","","","","","preload","","","2","34","false","[]","[]","[]","","","","","",""
"","","","","","","","","","","","canvas-keyboard-response","360","948608","0.0-360.0","null","null","","","","","","","","","","","","","","fixation","","","2","34","","","","","","","","","",""
"","","","","","","","","","","","canvas-keyboard-response","361","948910","0.0-361.0","null","null","","","","","","","","","","","","","","stimulus","","","2","34","","","","","","","","","",""
"","","","","","","","","","","","canvas-button-response","362","950306","0.0-362.0","1393","house","","","","","","","","","","","","","","perceptual","","","2","34","","","","","38","house","10","0","1",""
"","","","","","","","","","","","canvas-button-response","363","952269","0.0-363.0","1961","7","","","","","","","","","","","","","","confidence","","","2","34","","","","","","","","","","21"
"","","","","","","","","","","","preload","364","952270","0.0-364.0","","","","","true","","","","","","","","","","","preload","","","2","35","false","[]","[]","[]","","","","","",""
"","","","","","","","","","","","canvas-keyboard-response","365","952572","0.0-365.0","null","null","","","","","","","","","","","","","","fixation","","","2","35","","","","","","","","","",""
"","","","","","","","","","","","canvas-keyboard-response","366","952875","0.0-366.0","null","null","","","","","","","","","","","","","","stimulus","","","2","35","","","","","","","","","",""
"","","","","","","","","","","","canvas-button-response","367","955031","0.0-367.0","2154","bridge","","","","","","","","","","","","","","perceptual","","","2","35","","","","","174","bridge","6","0","1",""
"","","","","","","","","","","","canvas-button-response","368","955808","0.0-368.0","774","10","","","","","","","","","","","","","","confidence","","","2","35","","","","","","","","","","22"
"","","","","","","","","","","","preload","369","955809","0.0-369.0","","","","","true","","","","","","","","","","","preload","","","2","36","false","[]","[]","[]","","","","","",""
"","","","","","","","","","","","canvas-keyboard-response","370","956112","0.0-370.0","null","null","","","","","","","","","","","","","","fixation","","","2","36","","","","","","","","","",""
"","","","","","","","","","","","canvas-keyboard-response","371","956415","0.0-371.0","null","null","","","","","","","","","","","","","","stimulus","","","2","36","","","","","","","","","",""
"","","","","","","","","","","","canvas-button-response","372","957637","0.0-372.0","1220","house","","","","","","","","","","","","","","perceptual","","","2","36","","","","","23","house","10","0","1",""
"","","","","","","","","","","","canvas-button-response","373","958505","0.0-373.0","867","10","","","","","","","","","","","","","","confidence","","","2","36","","","","","","","","","","23"
"","","","","","","","","","","","preload","374","958506","0.0-374.0","","","","","true","","","","","","","","","","","preload","","","2","37","false","[]","[]","[]","","","","","",""
"","","","","","","","","","","","canvas-keyboard-response","375","958808","0.0-375.0","null","null","","","","","","","","","","","","","","fixation","","","2","37","","","","","","","","","",""
"","","","","","","","","","","","canvas-keyboard-response","376","959111","0.0-376.0","null","null","","","","","","","","","","","","","","stimulus","","","2","37","","","","","","","","","",""
"","","","","","","","","","","","canvas-button-response","377","962618","0.0-377.0","3504","house","","","","","","","","","","","","","","perceptual","","","2","37","","","","","345","elephant","10","0","0",""
"","","","","","","","","","","","canvas-button-response","378","963697","0.0-378.0","1077","1","","","","","","","","","","","","","","confidence","","","2","37","","","","","","","","","","23"
"","","","","","","","","","","","preload","379","963698","0.0-379.0","","","","","true","","","","","","","","","","","preload","","","2","38","false","[]","[]","[]","","","","","",""
"","","","","","","","","","","","canvas-keyboard-response","380","964001","0.0-380.0","null","null","","","","","","","","","","","","","","fixation","","","2","38","","","","","","","","","",""
"","","","","","","","","","","","canvas-keyboard-response","381","964304","0.0-381.0","null","null","","","","","","","","","","","","","","stimulus","","","2","38","","","","","","","","","",""
"","","","","","","","","","","","canvas-button-response","382","966034","0.0-382.0","1727","cat","","","","","","","","","","","","","","perceptual","","","2","38","","","","","330","elephant","6","0","0",""
"","","","","","","","","","","","canvas-button-response","383","966770","0.0-383.0","734","1","","","","","","","","","","","","","","confidence","","","2","38","","","","","","","","","","23"
"","","","","","","","","","","","preload","384","966772","0.0-384.0","","","","","true","","","","","","","","","","","preload","","","2","39","false","[]","[]","[]","","","","","",""
"","","","","","","","","","","","canvas-keyboard-response","385","967074","0.0-385.0","null","null","","","","","","","","","","","","","","fixation","","","2","39","","","","","","","","","",""
"","","","","","","","","","","","canvas-keyboard-response","386","967377","0.0-386.0","null","null","","","","","","","","","","","","","","stimulus","","","2","39","","","","","","","","","",""
"","","","","","","","","","","","canvas-button-response","387","968298","0.0-387.0","918","car","","","","","","","","","","","","","","perceptual","","","2","39","","","","","40","car","6","0","1",""
"","","","","","","","","","","","canvas-button-response","388","970007","0.0-388.0","1707","6","","","","","","","","","","","","","","confidence","","","2","39","","","","","","","","","","24"
"","","","","","","","","","","","preload","389","970008","0.0-389.0","","","","","true","","","","","","","","","","","preload","","","2","40","false","[]","[]","[]","","","","","",""
"","","","","","","","","","","","canvas-keyboard-response","390","970311","0.0-390.0","null","null","","","","","","","","","","","","","","fixation","","","2","40","","","","","","","","","",""
"","","","","","","","","","","","canvas-keyboard-response","391","970614","0.0-391.0","null","null","","","","","","","","","","","","","","stimulus","","","2","40","","","","","","","","","",""
"","","","","","","","","","","","canvas-button-response","392","971365","0.0-392.0","749","house","","","","","","","","","","","","","","perceptual","","","2","40","","","","","17","house","6","0","1",""
"","","","","","","","","","","","canvas-button-response","393","972134","0.0-393.0","766","10","","","","","","","","","","","","","","confidence","","","2","40","","","","","","","","","","25"
"","","","","","","","","","","","preload","394","972135","0.0-394.0","","","","","true","","","","","","","","","","","preload","","","2","41","false","[]","[]","[]","","","","","",""
"","","","","","","","","","","","canvas-keyboard-response","395","972437","0.0-395.0","null","null","","","","","","","","","","","","","","fixation","","","2","41","","","","","","","","","",""
"","","","","","","","","","","","canvas-keyboard-response","396","972740","0.0-396.0","null","null","","","","","","","","","","","","","","stimulus","","","2","41","","","","","","","","","",""
"","","","","","","","","","","","canvas-button-response","397","973670","0.0-397.0","927","car","","","","","","","","","","","","","","perceptual","","","2","41","","","","","51","car","6","0","1",""
"","","","","","","","","","","","canvas-button-response","398","974398","0.0-398.0","726","10","","","","","","","","","","","","","","confidence","","","2","41","","","","","","","","","","26"
"","","","","","","","","","","","preload","399","974399","0.0-399.0","","","","","true","","","","","","","","","","","preload","","","2","42","false","[]","[]","[]","","","","","",""
"","","","","","","","","","","","canvas-keyboard-response","400","974701","0.0-400.0","null","null","","","","","","","","","","","","","","fixation","","","2","42","","","","","","","","","",""
"","","","","","","","","","","","canvas-keyboard-response","401","975004","0.0-401.0","null","null","","","","","","","","","","","","","","stimulus","","","2","42","","","","","","","","","",""
"","","","","","","","","","","","canvas-button-response","402","977649","0.0-402.0","2642","house","","","","","","","","","","","","","","perceptual","","","2","42","","","","","104","phone","10","0","0",""
"","","","","","","","","","","","canvas-button-response","403","978410","0.0-403.0","758","10","","","","","","","","","","","","","","confidence","","","2","42","","","","","","","","","","26"
"","","","","","","","","","","","preload","404","978411","0.0-404.0","","","","","true","","","","","","","","","","","preload","","","2","43","false","[]","[]","[]","","","","","",""
"","","","","","","","","","","","canvas-keyboard-response","405","978714","0.0-405.0","null","null","","","","","","","","","","","","","","fixation","","","2","43","","","","","","","","","",""
"","","","","","","","","","","","canvas-keyboard-response","406","979017","0.0-406.0","null","null","","","","","","","","","","","","","","stimulus","","","2","43","","","","","","","","","",""
"","","","","","","","","","","","canvas-button-response","407","980675","0.0-407.0","1655","car","","","","","","","","","","","","","","perceptual","","","2","43","","","","","57","car","6","0","1",""
"","","","","","","","","","","","canvas-button-response","408","981958","0.0-408.0","1281","10","","","","","","","","","","","","","","confidence","","","2","43","","","","","","","","","","27"
"","","","","","","","","","","","preload","409","981959","0.0-409.0","","","","","true","","","","","","","","","","","preload","","","2","44","false","[]","[]","[]","","","","","",""
"","","","","","","","","","","","canvas-keyboard-response","410","982261","0.0-410.0","null","null","","","","","","","","","","","","","","fixation","","","2","44","","","","","","","","","",""
"","","","","","","","","","","","canvas-keyboard-response","411","982564","0.0-411.0","null","null","","","","","","","","","","","","","","stimulus","","","2","44","","","","","","","","","",""
"","","","","","","","","","","","canvas-button-response","412","985114","0.0-412.0","2548","bridge","","","","","","","","","","","","","","perceptual","","","2","44","","","","","152","bed","10","0","0",""
"","","","","","","","","","","","canvas-button-response","413","986202","0.0-413.0","1085","0","","","","","","","","","","","","","","confidence","","","2","44","","","","","","","","","","27"
"","","","","","","","","","","","preload","414","986203","0.0-414.0","","","","","true","","","","","","","","","","","preload","","","2","45","false","[]","[]","[]","","","","","",""
"","","","","","","","","","","","canvas-keyboard-response","415","986506","0.0-415.0","null","null","","","","","","","","","","","","","","fixation","","","2","45","","","","","","","","","",""
"","","","","","","","","","","","canvas-keyboard-response","416","986809","0.0-416.0","null","null","","","","","","","","","","","","","","stimulus","","","2","45","","","","","","","","","",""
"","","","","","","","","","","","canvas-button-response","417","989258","0.0-417.0","2446","house","","","","","","","","","","","","","","perceptual","","","2","45","","","","","24","house","10","0","1",""
"","","","","","","","","","","","canvas-button-response","418","993748","0.0-418.0","4488","5","","","","","","","","","","","","","","confidence","","","2","45","","","","","","","","","","28"
"","","","","","","","","","","","preload","419","993749","0.0-419.0","","","","","true","","","","","","","","","","","preload","","","2","46","false","[]","[]","[]","","","","","",""
"","","","","","","","","","","","canvas-keyboard-response","420","994052","0.0-420.0","null","null","","","","","","","","","","","","","","fixation","","","2","46","","","","","","","","","",""
"","","","","","","","","","","","canvas-keyboard-response","421","994354","0.0-421.0","null","null","","","","","","","","","","","","","","stimulus","","","2","46","","","","","","","","","",""
"","","","","","","","","","","","canvas-button-response","422","1001778","0.0-422.0","7421","bed","","","","","","","","","","","","","","perceptual","","","2","46","","","","","129","bed","6","0","1",""
"","","","","","","","","","","","canvas-button-response","423","1002873","0.0-423.0","1092","3","","","","","","","","","","","","","","confidence","","","2","46","","","","","","","","","","29"
"","","","","","","","","","","","preload","424","1002874","0.0-424.0","","","","","true","","","","","","","","","","","preload","","","2","47","false","[]","[]","[]","","","","","",""
"","","","","","","","","","","","canvas-keyboard-response","425","1003177","0.0-425.0","null","null","","","","","","","","","","","","","","fixation","","","2","47","","","","","","","","","",""
"","","","","","","","","","","","canvas-keyboard-response","426","1003480","0.0-426.0","null","null","","","","","","","","","","","","","","stimulus","","","2","47","","","","","","","","","",""
"","","","","","","","","","","","canvas-button-response","427","1004525","0.0-427.0","1041","knife","","","","","","","","","","","","","","perceptual","","","2","47","","","","","367","knife","6","0","1",""
"","","","","","","","","","","","canvas-button-response","428","1011361","0.0-428.0","6834","10","","","","","","","","","","","","","","confidence","","","2","47","","","","","","","","","","30"
"","","","","","","","","","","","preload","429","1011362","0.0-429.0","","","","","true","","","","","","","","","","","preload","","","2","48","false","[]","[]","[]","","","","","",""
"","","","","","","","","","","","canvas-keyboard-response","430","1011665","0.0-430.0","null","null","","","","","","","","","","","","","","fixation","","","2","48","","","","","","","","","",""
"","","","","","","","","","","","canvas-keyboard-response","431","1011968","0.0-431.0","null","null","","","","","","","","","","","","","","stimulus","","","2","48","","","","","","","","","",""
"","","","","","","","","","","","canvas-button-response","432","1013396","0.0-432.0","1425","knife","","","","","","","","","","","","","","perceptual","","","2","48","","","","","379","knife","6","0","1",""
"","","","","","","","","","","","canvas-button-response","433","1014107","0.0-433.0","709","10","","","","","","","","","","","","","","confidence","","","2","48","","","","","","","","","","31"
"","","","","","","","","","","","preload","434","1014109","0.0-434.0","","","","","true","","","","","","","","","","","preload","","","2","49","false","[]","[]","[]","","","","","",""
"","","","","","","","","","","","canvas-keyboard-response","435","1014411","0.0-435.0","null","null","","","","","","","","","","","","","","fixation","","","2","49","","","","","","","","","",""
"","","","","","","","","","","","canvas-keyboard-response","436","1014714","0.0-436.0","null","null","","","","","","","","","","","","","","stimulus","","","2","49","","","","","","","","","",""
"","","","","","","","","","","","canvas-button-response","437","1016666","0.0-437.0","1949","knife","","","","","","","","","","","","","","perceptual","","","2","49","","","","","363","knife","6","0","1",""
"","","","","","","","","","","","canvas-button-response","438","1018710","0.0-438.0","2042","2","","","","","","","","","","","","","","confidence","","","2","49","","","","","","","","","","32"
"","","","","","","","","","","","html-button-response","439","1129137","0.0-439.0","110425","0","","","","","","","","","","","","","","<p style=""font-size:20px;color:#000000"">You got 32 out of 50 trials correct in this block.<br><br>You have completed 6% of the experiment.<br><br>Take a short break.<br><br>When you are ready, click Continue to proceed.","","","2","49","","","","","","","","","",""
"","","","","","","","","","","","html-keyboard-response","440","1130141","0.0-440.0","null","null","","","","","","","","","","","","","","<p style=""font-size:32px;color:#000000""><br><br> RUN: &nbsp 1/4 <br><br> BLOCK: 2/4 ","","","2","49","","","","","","","","","",""
"","","","","","","","","","","","preload","441","1130142","0.0-441.0","","","","","true","","","","","","","","","","","preload","","","2","50","false","[]","[]","[]","","","","","",""
"","","","","","","","","","","","canvas-keyboard-response","442","1130445","0.0-442.0","null","null","","","","","","","","","","","","","","fixation","","","2","50","","","","","","","","","",""
"","","","","","","","","","","","canvas-keyboard-response","443","1130748","0.0-443.0","null","null","","","","","","","","","","","","","","stimulus","","","2","50","","","","","","","","","",""
"","","","","","","","","","","","canvas-button-response","444","1132049","0.0-444.0","1298","flower","","","","","","","","","","","","","","perceptual","","","2","50","","","","","209","flower","6","0","1",""
"","","","","","","","","","","","canvas-button-response","445","1132832","0.0-445.0","781","10","","","","","","","","","","","","","","confidence","","","2","50","","","","","","","","","","1"
"","","","","","","","","","","","preload","446","1132833","0.0-446.0","","","","","true","","","","","","","","","","","preload","","","2","51","false","[]","[]","[]","","","","","",""
"","","","","","","","","","","","canvas-keyboard-response","447","1133137","0.0-447.0","null","null","","","","","","","","","","","","","","fixation","","","2","51","","","","","","","","","",""
"","","","","","","","","","","","canvas-keyboard-response","448","1133440","0.0-448.0","null","null","","","","","","","","","","","","","","stimulus","","","2","51","","","","","","","","","",""
"","","","","","","","","","","","canvas-button-response","449","1134615","0.0-449.0","1172","phone","","","","","","","","","","","","","","perceptual","","","2","51","","","","","99","phone","6","0","1",""
"","","","","","","","","","","","canvas-button-response","450","1135294","0.0-450.0","677","10","","","","","","","","","","","","","","confidence","","","2","51","","","","","","","","","","2"
"","","","","","","","","","","","preload","451","1135295","0.0-451.0","","","","","true","","","","","","","","","","","preload","","","2","52","false","[]","[]","[]","","","","","",""
"","","","","","","","","","","","canvas-keyboard-response","452","1135598","0.0-452.0","null","null","","","","","","","","","","","","","","fixation","","","2","52","","","","","","","","","",""
"","","","","","","","","","","","canvas-keyboard-response","453","1135901","0.0-453.0","null","null","","","","","","","","","","","","","","stimulus","","","2","52","","","","","","","","","",""
"","","","","","","","","","","","canvas-button-response","454","1136880","0.0-454.0","977","flower","","","","","","","","","","","","","","perceptual","","","2","52","","","","","212","flower","6","0","1",""
"","","","","","","","","","","","canvas-button-response","455","1137934","0.0-455.0","1052","7","","","","","","","","","","","","","","confidence","","","2","52","","","","","","","","","","3"
"","","","","","","","","","","","preload","456","1137935","0.0-456.0","","","","","true","","","","","","","","","","","preload","","","2","53","false","[]","[]","[]","","","","","",""
"","","","","","","","","","","","canvas-keyboard-response","457","1138238","0.0-457.0","null","null","","","","","","","","","","","","","","fixation","","","2","53","","","","","","","","","",""
"","","","","","","","","","","","canvas-keyboard-response","458","1138542","0.0-458.0","null","null","","","","","","","","","","","","","","stimulus","","","2","53","","","","","","","","","",""
"","","","","","","","","","","","canvas-button-response","459","1139584","0.0-459.0","1040","cat","","","","","","","","","","","","","","perceptual","","","2","53","","","","","298","cat","6","0","1",""
"","","","","","","","","","","","canvas-button-response","460","1140289","0.0-460.0","703","10","","","","","","","","","","","","","","confidence","","","2","53","","","","","","","","","","4"
"","","","","","","","","","","","preload","461","1140290","0.0-461.0","","","","","true","","","","","","","","","","","preload","","","2","54","false","[]","[]","[]","","","","","",""
"","","","","","","","","","","","canvas-keyboard-response","462","1140593","0.0-462.0","null","null","","","","","","","","","","","","","","fixation","","","2","54","","","","","","","","","",""
"","","","","","","","","","","","canvas-keyboard-response","463","1140896","0.0-463.0","null","null","","","","","","","","","","","","","","stimulus","","","2","54","","","","","","","","","",""
"","","","","","","","","","","","canvas-button-response","464","1141859","0.0-464.0","960","cat","","","","","","","","","","","","","","perceptual","","","2","54","","","","","60","car","10","0","0",""
"","","","","","","","","","","","canvas-button-response","465","1144140","0.0-465.0","2279","0","","","","","","","","","","","","","","confidence","","","2","54","","","","","","","","","","4"
"","","","","","","","","","","","preload","466","1144141","0.0-466.0","","","","","true","","","","","","","","","","","preload","","","2","55","false","[]","[]","[]","","","","","",""
"","","","","","","","","","","","canvas-keyboard-response","467","1144444","0.0-467.0","null","null","","","","","","","","","","","","","","fixation","","","2","55","","","","","","","","","",""
"","","","","","","","","","","","canvas-keyboard-response","468","1144747","0.0-468.0","null","null","","","","","","","","","","","","","","stimulus","","","2","55","","","","","","","","","",""
"","","","","","","","","","","","canvas-button-response","469","1145685","0.0-469.0","935","car","","","","","","","","","","","","","","perceptual","","","2","55","","","","","45","car","6","0","1",""
"","","","","","","","","","","","canvas-button-response","470","1146594","0.0-470.0","907","10","","","","","","","","","","","","","","confidence","","","2","55","","","","","","","","","","5"
"","","","","","","","","","","","preload","471","1146595","0.0-471.0","","","","","true","","","","","","","","","","","preload","","","2","56","false","[]","[]","[]","","","","","",""
"","","","","","","","","","","","canvas-keyboard-response","472","1146897","0.0-472.0","null","null","","","","","","","","","","","","","","fixation","","","2","56","","","","","","","","","",""
"","","","","","","","","","","","canvas-keyboard-response","473","1147201","0.0-473.0","null","null","","","","","","","","","","","","","","stimulus","","","2","56","","","","","","","","","",""
"","","","","","","","","","","","canvas-button-response","474","1150132","0.0-474.0","2929","bridge","","","","","","","","","","","","","","perceptual","","","2","56","","","","","384","knife","10","0","0",""
"","","","","","","","","","","","canvas-button-response","475","1151195","0.0-475.0","1061","7","","","","","","","","","","","","","","confidence","","","2","56","","","","","","","","","","5"
"","","","","","","","","","","","preload","476","1151197","0.0-476.0","","","","","true","","","","","","","","","","","preload","","","2","57","false","[]","[]","[]","","","","","",""
"","","","","","","","","","","","canvas-keyboard-response","477","1151499","0.0-477.0","null","null","","","","","","","","","","","","","","fixation","","","2","57","","","","","","","","","",""
"","","","","","","","","","","","canvas-keyboard-response","478","1151802","0.0-478.0","null","null","","","","","","","","","","","","","","stimulus","","","2","57","","","","","","","","","",""
"","","","","","","","","","","","canvas-button-response","479","1153942","0.0-479.0","2138","phone","","","","","","","","","","","","","","perceptual","","","2","57","","","","","103","phone","10","0","1",""
"","","","","","","","","","","","canvas-button-response","480","1155251","0.0-480.0","1306","9","","","","","","","","","","","","","","confidence","","","2","57","","","","","","","","","","6"
"","","","","","","","","","","","preload","481","1155252","0.0-481.0","","","","","true","","","","","","","","","","","preload","","","2","58","false","[]","[]","[]","","","","","",""
"","","","","","","","","","","","canvas-keyboard-response","482","1155555","0.0-482.0","null","null","","","","","","","","","","","","","","fixation","","","2","58","","","","","","","","","",""
"","","","","","","","","","","","canvas-keyboard-response","483","1155858","0.0-483.0","null","null","","","","","","","","","","","","","","stimulus","","","2","58","","","","","","","","","",""
"","","","","","","","","","","","canvas-button-response","484","1156942","0.0-484.0","1082","car","","","","","","","","","","","","","","perceptual","","","2","58","","","","","44","car","6","0","1",""
"","","","","","","","","","","","canvas-button-response","485","1157761","0.0-485.0","816","10","","","","","","","","","","","","","","confidence","","","2","58","","","","","","","","","","7"
"","","","","","","","","","","","preload","486","1157762","0.0-486.0","","","","","true","","","","","","","","","","","preload","","","2","59","false","[]","[]","[]","","","","","",""
"","","","","","","","","","","","canvas-keyboard-response","487","1158065","0.0-487.0","null","null","","","","","","","","","","","","","","fixation","","","2","59","","","","","","","","","",""
"","","","","","","","","","","","canvas-keyboard-response","488","1158368","0.0-488.0","null","null","","","","","","","","","","","","","","stimulus","","","2","59","","","","","","","","","",""
"","","","","","","","","","","","canvas-button-response","489","1159993","0.0-489.0","1623","bed","","","","","","","","","","","","","","perceptual","","","2","59","","","","","127","bed","6","0","1",""
"","","","","","","","","","","","canvas-button-response","490","1161113","0.0-490.0","1118","7","","","","","","","","","","","","","","confidence","","","2","59","","","","","","","","","","8"
"","","","","","","","","","","","preload","491","1161115","0.0-491.0","","","","","true","","","","","","","","","","","preload","","","2","60","false","[]","[]","[]","","","","","",""
