"width","height","webaudio","browser","browser_version","mobile","os","fullscreen","vsync_rate","webcam","microphone","trial_type","trial_index","time_elapsed","internal_node_id","rt","response","accuracy","view_history","success","item_width_mm","item_height_mm","item_width_px","px2mm","view_dist_mm","item_width_deg","px2deg","scale_factor","win_width_deg","win_height_deg","stimulus","datetime","subjectID","curr_triallist","trial_no","timeout","failed_images","failed_audio","failed_video","image_index","category","blur","reps","correct","running_score"
"1280","665","true","chrome","140.0.0","false","Windows 10","true","60.31","true","true","browser-check","0","999","0.0-0.0","","","","","","","","","","","","","","","","","","","","","","","","","","","","","",""
"","","","","","","","","","","","survey","1","27170","0.0-1.0","26133","{""P0_Q0"":""904071369"",""P0_Q1"":""18"",""P1_Q0"":""Male"",""P1_Q1"":""Not Hispanic or Latino"",""P1_Q2"":""Asian"",""P1_Q3"":""Normal"",""P1_Q4"":""Right-Handed""}","[]","","","","","","","","","","","","","","","","","","","","","","","","","","",""
"","","","","","","","","","","","instructions","2","30365","0.0-2.0","3193","","","[{""page_index"":0,""viewing_time"":1672},{""page_index"":1,""viewing_time"":417},{""page_index"":2,""viewing_time"":600},{""page_index"":3,""viewing_time"":504}]","","","","","","","","","","","","","","","","","","","","","","","","","",""
"","","","","","","","","","","","fullscreen","3","33126","0.0-3.0","1754","","","","true","","","","","","","","","","","","","","","","","","","","","","","","",""
"","","","","","","","","","","","virtual-chinrest","4","80886","0.0-4.0","47758","","","","","85.6","53.98","343.9688217604363","4.016119484840259","426.33","11.465627392014543","30","1.058235447436904","42.666666666666664","26.666666666666668","","","","","","","","","","","","","","",""
"","","","","","","","","","","","instructions","5","148931","0.0-5.0","68044","","","[{""page_index"":0,""viewing_time"":4617},{""page_index"":1,""viewing_time"":752},{""page_index"":0,""viewing_time"":2085},{""page_index"":1,""viewing_time"":4676},{""page_index"":2,""viewing_time"":13443},{""page_index"":3,""viewing_time"":5045},{""page_index"":4,""viewing_time"":7818},{""page_index"":5,""viewing_time"":17173},{""page_index"":6,""viewing_time"":12437}]","","","","","","","","","","","","","","","","","","","","","","","","","",""
"","","","","","","","","","","","html-button-response","6","156156","0.0-6.0","7221","0","","","","","","","","","","","","","","start_practice","Mon Oct 13 2025 21:11:45 GMT-0400 (북미 동부 하계 표준시)","26875","","","","","","","","","","","",""
"","","","","","","","","","","","preload","7","156157","0.0-7.0","","","","","true","","","","","","","","","","","preload","","","0","0","false","[]","[]","[]","","","","","",""
"","","","","","","","","","","","canvas-keyboard-response","8","156459","0.0-8.0","null","null","","","","","","","","","","","","","","fixation","","","0","0","","","","","","","","","",""
"","","","","","","","","","","","canvas-keyboard-response","9","156770","0.0-9.0","null","null","","","","","","","","","","","","","","stimulus","","","0","0","","","","","","","","","",""
"","","","","","","","","","","","canvas-button-response","10","159108","0.0-10.0","2337","phone","","","","","","","","","","","","","","perceptual","","","0","0","","","","","22","phone","1","","1",""
"","","","","","","","","","","","canvas-button-response","11","162067","0.0-11.0","2957","10","","","","","","","","","","","","","","confidence","","","0","0","","","","","","","","","","1"
"","","","","","","","","","","","html-keyboard-response","12","163072","0.0-12.0","null","null","","","","","","","","","","","","","","feedback","Mon Oct 13 2025 21:11:59 GMT-0400 (북미 동부 하계 표준시)","26875","0","0","","","","","","","","","",""
"","","","","","","","","","","","preload","13","163073","0.0-13.0","","","","","true","","","","","","","","","","","preload","","","0","1","false","[]","[]","[]","","","","","",""
"","","","","","","","","","","","canvas-keyboard-response","14","163379","0.0-14.0","null","null","","","","","","","","","","","","","","fixation","","","0","1","","","","","","","","","",""
"","","","","","","","","","","","canvas-keyboard-response","15","163690","0.0-15.0","null","null","","","","","","","","","","","","","","stimulus","","","0","1","","","","","","","","","",""
"","","","","","","","","","","","canvas-button-response","16","164806","0.0-16.0","1114","car","","","","","","","","","","","","","","perceptual","","","0","1","","","","","12","car","1","","1",""
"","","","","","","","","","","","canvas-button-response","17","165916","0.0-17.0","1109","10","","","","","","","","","","","","","","confidence","","","0","1","","","","","","","","","","2"
"","","","","","","","","","","","html-keyboard-response","18","166923","0.0-18.0","null","null","","","","","","","","","","","","","","feedback","Mon Oct 13 2025 21:12:02 GMT-0400 (북미 동부 하계 표준시)","26875","0","1","","","","","","","","","",""
"","","","","","","","","","","","preload","19","166924","0.0-19.0","","","","","true","","","","","","","","","","","preload","","","0","2","false","[]","[]","[]","","","","","",""
"","","","","","","","","","","","canvas-keyboard-response","20","167233","0.0-20.0","null","null","","","","","","","","","","","","","","fixation","","","0","2","","","","","","","","","",""
"","","","","","","","","","","","canvas-keyboard-response","21","167538","0.0-21.0","null","null","","","","","","","","","","","","","","stimulus","","","0","2","","","","","","","","","",""
"","","","","","","","","","","","canvas-button-response","22","171620","0.0-22.0","4080","knife","","","","","","","","","","","","","","perceptual","","","0","2","","","","","92","knife","1","","1",""
"","","","","","","","","","","","canvas-button-response","23","172600","0.0-23.0","978","6","","","","","","","","","","","","","","confidence","","","0","2","","","","","","","","","","3"
"","","","","","","","","","","","html-keyboard-response","24","173605","0.0-24.0","null","null","","","","","","","","","","","","","","feedback","Mon Oct 13 2025 21:12:09 GMT-0400 (북미 동부 하계 표준시)","26875","0","2","","","","","","","","","",""
"","","","","","","","","","","","preload","25","173605","0.0-25.0","","","","","true","","","","","","","","","","","preload","","","0","3","false","[]","[]","[]","","","","","",""
"","","","","","","","","","","","canvas-keyboard-response","26","173921","0.0-26.0","null","null","","","","","","","","","","","","","","fixation","","","0","3","","","","","","","","","",""
"","","","","","","","","","","","canvas-keyboard-response","27","174227","0.0-27.0","null","null","","","","","","","","","","","","","","stimulus","","","0","3","","","","","","","","","",""
"","","","","","","","","","","","canvas-button-response","28","175461","0.0-28.0","1232","bridge","","","","","","","","","","","","","","perceptual","","","0","3","","","","","42","bridge","1","","1",""
"","","","","","","","","","","","canvas-button-response","29","176462","0.0-29.0","1000","10","","","","","","","","","","","","","","confidence","","","0","3","","","","","","","","","","4"
"","","","","","","","","","","","html-keyboard-response","30","177473","0.0-30.0","null","null","","","","","","","","","","","","","","feedback","Mon Oct 13 2025 21:12:13 GMT-0400 (북미 동부 하계 표준시)","26875","0","3","","","","","","","","","",""
"","","","","","","","","","","","preload","31","177474","0.0-31.0","","","","","true","","","","","","","","","","","preload","","","0","4","false","[]","[]","[]","","","","","",""
"","","","","","","","","","","","canvas-keyboard-response","32","177783","0.0-32.0","null","null","","","","","","","","","","","","","","fixation","","","0","4","","","","","","","","","",""
"","","","","","","","","","","","canvas-keyboard-response","33","178094","0.0-33.0","null","null","","","","","","","","","","","","","","stimulus","","","0","4","","","","","","","","","",""
"","","","","","","","","","","","canvas-button-response","34","179712","0.0-34.0","1616","bed","","","","","","","","","","","","","","perceptual","","","0","4","","","","","32","bed","1","","1",""
"","","","","","","","","","","","canvas-button-response","35","180750","0.0-35.0","1036","10","","","","","","","","","","","","","","confidence","","","0","4","","","","","","","","","","5"
"","","","","","","","","","","","html-keyboard-response","36","181758","0.0-36.0","null","null","","","","","","","","","","","","","","feedback","Mon Oct 13 2025 21:12:17 GMT-0400 (북미 동부 하계 표준시)","26875","0","4","","","","","","","","","",""
"","","","","","","","","","","","preload","37","181758","0.0-37.0","","","","","true","","","","","","","","","","","preload","","","0","5","false","[]","[]","[]","","","","","",""
"","","","","","","","","","","","canvas-keyboard-response","38","182069","0.0-38.0","null","null","","","","","","","","","","","","","","fixation","","","0","5","","","","","","","","","",""
"","","","","","","","","","","","canvas-keyboard-response","39","182375","0.0-39.0","null","null","","","","","","","","","","","","","","stimulus","","","0","5","","","","","","","","","",""
"","","","","","","","","","","","canvas-button-response","40","183464","0.0-40.0","1087","cat","","","","","","","","","","","","","","perceptual","","","0","5","","","","","72","cat","1","","1",""
"","","","","","","","","","","","canvas-button-response","41","184356","0.0-41.0","891","10","","","","","","","","","","","","","","confidence","","","0","5","","","","","","","","","","6"
"","","","","","","","","","","","html-keyboard-response","42","185372","0.0-42.0","null","null","","","","","","","","","","","","","","feedback","Mon Oct 13 2025 21:12:21 GMT-0400 (북미 동부 하계 표준시)","26875","0","5","","","","","","","","","",""
"","","","","","","","","","","","preload","43","185373","0.0-43.0","","","","","true","","","","","","","","","","","preload","","","0","6","false","[]","[]","[]","","","","","",""
"","","","","","","","","","","","canvas-keyboard-response","44","185679","0.0-44.0","null","null","","","","","","","","","","","","","","fixation","","","0","6","","","","","","","","","",""
"","","","","","","","","","","","canvas-keyboard-response","45","185985","0.0-45.0","null","null","","","","","","","","","","","","","","stimulus","","","0","6","","","","","","","","","",""
"","","","","","","","","","","","canvas-button-response","46","188753","0.0-46.0","2766","train","","","","","","","","","","","","","","perceptual","","","0","6","","","","","62","train","1","","1",""
"","","","","","","","","","","","canvas-button-response","47","189666","0.0-47.0","911","10","","","","","","","","","","","","","","confidence","","","0","6","","","","","","","","","","7"
"","","","","","","","","","","","html-keyboard-response","48","190677","0.0-48.0","null","null","","","","","","","","","","","","","","feedback","Mon Oct 13 2025 21:12:26 GMT-0400 (북미 동부 하계 표준시)","26875","0","6","","","","","","","","","",""
"","","","","","","","","","","","preload","49","190677","0.0-49.0","","","","","true","","","","","","","","","","","preload","","","0","7","false","[]","[]","[]","","","","","",""
"","","","","","","","","","","","canvas-keyboard-response","50","190983","0.0-50.0","null","null","","","","","","","","","","","","","","fixation","","","0","7","","","","","","","","","",""
"","","","","","","","","","","","canvas-keyboard-response","51","191298","0.0-51.0","null","null","","","","","","","","","","","","","","stimulus","","","0","7","","","","","","","","","",""
"","","","","","","","","","","","canvas-button-response","52","192920","0.0-52.0","1619","house","","","","","","","","","","","","","","perceptual","","","0","7","","","","","2","house","1","","1",""
"","","","","","","","","","","","canvas-button-response","53","194201","0.0-53.0","1278","10","","","","","","","","","","","","","","confidence","","","0","7","","","","","","","","","","8"
"","","","","","","","","","","","html-keyboard-response","54","195209","0.0-54.0","null","null","","","","","","","","","","","","","","feedback","Mon Oct 13 2025 21:12:31 GMT-0400 (북미 동부 하계 표준시)","26875","0","7","","","","","","","","","",""
"","","","","","","","","","","","preload","55","195210","0.0-55.0","","","","","true","","","","","","","","","","","preload","","","0","8","false","[]","[]","[]","","","","","",""
"","","","","","","","","","","","canvas-keyboard-response","56","195514","0.0-56.0","null","null","","","","","","","","","","","","","","fixation","","","0","8","","","","","","","","","",""
"","","","","","","","","","","","canvas-keyboard-response","57","195819","0.0-57.0","null","null","","","","","","","","","","","","","","stimulus","","","0","8","","","","","","","","","",""
"","","","","","","","","","","","canvas-button-response","58","202138","0.0-58.0","6317","elephant","","","","","","","","","","","","","","perceptual","","","0","8","","","","","82","elephant","1","","1",""
"","","","","","","","","","","","canvas-button-response","59","205488","0.0-59.0","3347","1","","","","","","","","","","","","","","confidence","","","0","8","","","","","","","","","","9"
"","","","","","","","","","","","html-keyboard-response","60","206496","0.0-60.0","null","null","","","","","","","","","","","","","","feedback","Mon Oct 13 2025 21:12:42 GMT-0400 (북미 동부 하계 표준시)","26875","0","8","","","","","","","","","",""
"","","","","","","","","","","","preload","61","206497","0.0-61.0","","","","","true","","","","","","","","","","","preload","","","0","9","false","[]","[]","[]","","","","","",""
"","","","","","","","","","","","canvas-keyboard-response","62","206804","0.0-62.0","null","null","","","","","","","","","","","","","","fixation","","","0","9","","","","","","","","","",""
"","","","","","","","","","","","canvas-keyboard-response","63","207115","0.0-63.0","null","null","","","","","","","","","","","","","","stimulus","","","0","9","","","","","","","","","",""
"","","","","","","","","","","","canvas-button-response","64","208883","0.0-64.0","1765","flower","","","","","","","","","","","","","","perceptual","","","0","9","","","","","52","flower","1","","1",""
"","","","","","","","","","","","canvas-button-response","65","210150","0.0-65.0","1265","6","","","","","","","","","","","","","","confidence","","","0","9","","","","","","","","","","10"
"","","","","","","","","","","","html-keyboard-response","66","211154","0.0-66.0","null","null","","","","","","","","","","","","","","feedback","Mon Oct 13 2025 21:12:47 GMT-0400 (북미 동부 하계 표준시)","26875","0","9","","","","","","","","","",""
"","","","","","","","","","","","html-button-response","67","221672","0.0-67.0","10515","0","","","","","","","","","","","","","","start_practice","Mon Oct 13 2025 21:12:48 GMT-0400 (북미 동부 하계 표준시)","26875","0","9","","","","","","","","","",""
"","","","","","","","","","","","preload","68","221673","0.0-68.0","","","","","true","","","","","","","","","","","preload","","","1","0","false","[]","[]","[]","","","","","",""
"","","","","","","","","","","","canvas-keyboard-response","69","221986","0.0-69.0","null","null","","","","","","","","","","","","","","fixation","","","1","0","","","","","","","","","",""
"","","","","","","","","","","","canvas-keyboard-response","70","222294","0.0-70.0","null","null","","","","","","","","","","","","","","stimulus","","","1","0","","","","","","","","","",""
"","","","","","","","","","","","canvas-button-response","71","224811","0.0-71.0","2514","flower","","","","","","","","","","","","","","perceptual","","","1","0","","","","","17","car","10","","0",""
"","","","","","","","","","","","canvas-button-response","72","226449","0.0-72.0","1636","1","","","","","","","","","","","","","","confidence","","","1","0","","","","","","","","","","0"
"","","","","","","","","","","","html-keyboard-response","73","227452","0.0-73.0","null","null","","","","","","","","","","","","","","feedback","Mon Oct 13 2025 21:13:03 GMT-0400 (북미 동부 하계 표준시)","26875","1","0","","","","","","","","","",""
"","","","","","","","","","","","preload","74","227453","0.0-74.0","","","","","true","","","","","","","","","","","preload","","","1","1","false","[]","[]","[]","","","","","",""
"","","","","","","","","","","","canvas-keyboard-response","75","227756","0.0-75.0","null","null","","","","","","","","","","","","","","fixation","","","1","1","","","","","","","","","",""
"","","","","","","","","","","","canvas-keyboard-response","76","228065","0.0-76.0","null","null","","","","","","","","","","","","","","stimulus","","","1","1","","","","","","","","","",""
"","","","","","","","","","","","canvas-button-response","77","232587","0.0-77.0","4519","train","","","","","","","","","","","","","","perceptual","","","1","1","","","","","37","bed","10","","0",""
"","","","","","","","","","","","canvas-button-response","78","233802","0.0-78.0","1213","1","","","","","","","","","","","","","","confidence","","","1","1","","","","","","","","","","0"
"","","","","","","","","","","","html-keyboard-response","79","234815","0.0-79.0","null","null","","","","","","","","","","","","","","feedback","Mon Oct 13 2025 21:13:10 GMT-0400 (북미 동부 하계 표준시)","26875","1","1","","","","","","","","","",""
"","","","","","","","","","","","preload","80","234816","0.0-80.0","","","","","true","","","","","","","","","","","preload","","","1","2","false","[]","[]","[]","","","","","",""
"","","","","","","","","","","","canvas-keyboard-response","81","235128","0.0-81.0","null","null","","","","","","","","","","","","","","fixation","","","1","2","","","","","","","","","",""
"","","","","","","","","","","","canvas-keyboard-response","82","235437","0.0-82.0","null","null","","","","","","","","","","","","","","stimulus","","","1","2","","","","","","","","","",""
"","","","","","","","","","","","canvas-button-response","83","237235","0.0-83.0","1797","elephant","","","","","","","","","","","","","","perceptual","","","1","2","","","","","84","elephant","6","","1",""
"","","","","","","","","","","","canvas-button-response","84","238071","0.0-84.0","833","7","","","","","","","","","","","","","","confidence","","","1","2","","","","","","","","","","1"
"","","","","","","","","","","","html-keyboard-response","85","239088","0.0-85.0","null","null","","","","","","","","","","","","","","feedback","Mon Oct 13 2025 21:13:15 GMT-0400 (북미 동부 하계 표준시)","26875","1","2","","","","","","","","","",""
"","","","","","","","","","","","preload","86","239089","0.0-86.0","","","","","true","","","","","","","","","","","preload","","","1","3","false","[]","[]","[]","","","","","",""
"","","","","","","","","","","","canvas-keyboard-response","87","239395","0.0-87.0","null","null","","","","","","","","","","","","","","fixation","","","1","3","","","","","","","","","",""
"","","","","","","","","","","","canvas-keyboard-response","88","239707","0.0-88.0","null","null","","","","","","","","","","","","","","stimulus","","","1","3","","","","","","","","","",""
"","","","","","","","","","","","canvas-button-response","89","240398","0.0-89.0","688","cat","","","","","","","","","","","","","","perceptual","","","1","3","","","","","74","cat","6","","1",""
"","","","","","","","","","","","canvas-button-response","90","240997","0.0-90.0","596","10","","","","","","","","","","","","","","confidence","","","1","3","","","","","","","","","","2"
"","","","","","","","","","","","html-keyboard-response","91","242007","0.0-91.0","null","null","","","","","","","","","","","","","","feedback","Mon Oct 13 2025 21:13:17 GMT-0400 (북미 동부 하계 표준시)","26875","1","3","","","","","","","","","",""
"","","","","","","","","","","","preload","92","242007","0.0-92.0","","","","","true","","","","","","","","","","","preload","","","1","4","false","[]","[]","[]","","","","","",""
"","","","","","","","","","","","canvas-keyboard-response","93","242319","0.0-93.0","null","null","","","","","","","","","","","","","","fixation","","","1","4","","","","","","","","","",""
"","","","","","","","","","","","canvas-keyboard-response","94","242628","0.0-94.0","null","null","","","","","","","","","","","","","","stimulus","","","1","4","","","","","","","","","",""
"","","","","","","","","","","","canvas-button-response","95","243682","0.0-95.0","1051","flower","","","","","","","","","","","","","","perceptual","","","1","4","","","","","54","flower","6","","1",""
"","","","","","","","","","","","canvas-button-response","96","244422","0.0-96.0","737","10","","","","","","","","","","","","","","confidence","","","1","4","","","","","","","","","","3"
"","","","","","","","","","","","html-keyboard-response","97","245433","0.0-97.0","null","null","","","","","","","","","","","","","","feedback","Mon Oct 13 2025 21:13:21 GMT-0400 (북미 동부 하계 표준시)","26875","1","4","","","","","","","","","",""
"","","","","","","","","","","","preload","98","245434","0.0-98.0","","","","","true","","","","","","","","","","","preload","","","1","5","false","[]","[]","[]","","","","","",""
"","","","","","","","","","","","canvas-keyboard-response","99","245736","0.0-99.0","null","null","","","","","","","","","","","","","","fixation","","","1","5","","","","","","","","","",""
"","","","","","","","","","","","canvas-keyboard-response","100","246040","0.0-100.0","null","null","","","","","","","","","","","","","","stimulus","","","1","5","","","","","","","","","",""
"","","","","","","","","","","","canvas-button-response","101","246837","0.0-101.0","795","knife","","","","","","","","","","","","","","perceptual","","","1","5","","","","","97","knife","10","","1",""
"","","","","","","","","","","","canvas-button-response","102","247473","0.0-102.0","634","10","","","","","","","","","","","","","","confidence","","","1","5","","","","","","","","","","4"
"","","","","","","","","","","","html-keyboard-response","103","248485","0.0-103.0","null","null","","","","","","","","","","","","","","feedback","Mon Oct 13 2025 21:13:24 GMT-0400 (북미 동부 하계 표준시)","26875","1","5","","","","","","","","","",""
"","","","","","","","","","","","preload","104","248486","0.0-104.0","","","","","true","","","","","","","","","","","preload","","","1","6","false","[]","[]","[]","","","","","",""
"","","","","","","","","","","","canvas-keyboard-response","105","248794","0.0-105.0","null","null","","","","","","","","","","","","","","fixation","","","1","6","","","","","","","","","",""
"","","","","","","","","","","","canvas-keyboard-response","106","249096","0.0-106.0","null","null","","","","","","","","","","","","","","stimulus","","","1","6","","","","","","","","","",""
"","","","","","","","","","","","canvas-button-response","107","255166","0.0-107.0","6067","house","","","","","","","","","","","","","","perceptual","","","1","6","","","","","44","bridge","6","","0",""
"","","","","","","","","","","","canvas-button-response","108","256348","0.0-108.0","1180","1","","","","","","","","","","","","","","confidence","","","1","6","","","","","","","","","","4"
"","","","","","","","","","","","html-keyboard-response","109","257355","0.0-109.0","null","null","","","","","","","","","","","","","","feedback","Mon Oct 13 2025 21:13:33 GMT-0400 (북미 동부 하계 표준시)","26875","1","6","","","","","","","","","",""
"","","","","","","","","","","","preload","110","257357","0.0-110.0","","","","","true","","","","","","","","","","","preload","","","1","7","false","[]","[]","[]","","","","","",""
"","","","","","","","","","","","canvas-keyboard-response","111","257668","0.0-111.0","null","null","","","","","","","","","","","","","","fixation","","","1","7","","","","","","","","","",""
"","","","","","","","","","","","canvas-keyboard-response","112","257976","0.0-112.0","null","null","","","","","","","","","","","","","","stimulus","","","1","7","","","","","","","","","",""
"","","","","","","","","","","","canvas-button-response","113","259059","0.0-113.0","1080","house","","","","","","","","","","","","","","perceptual","","","1","7","","","","","7","house","10","","1",""
"","","","","","","","","","","","canvas-button-response","114","259759","0.0-114.0","695","10","","","","","","","","","","","","","","confidence","","","1","7","","","","","","","","","","5"
"","","","","","","","","","","","html-keyboard-response","115","260768","0.0-115.0","null","null","","","","","","","","","","","","","","feedback","Mon Oct 13 2025 21:13:36 GMT-0400 (북미 동부 하계 표준시)","26875","1","7","","","","","","","","","",""
"","","","","","","","","","","","preload","116","260768","0.0-116.0","","","","","true","","","","","","","","","","","preload","","","1","8","false","[]","[]","[]","","","","","",""
"","","","","","","","","","","","canvas-keyboard-response","117","261078","0.0-117.0","null","null","","","","","","","","","","","","","","fixation","","","1","8","","","","","","","","","",""
"","","","","","","","","","","","canvas-keyboard-response","118","261386","0.0-118.0","null","null","","","","","","","","","","","","","","stimulus","","","1","8","","","","","","","","","",""
"","","","","","","","","","","","canvas-button-response","119","262646","0.0-119.0","1257","bed","","","","","","","","","","","","","","perceptual","","","1","8","","","","","34","bed","6","","1",""
"","","","","","","","","","","","canvas-button-response","120","263352","0.0-120.0","703","10","","","","","","","","","","","","","","confidence","","","1","8","","","","","","","","","","6"
"","","","","","","","","","","","html-keyboard-response","121","264357","0.0-121.0","null","null","","","","","","","","","","","","","","feedback","Mon Oct 13 2025 21:13:40 GMT-0400 (북미 동부 하계 표준시)","26875","1","8","","","","","","","","","",""
"","","","","","","","","","","","preload","122","264357","0.0-122.0","","","","","true","","","","","","","","","","","preload","","","1","9","false","[]","[]","[]","","","","","",""
"","","","","","","","","","","","canvas-keyboard-response","123","264666","0.0-123.0","null","null","","","","","","","","","","","","","","fixation","","","1","9","","","","","","","","","",""
"","","","","","","","","","","","canvas-keyboard-response","124","264977","0.0-124.0","null","null","","","","","","","","","","","","","","stimulus","","","1","9","","","","","","","","","",""
"","","","","","","","","","","","canvas-button-response","125","266981","0.0-125.0","2002","elephant","","","","","","","","","","","","","","perceptual","","","1","9","","","","","87","elephant","10","","1",""
"","","","","","","","","","","","canvas-button-response","126","267722","0.0-126.0","740","1","","","","","","","","","","","","","","confidence","","","1","9","","","","","","","","","","7"
"","","","","","","","","","","","html-keyboard-response","127","268726","0.0-127.0","null","null","","","","","","","","","","","","","","feedback","Mon Oct 13 2025 21:13:44 GMT-0400 (북미 동부 하계 표준시)","26875","1","9","","","","","","","","","",""
"","","","","","","","","","","","preload","128","268727","0.0-128.0","","","","","true","","","","","","","","","","","preload","","","1","10","false","[]","[]","[]","","","","","",""
"","","","","","","","","","","","canvas-keyboard-response","129","269036","0.0-129.0","null","null","","","","","","","","","","","","","","fixation","","","1","10","","","","","","","","","",""
"","","","","","","","","","","","canvas-keyboard-response","130","269346","0.0-130.0","null","null","","","","","","","","","","","","","","stimulus","","","1","10","","","","","","","","","",""
"","","","","","","","","","","","canvas-button-response","131","272257","0.0-131.0","2909","bridge","","","","","","","","","","","","","","perceptual","","","1","10","","","","","47","bridge","10","","1",""
"","","","","","","","","","","","canvas-button-response","132","273044","0.0-132.0","783","1","","","","","","","","","","","","","","confidence","","","1","10","","","","","","","","","","8"
"","","","","","","","","","","","html-keyboard-response","133","274055","0.0-133.0","null","null","","","","","","","","","","","","","","feedback","Mon Oct 13 2025 21:13:49 GMT-0400 (북미 동부 하계 표준시)","26875","1","10","","","","","","","","","",""
"","","","","","","","","","","","preload","134","274055","0.0-134.0","","","","","true","","","","","","","","","","","preload","","","1","11","false","[]","[]","[]","","","","","",""
"","","","","","","","","","","","canvas-keyboard-response","135","274365","0.0-135.0","null","null","","","","","","","","","","","","","","fixation","","","1","11","","","","","","","","","",""
"","","","","","","","","","","","canvas-keyboard-response","136","274670","0.0-136.0","null","null","","","","","","","","","","","","","","stimulus","","","1","11","","","","","","","","","",""
"","","","","","","","","","","","canvas-button-response","137","276399","0.0-137.0","1727","train","","","","","","","","","","","","","","perceptual","","","1","11","","","","","67","train","10","","1",""
"","","","","","","","","","","","canvas-button-response","138","277424","0.0-138.0","1022","6","","","","","","","","","","","","","","confidence","","","1","11","","","","","","","","","","9"
"","","","","","","","","","","","html-keyboard-response","139","278437","0.0-139.0","null","null","","","","","","","","","","","","","","feedback","Mon Oct 13 2025 21:13:54 GMT-0400 (북미 동부 하계 표준시)","26875","1","11","","","","","","","","","",""
"","","","","","","","","","","","preload","140","278438","0.0-140.0","","","","","true","","","","","","","","","","","preload","","","1","12","false","[]","[]","[]","","","","","",""
"","","","","","","","","","","","canvas-keyboard-response","141","278746","0.0-141.0","null","null","","","","","","","","","","","","","","fixation","","","1","12","","","","","","","","","",""
"","","","","","","","","","","","canvas-keyboard-response","142","279058","0.0-142.0","null","null","","","","","","","","","","","","","","stimulus","","","1","12","","","","","","","","","",""
"","","","","","","","","","","","canvas-button-response","143","280337","0.0-143.0","1277","train","","","","","","","","","","","","","","perceptual","","","1","12","","","","","64","train","6","","1",""
"","","","","","","","","","","","canvas-button-response","144","280960","0.0-144.0","621","7","","","","","","","","","","","","","","confidence","","","1","12","","","","","","","","","","10"
"","","","","","","","","","","","html-keyboard-response","145","281965","0.0-145.0","null","null","","","","","","","","","","","","","","feedback","Mon Oct 13 2025 21:13:57 GMT-0400 (북미 동부 하계 표준시)","26875","1","12","","","","","","","","","",""
"","","","","","","","","","","","preload","146","281966","0.0-146.0","","","","","true","","","","","","","","","","","preload","","","1","13","false","[]","[]","[]","","","","","",""
"","","","","","","","","","","","canvas-keyboard-response","147","282276","0.0-147.0","null","null","","","","","","","","","","","","","","fixation","","","1","13","","","","","","","","","",""
"","","","","","","","","","","","canvas-keyboard-response","148","282585","0.0-148.0","null","null","","","","","","","","","","","","","","stimulus","","","1","13","","","","","","","","","",""
"","","","","","","","","","","","canvas-button-response","149","283402","0.0-149.0","815","house","","","","","","","","","","","","","","perceptual","","","1","13","","","","","4","house","6","","1",""
"","","","","","","","","","","","canvas-button-response","150","283965","0.0-150.0","561","10","","","","","","","","","","","","","","confidence","","","1","13","","","","","","","","","","11"
"","","","","","","","","","","","html-keyboard-response","151","284975","0.0-151.0","null","null","","","","","","","","","","","","","","feedback","Mon Oct 13 2025 21:14:00 GMT-0400 (북미 동부 하계 표준시)","26875","1","13","","","","","","","","","",""
"","","","","","","","","","","","preload","152","284977","0.0-152.0","","","","","true","","","","","","","","","","","preload","","","1","14","false","[]","[]","[]","","","","","",""
"","","","","","","","","","","","canvas-keyboard-response","153","285287","0.0-153.0","null","null","","","","","","","","","","","","","","fixation","","","1","14","","","","","","","","","",""
"","","","","","","","","","","","canvas-keyboard-response","154","285600","0.0-154.0","null","null","","","","","","","","","","","","","","stimulus","","","1","14","","","","","","","","","",""
"","","","","","","","","","","","canvas-button-response","155","287925","0.0-155.0","2322","phone","","","","","","","","","","","","","","perceptual","","","1","14","","","","","24","phone","6","","1",""
"","","","","","","","","","","","canvas-button-response","156","290338","0.0-156.0","2411","2","","","","","","","","","","","","","","confidence","","","1","14","","","","","","","","","","12"
"","","","","","","","","","","","html-keyboard-response","157","291346","0.0-157.0","null","null","","","","","","","","","","","","","","feedback","Mon Oct 13 2025 21:14:07 GMT-0400 (북미 동부 하계 표준시)","26875","1","14","","","","","","","","","",""
"","","","","","","","","","","","preload","158","291346","0.0-158.0","","","","","true","","","","","","","","","","","preload","","","1","15","false","[]","[]","[]","","","","","",""
"","","","","","","","","","","","canvas-keyboard-response","159","291655","0.0-159.0","null","null","","","","","","","","","","","","","","fixation","","","1","15","","","","","","","","","",""
"","","","","","","","","","","","canvas-keyboard-response","160","291965","0.0-160.0","null","null","","","","","","","","","","","","","","stimulus","","","1","15","","","","","","","","","",""
"","","","","","","","","","","","canvas-button-response","161","292950","0.0-161.0","983","flower","","","","","","","","","","","","","","perceptual","","","1","15","","","","","57","flower","10","","1",""
"","","","","","","","","","","","canvas-button-response","162","293607","0.0-162.0","654","10","","","","","","","","","","","","","","confidence","","","1","15","","","","","","","","","","13"
"","","","","","","","","","","","html-keyboard-response","163","294615","0.0-163.0","null","null","","","","","","","","","","","","","","feedback","Mon Oct 13 2025 21:14:10 GMT-0400 (북미 동부 하계 표준시)","26875","1","15","","","","","","","","","",""
"","","","","","","","","","","","preload","164","294616","0.0-164.0","","","","","true","","","","","","","","","","","preload","","","1","16","false","[]","[]","[]","","","","","",""
"","","","","","","","","","","","canvas-keyboard-response","165","294925","0.0-165.0","null","null","","","","","","","","","","","","","","fixation","","","1","16","","","","","","","","","",""
"","","","","","","","","","","","canvas-keyboard-response","166","295237","0.0-166.0","null","null","","","","","","","","","","","","","","stimulus","","","1","16","","","","","","","","","",""
"","","","","","","","","","","","canvas-button-response","167","297190","0.0-167.0","1952","bed","","","","","","","","","","","","","","perceptual","","","1","16","","","","","94","knife","6","","0",""
"","","","","","","","","","","","canvas-button-response","168","298140","0.0-168.0","949","1","","","","","","","","","","","","","","confidence","","","1","16","","","","","","","","","","13"
"","","","","","","","","","","","html-keyboard-response","169","299146","0.0-169.0","null","null","","","","","","","","","","","","","","feedback","Mon Oct 13 2025 21:14:15 GMT-0400 (북미 동부 하계 표준시)","26875","1","16","","","","","","","","","",""
"","","","","","","","","","","","preload","170","299147","0.0-170.0","","","","","true","","","","","","","","","","","preload","","","1","17","false","[]","[]","[]","","","","","",""
"","","","","","","","","","","","canvas-keyboard-response","171","299455","0.0-171.0","null","null","","","","","","","","","","","","","","fixation","","","1","17","","","","","","","","","",""
"","","","","","","","","","","","canvas-keyboard-response","172","299765","0.0-172.0","null","null","","","","","","","","","","","","","","stimulus","","","1","17","","","","","","","","","",""
"","","","","","","","","","","","canvas-button-response","173","301739","0.0-173.0","1972","cat","","","","","","","","","","","","","","perceptual","","","1","17","","","","","77","cat","10","","1",""
"","","","","","","","","","","","canvas-button-response","174","302622","0.0-174.0","878","1","","","","","","","","","","","","","","confidence","","","1","17","","","","","","","","","","14"
"","","","","","","","","","","","html-keyboard-response","175","303626","0.0-175.0","null","null","","","","","","","","","","","","","","feedback","Mon Oct 13 2025 21:14:19 GMT-0400 (북미 동부 하계 표준시)","26875","1","17","","","","","","","","","",""
"","","","","","","","","","","","preload","176","303627","0.0-176.0","","","","","true","","","","","","","","","","","preload","","","1","18","false","[]","[]","[]","","","","","",""
"","","","","","","","","","","","canvas-keyboard-response","177","303939","0.0-177.0","null","null","","","","","","","","","","","","","","fixation","","","1","18","","","","","","","","","",""
"","","","","","","","","","","","canvas-keyboard-response","178","304244","0.0-178.0","null","null","","","","","","","","","","","","","","stimulus","","","1","18","","","","","","","","","",""
"","","","","","","","","","","","canvas-button-response","179","306019","0.0-179.0","1774","car","","","","","","","","","","","","","","perceptual","","","1","18","","","","","14","car","6","","1",""
"","","","","","","","","","","","canvas-button-response","180","306882","0.0-180.0","860","8","","","","","","","","","","","","","","confidence","","","1","18","","","","","","","","","","15"
"","","","","","","","","","","","html-keyboard-response","181","307898","0.0-181.0","null","null","","","","","","","","","","","","","","feedback","Mon Oct 13 2025 21:14:23 GMT-0400 (북미 동부 하계 표준시)","26875","1","18","","","","","","","","","",""
"","","","","","","","","","","","preload","182","307898","0.0-182.0","","","","","true","","","","","","","","","","","preload","","","1","19","false","[]","[]","[]","","","","","",""
"","","","","","","","","","","","canvas-keyboard-response","183","308207","0.0-183.0","null","null","","","","","","","","","","","","","","fixation","","","1","19","","","","","","","","","",""
"","","","","","","","","","","","canvas-keyboard-response","184","308515","0.0-184.0","null","null","","","","","","","","","","","","","","stimulus","","","1","19","","","","","","","","","",""
"","","","","","","","","","","","canvas-button-response","185","315358","0.0-185.0","6841","knife","","","","","","","","","","","","","","perceptual","","","1","19","","","","","27","phone","10","","0",""
"","","","","","","","","","","","canvas-button-response","186","316291","0.0-186.0","930","1","","","","","","","","","","","","","","confidence","","","1","19","","","","","","","","","","15"
"","","","","","","","","","","","html-keyboard-response","187","317296","0.0-187.0","null","null","","","","","","","","","","","","","","feedback","Mon Oct 13 2025 21:14:33 GMT-0400 (북미 동부 하계 표준시)","26875","1","19","","","","","","","","","",""
"","","","","","","","","","","","html-button-response","188","335815","0.0-188.0","18518","0","","","","","","","","","","","","","","start experiment","Mon Oct 13 2025 21:14:34 GMT-0400 (북미 동부 하계 표준시)","26875","1","19","","","","","","","","","",""
"","","","","","","","","","","","preload","189","335816","0.0-189.0","","","","","true","","","","","","","","","","","preload","","","2","0","false","[]","[]","[]","","","","","",""
"","","","","","","","","","","","canvas-keyboard-response","190","336121","0.0-190.0","null","null","","","","","","","","","","","","","","fixation","","","2","0","","","","","","","","","",""
"","","","","","","","","","","","canvas-keyboard-response","191","336427","0.0-191.0","null","null","","","","","","","","","","","","","","stimulus","","","2","0","","","","","","","","","",""
"","","","","","","","","","","","canvas-button-response","192","338141","0.0-192.0","1711","cat","","","","","","","","","","","","","","perceptual","","","2","0","","","","","297","cat","6","0","1",""
"","","","","","","","","","","","canvas-button-response","193","339377","0.0-193.0","1232","8","","","","","","","","","","","","","","confidence","","","2","0","","","","","","","","","","1"
"","","","","","","","","","","","preload","194","339378","0.0-194.0","","","","","true","","","","","","","","","","","preload","","","2","1","false","[]","[]","[]","","","","","",""
"","","","","","","","","","","","canvas-keyboard-response","195","339690","0.0-195.0","null","null","","","","","","","","","","","","","","fixation","","","2","1","","","","","","","","","",""
"","","","","","","","","","","","canvas-keyboard-response","196","340006","0.0-196.0","null","null","","","","","","","","","","","","","","stimulus","","","2","1","","","","","","","","","",""
"","","","","","","","","","","","canvas-button-response","197","340972","0.0-197.0","964","car","","","","","","","","","","","","","","perceptual","","","2","1","","","","","69","car","10","0","1",""
"","","","","","","","","","","","canvas-button-response","198","341594","0.0-198.0","617","8","","","","","","","","","","","","","","confidence","","","2","1","","","","","","","","","","2"
"","","","","","","","","","","","preload","199","341595","0.0-199.0","","","","","true","","","","","","","","","","","preload","","","2","2","false","[]","[]","[]","","","","","",""
"","","","","","","","","","","","canvas-keyboard-response","200","341905","0.0-200.0","null","null","","","","","","","","","","","","","","fixation","","","2","2","","","","","","","","","",""
"","","","","","","","","","","","canvas-keyboard-response","201","342215","0.0-201.0","null","null","","","","","","","","","","","","","","stimulus","","","2","2","","","","","","","","","",""
"","","","","","","","","","","","canvas-button-response","202","343292","0.0-202.0","1074","car","","","","","","","","","","","","","","perceptual","","","2","2","","","","","66","car","10","0","1",""
"","","","","","","","","","","","canvas-button-response","203","343793","0.0-203.0","497","10","","","","","","","","","","","","","","confidence","","","2","2","","","","","","","","","","3"
"","","","","","","","","","","","preload","204","343795","0.0-204.0","","","","","true","","","","","","","","","","","preload","","","2","3","false","[]","[]","[]","","","","","",""
"","","","","","","","","","","","canvas-keyboard-response","205","344099","0.0-205.0","null","null","","","","","","","","","","","","","","fixation","","","2","3","","","","","","","","","",""
"","","","","","","","","","","","canvas-keyboard-response","206","344403","0.0-206.0","null","null","","","","","","","","","","","","","","stimulus","","","2","3","","","","","","","","","",""
"","","","","","","","","","","","canvas-button-response","207","345128","0.0-207.0","723","cat","","","","","","","","","","","","","","perceptual","","","2","3","","","","","299","cat","6","0","1",""
"","","","","","","","","","","","canvas-button-response","208","345928","0.0-208.0","798","10","","","","","","","","","","","","","","confidence","","","2","3","","","","","","","","","","4"
"","","","","","","","","","","","preload","209","345930","0.0-209.0","","","","","true","","","","","","","","","","","preload","","","2","4","false","[]","[]","[]","","","","","",""
"","","","","","","","","","","","canvas-keyboard-response","210","346236","0.0-210.0","null","null","","","","","","","","","","","","","","fixation","","","2","4","","","","","","","","","",""
"","","","","","","","","","","","canvas-keyboard-response","211","346543","0.0-211.0","null","null","","","","","","","","","","","","","","stimulus","","","2","4","","","","","","","","","",""
"","","","","","","","","","","","canvas-button-response","212","347310","0.0-212.0","766","car","","","","","","","","","","","","","","perceptual","","","2","4","","","","","54","car","6","0","1",""
"","","","","","","","","","","","canvas-button-response","213","347890","0.0-213.0","577","10","","","","","","","","","","","","","","confidence","","","2","4","","","","","","","","","","5"
"","","","","","","","","","","","preload","214","347891","0.0-214.0","","","","","true","","","","","","","","","","","preload","","","2","5","false","[]","[]","[]","","","","","",""
"","","","","","","","","","","","canvas-keyboard-response","215","348195","0.0-215.0","null","null","","","","","","","","","","","","","","fixation","","","2","5","","","","","","","","","",""
"","","","","","","","","","","","canvas-keyboard-response","216","348501","0.0-216.0","null","null","","","","","","","","","","","","","","stimulus","","","2","5","","","","","","","","","",""
"","","","","","","","","","","","canvas-button-response","217","349194","0.0-217.0","691","car","","","","","","","","","","","","","","perceptual","","","2","5","","","","","49","car","6","0","1",""
"","","","","","","","","","","","canvas-button-response","218","349728","0.0-218.0","532","10","","","","","","","","","","","","","","confidence","","","2","5","","","","","","","","","","6"
"","","","","","","","","","","","preload","219","349729","0.0-219.0","","","","","true","","","","","","","","","","","preload","","","2","6","false","[]","[]","[]","","","","","",""
"","","","","","","","","","","","canvas-keyboard-response","220","350039","0.0-220.0","null","null","","","","","","","","","","","","","","fixation","","","2","6","","","","","","","","","",""
"","","","","","","","","","","","canvas-keyboard-response","221","350351","0.0-221.0","null","null","","","","","","","","","","","","","","stimulus","","","2","6","","","","","","","","","",""
"","","","","","","","","","","","canvas-button-response","222","351915","0.0-222.0","1562","train","","","","","","","","","","","","","","perceptual","","","2","6","","","","","266","train","10","0","1",""
"","","","","","","","","","","","canvas-button-response","223","353106","0.0-223.0","1188","2","","","","","","","","","","","","","","confidence","","","2","6","","","","","","","","","","7"
"","","","","","","","","","","","preload","224","353108","0.0-224.0","","","","","true","","","","","","","","","","","preload","","","2","7","false","[]","[]","[]","","","","","",""
"","","","","","","","","","","","canvas-keyboard-response","225","353409","0.0-225.0","null","null","","","","","","","","","","","","","","fixation","","","2","7","","","","","","","","","",""
"","","","","","","","","","","","canvas-keyboard-response","226","353716","0.0-226.0","null","null","","","","","","","","","","","","","","stimulus","","","2","7","","","","","","","","","",""
"","","","","","","","","","","","canvas-button-response","227","354729","0.0-227.0","1011","bridge","","","","","","","","","","","","","","perceptual","","","2","7","","","","","183","bridge","10","0","1",""
"","","","","","","","","","","","canvas-button-response","228","355349","0.0-228.0","618","7","","","","","","","","","","","","","","confidence","","","2","7","","","","","","","","","","8"
"","","","","","","","","","","","preload","229","355350","0.0-229.0","","","","","true","","","","","","","","","","","preload","","","2","8","false","[]","[]","[]","","","","","",""
"","","","","","","","","","","","canvas-keyboard-response","230","355659","0.0-230.0","null","null","","","","","","","","","","","","","","fixation","","","2","8","","","","","","","","","",""
"","","","","","","","","","","","canvas-keyboard-response","231","355964","0.0-231.0","null","null","","","","","","","","","","","","","","stimulus","","","2","8","","","","","","","","","",""
"","","","","","","","","","","","canvas-button-response","232","357120","0.0-232.0","1155","knife","","","","","","","","","","","","","","perceptual","","","2","8","","","","","392","knife","10","0","1",""
"","","","","","","","","","","","canvas-button-response","233","357745","0.0-233.0","623","1","","","","","","","","","","","","","","confidence","","","2","8","","","","","","","","","","9"
"","","","","","","","","","","","preload","234","357746","0.0-234.0","","","","","true","","","","","","","","","","","preload","","","2","9","false","[]","[]","[]","","","","","",""
"","","","","","","","","","","","canvas-keyboard-response","235","358058","0.0-235.0","null","null","","","","","","","","","","","","","","fixation","","","2","9","","","","","","","","","",""
"","","","","","","","","","","","canvas-keyboard-response","236","358365","0.0-236.0","null","null","","","","","","","","","","","","","","stimulus","","","2","9","","","","","","","","","",""
"","","","","","","","","","","","canvas-button-response","237","360759","0.0-237.0","2392","house","","","","","","","","","","","","","","perceptual","","","2","9","","","","","35","house","10","0","1",""
"","","","","","","","","","","","canvas-button-response","238","362031","0.0-238.0","1268","2","","","","","","","","","","","","","","confidence","","","2","9","","","","","","","","","","10"
"","","","","","","","","","","","preload","239","362032","0.0-239.0","","","","","true","","","","","","","","","","","preload","","","2","10","false","[]","[]","[]","","","","","",""
"","","","","","","","","","","","canvas-keyboard-response","240","362335","0.0-240.0","null","null","","","","","","","","","","","","","","fixation","","","2","10","","","","","","","","","",""
"","","","","","","","","","","","canvas-keyboard-response","241","362646","0.0-241.0","null","null","","","","","","","","","","","","","","stimulus","","","2","10","","","","","","","","","",""
"","","","","","","","","","","","canvas-button-response","242","363688","0.0-242.0","1039","phone","","","","","","","","","","","","","","perceptual","","","2","10","","","","","88","phone","6","0","1",""
"","","","","","","","","","","","canvas-button-response","243","364455","0.0-243.0","765","10","","","","","","","","","","","","","","confidence","","","2","10","","","","","","","","","","11"
"","","","","","","","","","","","preload","244","364456","0.0-244.0","","","","","true","","","","","","","","","","","preload","","","2","11","false","[]","[]","[]","","","","","",""
"","","","","","","","","","","","canvas-keyboard-response","245","364758","0.0-245.0","null","null","","","","","","","","","","","","","","fixation","","","2","11","","","","","","","","","",""
"","","","","","","","","","","","canvas-keyboard-response","246","365075","0.0-246.0","null","null","","","","","","","","","","","","","","stimulus","","","2","11","","","","","","","","","",""
"","","","","","","","","","","","canvas-button-response","247","366558","0.0-247.0","1480","elephant","","","","","","","","","","","","","","perceptual","","","2","11","","","","","330","elephant","6","0","1",""
"","","","","","","","","","","","canvas-button-response","248","367004","0.0-248.0","443","10","","","","","","","","","","","","","","confidence","","","2","11","","","","","","","","","","12"
"","","","","","","","","","","","preload","249","367006","0.0-249.0","","","","","true","","","","","","","","","","","preload","","","2","12","false","[]","[]","[]","","","","","",""
"","","","","","","","","","","","canvas-keyboard-response","250","367309","0.0-250.0","null","null","","","","","","","","","","","","","","fixation","","","2","12","","","","","","","","","",""
"","","","","","","","","","","","canvas-keyboard-response","251","367616","0.0-251.0","null","null","","","","","","","","","","","","","","stimulus","","","2","12","","","","","","","","","",""
"","","","","","","","","","","","canvas-button-response","252","368636","0.0-252.0","1018","car","","","","","","","","","","","","","","perceptual","","","2","12","","","","","79","car","10","0","1",""
"","","","","","","","","","","","canvas-button-response","253","369403","0.0-253.0","764","10","","","","","","","","","","","","","","confidence","","","2","12","","","","","","","","","","13"
"","","","","","","","","","","","preload","254","369404","0.0-254.0","","","","","true","","","","","","","","","","","preload","","","2","13","false","[]","[]","[]","","","","","",""
"","","","","","","","","","","","canvas-keyboard-response","255","369707","0.0-255.0","null","null","","","","","","","","","","","","","","fixation","","","2","13","","","","","","","","","",""
"","","","","","","","","","","","canvas-keyboard-response","256","370015","0.0-256.0","null","null","","","","","","","","","","","","","","stimulus","","","2","13","","","","","","","","","",""
"","","","","","","","","","","","canvas-button-response","257","370891","0.0-257.0","873","train","","","","","","","","","","","","","","perceptual","","","2","13","","","","","253","train","6","0","1",""
"","","","","","","","","","","","canvas-button-response","258","371508","0.0-258.0","612","10","","","","","","","","","","","","","","confidence","","","2","13","","","","","","","","","","14"
"","","","","","","","","","","","preload","259","371510","0.0-259.0","","","","","true","","","","","","","","","","","preload","","","2","14","false","[]","[]","[]","","","","","",""
"","","","","","","","","","","","canvas-keyboard-response","260","371815","0.0-260.0","null","null","","","","","","","","","","","","","","fixation","","","2","14","","","","","","","","","",""
"","","","","","","","","","","","canvas-keyboard-response","261","372118","0.0-261.0","null","null","","","","","","","","","","","","","","stimulus","","","2","14","","","","","","","","","",""
"","","","","","","","","","","","canvas-button-response","262","373081","0.0-262.0","961","flower","","","","","","","","","","","","","","perceptual","","","2","14","","","","","236","flower","10","0","1",""
"","","","","","","","","","","","canvas-button-response","263","373780","0.0-263.0","696","10","","","","","","","","","","","","","","confidence","","","2","14","","","","","","","","","","15"
"","","","","","","","","","","","preload","264","373781","0.0-264.0","","","","","true","","","","","","","","","","","preload","","","2","15","false","[]","[]","[]","","","","","",""
"","","","","","","","","","","","canvas-keyboard-response","265","374091","0.0-265.0","null","null","","","","","","","","","","","","","","fixation","","","2","15","","","","","","","","","",""
"","","","","","","","","","","","canvas-keyboard-response","266","374393","0.0-266.0","null","null","","","","","","","","","","","","","","stimulus","","","2","15","","","","","","","","","",""
"","","","","","","","","","","","canvas-button-response","267","376477","0.0-267.0","2081","train","","","","","","","","","","","","","","perceptual","","","2","15","","","","","173","bridge","6","0","0",""
"","","","","","","","","","","","canvas-button-response","268","377122","0.0-268.0","643","2","","","","","","","","","","","","","","confidence","","","2","15","","","","","","","","","","15"
"","","","","","","","","","","","preload","269","377123","0.0-269.0","","","","","true","","","","","","","","","","","preload","","","2","16","false","[]","[]","[]","","","","","",""
"","","","","","","","","","","","canvas-keyboard-response","270","377426","0.0-270.0","null","null","","","","","","","","","","","","","","fixation","","","2","16","","","","","","","","","",""
"","","","","","","","","","","","canvas-keyboard-response","271","377736","0.0-271.0","null","null","","","","","","","","","","","","","","stimulus","","","2","16","","","","","","","","","",""
"","","","","","","","","","","","canvas-button-response","272","378614","0.0-272.0","877","train","","","","","","","","","","","","","","perceptual","","","2","16","","","","","248","train","6","0","1",""
"","","","","","","","","","","","canvas-button-response","273","379410","0.0-273.0","792","3","","","","","","","","","","","","","","confidence","","","2","16","","","","","","","","","","16"
"","","","","","","","","","","","preload","274","379411","0.0-274.0","","","","","true","","","","","","","","","","","preload","","","2","17","false","[]","[]","[]","","","","","",""
"","","","","","","","","","","","canvas-keyboard-response","275","379718","0.0-275.0","null","null","","","","","","","","","","","","","","fixation","","","2","17","","","","","","","","","",""
"","","","","","","","","","","","canvas-keyboard-response","276","380025","0.0-276.0","null","null","","","","","","","","","","","","","","stimulus","","","2","17","","","","","","","","","",""
"","","","","","","","","","","","canvas-button-response","277","381052","0.0-277.0","1024","flower","","","","","","","","","","","","","","perceptual","","","2","17","","","","","233","flower","10","0","1",""
"","","","","","","","","","","","canvas-button-response","278","381971","0.0-278.0","916","6","","","","","","","","","","","","","","confidence","","","2","17","","","","","","","","","","17"
"","","","","","","","","","","","preload","279","381972","0.0-279.0","","","","","true","","","","","","","","","","","preload","","","2","18","false","[]","[]","[]","","","","","",""
"","","","","","","","","","","","canvas-keyboard-response","280","382285","0.0-280.0","null","null","","","","","","","","","","","","","","fixation","","","2","18","","","","","","","","","",""
"","","","","","","","","","","","canvas-keyboard-response","281","382594","0.0-281.0","null","null","","","","","","","","","","","","","","stimulus","","","2","18","","","","","","","","","",""
"","","","","","","","","","","","canvas-button-response","282","384760","0.0-282.0","2163","knife","","","","","","","","","","","","","","perceptual","","","2","18","","","","","375","knife","6","0","1",""
"","","","","","","","","","","","canvas-button-response","283","385389","0.0-283.0","627","1","","","","","","","","","","","","","","confidence","","","2","18","","","","","","","","","","18"
"","","","","","","","","","","","preload","284","385390","0.0-284.0","","","","","true","","","","","","","","","","","preload","","","2","19","false","[]","[]","[]","","","","","",""
"","","","","","","","","","","","canvas-keyboard-response","285","385691","0.0-285.0","null","null","","","","","","","","","","","","","","fixation","","","2","19","","","","","","","","","",""
"","","","","","","","","","","","canvas-keyboard-response","286","385995","0.0-286.0","null","null","","","","","","","","","","","","","","stimulus","","","2","19","","","","","","","","","",""
"","","","","","","","","","","","canvas-button-response","287","388645","0.0-287.0","2647","house","","","","","","","","","","","","","","perceptual","","","2","19","","","","","5","house","6","0","1",""
"","","","","","","","","","","","canvas-button-response","288","389438","0.0-288.0","790","9","","","","","","","","","","","","","","confidence","","","2","19","","","","","","","","","","19"
"","","","","","","","","","","","preload","289","389439","0.0-289.0","","","","","true","","","","","","","","","","","preload","","","2","20","false","[]","[]","[]","","","","","",""
"","","","","","","","","","","","canvas-keyboard-response","290","389745","0.0-290.0","null","null","","","","","","","","","","","","","","fixation","","","2","20","","","","","","","","","",""
"","","","","","","","","","","","canvas-keyboard-response","291","390055","0.0-291.0","null","null","","","","","","","","","","","","","","stimulus","","","2","20","","","","","","","","","",""
"","","","","","","","","","","","canvas-button-response","292","390760","0.0-292.0","702","knife","","","","","","","","","","","","","","perceptual","","","2","20","","","","","379","knife","6","0","1",""
"","","","","","","","","","","","canvas-button-response","293","391369","0.0-293.0","605","10","","","","","","","","","","","","","","confidence","","","2","20","","","","","","","","","","20"
"","","","","","","","","","","","preload","294","391370","0.0-294.0","","","","","true","","","","","","","","","","","preload","","","2","21","false","[]","[]","[]","","","","","",""
"","","","","","","","","","","","canvas-keyboard-response","295","391673","0.0-295.0","null","null","","","","","","","","","","","","","","fixation","","","2","21","","","","","","","","","",""
"","","","","","","","","","","","canvas-keyboard-response","296","391985","0.0-296.0","null","null","","","","","","","","","","","","","","stimulus","","","2","21","","","","","","","","","",""
"","","","","","","","","","","","canvas-button-response","297","392970","0.0-297.0","983","flower","","","","","","","","","","","","","","perceptual","","","2","21","","","","","200","flower","6","0","1",""
"","","","","","","","","","","","canvas-button-response","298","393519","0.0-298.0","546","10","","","","","","","","","","","","","","confidence","","","2","21","","","","","","","","","","21"
"","","","","","","","","","","","preload","299","393520","0.0-299.0","","","","","true","","","","","","","","","","","preload","","","2","22","false","[]","[]","[]","","","","","",""
"","","","","","","","","","","","canvas-keyboard-response","300","393828","0.0-300.0","null","null","","","","","","","","","","","","","","fixation","","","2","22","","","","","","","","","",""
"","","","","","","","","","","","canvas-keyboard-response","301","394135","0.0-301.0","null","null","","","","","","","","","","","","","","stimulus","","","2","22","","","","","","","","","",""
"","","","","","","","","","","","canvas-button-response","302","394756","0.0-302.0","618","knife","","","","","","","","","","","","","","perceptual","","","2","22","","","","","380","knife","10","0","1",""
"","","","","","","","","","","","canvas-button-response","303","395309","0.0-303.0","550","10","","","","","","","","","","","","","","confidence","","","2","22","","","","","","","","","","22"
"","","","","","","","","","","","preload","304","395310","0.0-304.0","","","","","true","","","","","","","","","","","preload","","","2","23","false","[]","[]","[]","","","","","",""
"","","","","","","","","","","","canvas-keyboard-response","305","395619","0.0-305.0","null","null","","","","","","","","","","","","","","fixation","","","2","23","","","","","","","","","",""
"","","","","","","","","","","","canvas-keyboard-response","306","395924","0.0-306.0","null","null","","","","","","","","","","","","","","stimulus","","","2","23","","","","","","","","","",""
"","","","","","","","","","","","canvas-button-response","307","397565","0.0-307.0","1639","house","","","","","","","","","","","","","","perceptual","","","2","23","","","","","36","house","10","0","1",""
"","","","","","","","","","","","canvas-button-response","308","398321","0.0-308.0","754","9","","","","","","","","","","","","","","confidence","","","2","23","","","","","","","","","","23"
"","","","","","","","","","","","preload","309","398322","0.0-309.0","","","","","true","","","","","","","","","","","preload","","","2","24","false","[]","[]","[]","","","","","",""
"","","","","","","","","","","","canvas-keyboard-response","310","398625","0.0-310.0","null","null","","","","","","","","","","","","","","fixation","","","2","24","","","","","","","","","",""
"","","","","","","","","","","","canvas-keyboard-response","311","398935","0.0-311.0","null","null","","","","","","","","","","","","","","stimulus","","","2","24","","","","","","","","","",""
"","","","","","","","","","","","canvas-button-response","312","400852","0.0-312.0","1915","house","","","","","","","","","","","","","","perceptual","","","2","24","","","","","199","bridge","10","0","0",""
"","","","","","","","","","","","canvas-button-response","313","401431","0.0-313.0","578","1","","","","","","","","","","","","","","confidence","","","2","24","","","","","","","","","","23"
"","","","","","","","","","","","preload","314","401432","0.0-314.0","","","","","true","","","","","","","","","","","preload","","","2","25","false","[]","[]","[]","","","","","",""
"","","","","","","","","","","","canvas-keyboard-response","315","401740","0.0-315.0","null","null","","","","","","","","","","","","","","fixation","","","2","25","","","","","","","","","",""
"","","","","","","","","","","","canvas-keyboard-response","316","402048","0.0-316.0","null","null","","","","","","","","","","","","","","stimulus","","","2","25","","","","","","","","","",""
"","","","","","","","","","","","canvas-button-response","317","405918","0.0-317.0","3868","house","","","","","","","","","","","","","","perceptual","","","2","25","","","","","104","phone","10","0","0",""
"","","","","","","","","","","","canvas-button-response","318","406699","0.0-318.0","779","0","","","","","","","","","","","","","","confidence","","","2","25","","","","","","","","","","23"
"","","","","","","","","","","","preload","319","406700","0.0-319.0","","","","","true","","","","","","","","","","","preload","","","2","26","false","[]","[]","[]","","","","","",""
"","","","","","","","","","","","canvas-keyboard-response","320","407005","0.0-320.0","null","null","","","","","","","","","","","","","","fixation","","","2","26","","","","","","","","","",""
"","","","","","","","","","","","canvas-keyboard-response","321","407315","0.0-321.0","null","null","","","","","","","","","","","","","","stimulus","","","2","26","","","","","","","","","",""
"","","","","","","","","","","","canvas-button-response","322","408818","0.0-322.0","1501","elephant","","","","","","","","","","","","","","perceptual","","","2","26","","","","","337","elephant","6","0","1",""
"","","","","","","","","","","","canvas-button-response","323","409287","0.0-323.0","466","10","","","","","","","","","","","","","","confidence","","","2","26","","","","","","","","","","24"
"","","","","","","","","","","","preload","324","409288","0.0-324.0","","","","","true","","","","","","","","","","","preload","","","2","27","false","[]","[]","[]","","","","","",""
"","","","","","","","","","","","canvas-keyboard-response","325","409593","0.0-325.0","null","null","","","","","","","","","","","","","","fixation","","","2","27","","","","","","","","","",""
"","","","","","","","","","","","canvas-keyboard-response","326","409895","0.0-326.0","null","null","","","","","","","","","","","","","","stimulus","","","2","27","","","","","","","","","",""
"","","","","","","","","","","","canvas-button-response","327","410831","0.0-327.0","934","flower","","","","","","","","","","","","","","perceptual","","","2","27","","","","","203","flower","6","0","1",""
"","","","","","","","","","","","canvas-button-response","328","411382","0.0-328.0","548","10","","","","","","","","","","","","","","confidence","","","2","27","","","","","","","","","","25"
"","","","","","","","","","","","preload","329","411384","0.0-329.0","","","","","true","","","","","","","","","","","preload","","","2","28","false","[]","[]","[]","","","","","",""
"","","","","","","","","","","","canvas-keyboard-response","330","411694","0.0-330.0","null","null","","","","","","","","","","","","","","fixation","","","2","28","","","","","","","","","",""
"","","","","","","","","","","","canvas-keyboard-response","331","411998","0.0-331.0","null","null","","","","","","","","","","","","","","stimulus","","","2","28","","","","","","","","","",""
"","","","","","","","","","","","canvas-button-response","332","414068","0.0-332.0","2068","cat","","","","","","","","","","","","","","perceptual","","","2","28","","","","","313","cat","10","0","1",""
"","","","","","","","","","","","canvas-button-response","333","414863","0.0-333.0","793","1","","","","","","","","","","","","","","confidence","","","2","28","","","","","","","","","","26"
"","","","","","","","","","","","preload","334","414864","0.0-334.0","","","","","true","","","","","","","","","","","preload","","","2","29","false","[]","[]","[]","","","","","",""
"","","","","","","","","","","","canvas-keyboard-response","335","415170","0.0-335.0","null","null","","","","","","","","","","","","","","fixation","","","2","29","","","","","","","","","",""
"","","","","","","","","","","","canvas-keyboard-response","336","415487","0.0-336.0","null","null","","","","","","","","","","","","","","stimulus","","","2","29","","","","","","","","","",""
"","","","","","","","","","","","canvas-button-response","337","416280","0.0-337.0","790","flower","","","","","","","","","","","","","","perceptual","","","2","29","","","","","213","flower","6","0","1",""
"","","","","","","","","","","","canvas-button-response","338","416936","0.0-338.0","654","10","","","","","","","","","","","","","","confidence","","","2","29","","","","","","","","","","27"
"","","","","","","","","","","","preload","339","416937","0.0-339.0","","","","","true","","","","","","","","","","","preload","","","2","30","false","[]","[]","[]","","","","","",""
"","","","","","","","","","","","canvas-keyboard-response","340","417241","0.0-340.0","null","null","","","","","","","","","","","","","","fixation","","","2","30","","","","","","","","","",""
"","","","","","","","","","","","canvas-keyboard-response","341","417556","0.0-341.0","null","null","","","","","","","","","","","","","","stimulus","","","2","30","","","","","","","","","",""
"","","","","","","","","","","","canvas-button-response","342","419448","0.0-342.0","1890","elephant","","","","","","","","","","","","","","perceptual","","","2","30","","","","","327","elephant","6","0","1",""
"","","","","","","","","","","","canvas-button-response","343","420000","0.0-343.0","549","10","","","","","","","","","","","","","","confidence","","","2","30","","","","","","","","","","28"
"","","","","","","","","","","","preload","344","420001","0.0-344.0","","","","","true","","","","","","","","","","","preload","","","2","31","false","[]","[]","[]","","","","","",""
"","","","","","","","","","","","canvas-keyboard-response","345","420308","0.0-345.0","null","null","","","","","","","","","","","","","","fixation","","","2","31","","","","","","","","","",""
"","","","","","","","","","","","canvas-keyboard-response","346","420611","0.0-346.0","null","null","","","","","","","","","","","","","","stimulus","","","2","31","","","","","","","","","",""
"","","","","","","","","","","","canvas-button-response","347","424427","0.0-347.0","3813","knife","","","","","","","","","","","","","","perceptual","","","2","31","","","","","31","house","10","0","0",""
"","","","","","","","","","","","canvas-button-response","348","425266","0.0-348.0","837","0","","","","","","","","","","","","","","confidence","","","2","31","","","","","","","","","","28"
"","","","","","","","","","","","preload","349","425267","0.0-349.0","","","","","true","","","","","","","","","","","preload","","","2","32","false","[]","[]","[]","","","","","",""
"","","","","","","","","","","","canvas-keyboard-response","350","425570","0.0-350.0","null","null","","","","","","","","","","","","","","fixation","","","2","32","","","","","","","","","",""
"","","","","","","","","","","","canvas-keyboard-response","351","425885","0.0-351.0","null","null","","","","","","","","","","","","","","stimulus","","","2","32","","","","","","","","","",""
"","","","","","","","","","","","canvas-button-response","352","426694","0.0-352.0","806","knife","","","","","","","","","","","","","","perceptual","","","2","32","","","","","385","knife","10","0","1",""
"","","","","","","","","","","","canvas-button-response","353","427231","0.0-353.0","535","9","","","","","","","","","","","","","","confidence","","","2","32","","","","","","","","","","29"
"","","","","","","","","","","","preload","354","427232","0.0-354.0","","","","","true","","","","","","","","","","","preload","","","2","33","false","[]","[]","[]","","","","","",""
"","","","","","","","","","","","canvas-keyboard-response","355","427540","0.0-355.0","null","null","","","","","","","","","","","","","","fixation","","","2","33","","","","","","","","","",""
"","","","","","","","","","","","canvas-keyboard-response","356","427855","0.0-356.0","null","null","","","","","","","","","","","","","","stimulus","","","2","33","","","","","","","","","",""
"","","","","","","","","","","","canvas-button-response","357","429275","0.0-357.0","1416","bed","","","","","","","","","","","","","","perceptual","","","2","33","","","","","138","bed","6","0","1",""
"","","","","","","","","","","","canvas-button-response","358","430034","0.0-358.0","756","8","","","","","","","","","","","","","","confidence","","","2","33","","","","","","","","","","30"
"","","","","","","","","","","","preload","359","430036","0.0-359.0","","","","","true","","","","","","","","","","","preload","","","2","34","false","[]","[]","[]","","","","","",""
"","","","","","","","","","","","canvas-keyboard-response","360","430343","0.0-360.0","null","null","","","","","","","","","","","","","","fixation","","","2","34","","","","","","","","","",""
"","","","","","","","","","","","canvas-keyboard-response","361","430647","0.0-361.0","null","null","","","","","","","","","","","","","","stimulus","","","2","34","","","","","","","","","",""
"","","","","","","","","","","","canvas-button-response","362","432914","0.0-362.0","2263","flower","","","","","","","","","","","","","","perceptual","","","2","34","","","","","294","cat","6","0","0",""
"","","","","","","","","","","","canvas-button-response","363","433657","0.0-363.0","741","0","","","","","","","","","","","","","","confidence","","","2","34","","","","","","","","","","30"
"","","","","","","","","","","","preload","364","433658","0.0-364.0","","","","","true","","","","","","","","","","","preload","","","2","35","false","[]","[]","[]","","","","","",""
"","","","","","","","","","","","canvas-keyboard-response","365","433960","0.0-365.0","null","null","","","","","","","","","","","","","","fixation","","","2","35","","","","","","","","","",""
"","","","","","","","","","","","canvas-keyboard-response","366","434266","0.0-366.0","null","null","","","","","","","","","","","","","","stimulus","","","2","35","","","","","","","","","",""
"","","","","","","","","","","","canvas-button-response","367","435611","0.0-367.0","1343","house","","","","","","","","","","","","","","perceptual","","","2","35","","","","","316","cat","10","0","0",""
"","","","","","","","","","","","canvas-button-response","368","436227","0.0-368.0","613","8","","","","","","","","","","","","","","confidence","","","2","35","","","","","","","","","","30"
"","","","","","","","","","","","preload","369","436228","0.0-369.0","","","","","true","","","","","","","","","","","preload","","","2","36","false","[]","[]","[]","","","","","",""
"","","","","","","","","","","","canvas-keyboard-response","370","436533","0.0-370.0","null","null","","","","","","","","","","","","","","fixation","","","2","36","","","","","","","","","",""
"","","","","","","","","","","","canvas-keyboard-response","371","436839","0.0-371.0","null","null","","","","","","","","","","","","","","stimulus","","","2","36","","","","","","","","","",""
"","","","","","","","","","","","canvas-button-response","372","438096","0.0-372.0","1255","bed","","","","","","","","","","","","","","perceptual","","","2","36","","","","","147","bed","10","0","1",""
"","","","","","","","","","","","canvas-button-response","373","438644","0.0-373.0","546","10","","","","","","","","","","","","","","confidence","","","2","36","","","","","","","","","","31"
"","","","","","","","","","","","preload","374","438645","0.0-374.0","","","","","true","","","","","","","","","","","preload","","","2","37","false","[]","[]","[]","","","","","",""
"","","","","","","","","","","","canvas-keyboard-response","375","438949","0.0-375.0","null","null","","","","","","","","","","","","","","fixation","","","2","37","","","","","","","","","",""
"","","","","","","","","","","","canvas-keyboard-response","376","439254","0.0-376.0","null","null","","","","","","","","","","","","","","stimulus","","","2","37","","","","","","","","","",""
"","","","","","","","","","","","canvas-button-response","377","440805","0.0-377.0","1549","house","","","","","","","","","","","","","","perceptual","","","2","37","","","","","15","house","6","0","1",""
"","","","","","","","","","","","canvas-button-response","378","441330","0.0-378.0","522","10","","","","","","","","","","","","","","confidence","","","2","37","","","","","","","","","","32"
"","","","","","","","","","","","preload","379","441330","0.0-379.0","","","","","true","","","","","","","","","","","preload","","","2","38","false","[]","[]","[]","","","","","",""
"","","","","","","","","","","","canvas-keyboard-response","380","441638","0.0-380.0","null","null","","","","","","","","","","","","","","fixation","","","2","38","","","","","","","","","",""
"","","","","","","","","","","","canvas-keyboard-response","381","441947","0.0-381.0","null","null","","","","","","","","","","","","","","stimulus","","","2","38","","","","","","","","","",""
"","","","","","","","","","","","canvas-button-response","382","444359","0.0-382.0","2411","house","","","","","","","","","","","","","","perceptual","","","2","38","","","","","150","bed","10","0","0",""
"","","","","","","","","","","","canvas-button-response","383","445368","0.0-383.0","1008","1","","","","","","","","","","","","","","confidence","","","2","38","","","","","","","","","","32"
"","","","","","","","","","","","preload","384","445369","0.0-384.0","","","","","true","","","","","","","","","","","preload","","","2","39","false","[]","[]","[]","","","","","",""
"","","","","","","","","","","","canvas-keyboard-response","385","445681","0.0-385.0","null","null","","","","","","","","","","","","","","fixation","","","2","39","","","","","","","","","",""
"","","","","","","","","","","","canvas-keyboard-response","386","445991","0.0-386.0","null","null","","","","","","","","","","","","","","stimulus","","","2","39","","","","","","","","","",""
"","","","","","","","","","","","canvas-button-response","387","447428","0.0-387.0","1434","train","","","","","","","","","","","","","","perceptual","","","2","39","","","","","275","train","10","0","1",""
"","","","","","","","","","","","canvas-button-response","388","448537","0.0-388.0","1106","9","","","","","","","","","","","","","","confidence","","","2","39","","","","","","","","","","33"
"","","","","","","","","","","","preload","389","448537","0.0-389.0","","","","","true","","","","","","","","","","","preload","","","2","40","false","[]","[]","[]","","","","","",""
"","","","","","","","","","","","canvas-keyboard-response","390","448847","0.0-390.0","null","null","","","","","","","","","","","","","","fixation","","","2","40","","","","","","","","","",""
"","","","","","","","","","","","canvas-keyboard-response","391","449157","0.0-391.0","null","null","","","","","","","","","","","","","","stimulus","","","2","40","","","","","","","","","",""
"","","","","","","","","","","","canvas-button-response","392","452420","0.0-392.0","3261","house","","","","","","","","","","","","","","perceptual","","","2","40","","","","","90","phone","6","0","0",""
"","","","","","","","","","","","canvas-button-response","393","453104","0.0-393.0","683","0","","","","","","","","","","","","","","confidence","","","2","40","","","","","","","","","","33"
"","","","","","","","","","","","preload","394","453105","0.0-394.0","","","","","true","","","","","","","","","","","preload","","","2","41","false","[]","[]","[]","","","","","",""
"","","","","","","","","","","","canvas-keyboard-response","395","453414","0.0-395.0","null","null","","","","","","","","","","","","","","fixation","","","2","41","","","","","","","","","",""
"","","","","","","","","","","","canvas-keyboard-response","396","453730","0.0-396.0","null","null","","","","","","","","","","","","","","stimulus","","","2","41","","","","","","","","","",""
"","","","","","","","","","","","canvas-button-response","397","454419","0.0-397.0","688","car","","","","","","","","","","","","","","perceptual","","","2","41","","","","","70","car","10","0","1",""
"","","","","","","","","","","","canvas-button-response","398","455153","0.0-398.0","731","10","","","","","","","","","","","","","","confidence","","","2","41","","","","","","","","","","34"
"","","","","","","","","","","","preload","399","455154","0.0-399.0","","","","","true","","","","","","","","","","","preload","","","2","42","false","[]","[]","[]","","","","","",""
"","","","","","","","","","","","canvas-keyboard-response","400","455471","0.0-400.0","null","null","","","","","","","","","","","","","","fixation","","","2","42","","","","","","","","","",""
"","","","","","","","","","","","canvas-keyboard-response","401","455782","0.0-401.0","null","null","","","","","","","","","","","","","","stimulus","","","2","42","","","","","","","","","",""
"","","","","","","","","","","","canvas-button-response","402","459053","0.0-402.0","3267","knife","","","","","","","","","","","","","","perceptual","","","2","42","","","","","291","cat","6","0","0",""
"","","","","","","","","","","","canvas-button-response","403","459547","0.0-403.0","492","1","","","","","","","","","","","","","","confidence","","","2","42","","","","","","","","","","34"
"","","","","","","","","","","","preload","404","459548","0.0-404.0","","","","","true","","","","","","","","","","","preload","","","2","43","false","[]","[]","[]","","","","","",""
"","","","","","","","","","","","canvas-keyboard-response","405","459856","0.0-405.0","null","null","","","","","","","","","","","","","","fixation","","","2","43","","","","","","","","","",""
"","","","","","","","","","","","canvas-keyboard-response","406","460165","0.0-406.0","null","null","","","","","","","","","","","","","","stimulus","","","2","43","","","","","","","","","",""
"","","","","","","","","","","","canvas-button-response","407","461518","0.0-407.0","1351","elephant","","","","","","","","","","","","","","perceptual","","","2","43","","","","","331","elephant","6","0","1",""
"","","","","","","","","","","","canvas-button-response","408","462190","0.0-408.0","668","10","","","","","","","","","","","","","","confidence","","","2","43","","","","","","","","","","35"
"","","","","","","","","","","","preload","409","462192","0.0-409.0","","","","","true","","","","","","","","","","","preload","","","2","44","false","[]","[]","[]","","","","","",""
"","","","","","","","","","","","canvas-keyboard-response","410","462499","0.0-410.0","null","null","","","","","","","","","","","","","","fixation","","","2","44","","","","","","","","","",""
"","","","","","","","","","","","canvas-keyboard-response","411","462808","0.0-411.0","null","null","","","","","","","","","","","","","","stimulus","","","2","44","","","","","","","","","",""
"","","","","","","","","","","","canvas-button-response","412","465059","0.0-412.0","2249","bed","","","","","","","","","","","","","","perceptual","","","2","44","","","","","38","house","10","0","0",""
"","","","","","","","","","","","canvas-button-response","413","465811","0.0-413.0","749","1","","","","","","","","","","","","","","confidence","","","2","44","","","","","","","","","","35"
"","","","","","","","","","","","preload","414","465812","0.0-414.0","","","","","true","","","","","","","","","","","preload","","","2","45","false","[]","[]","[]","","","","","",""
"","","","","","","","","","","","canvas-keyboard-response","415","466126","0.0-415.0","null","null","","","","","","","","","","","","","","fixation","","","2","45","","","","","","","","","",""
"","","","","","","","","","","","canvas-keyboard-response","416","466439","0.0-416.0","null","null","","","","","","","","","","","","","","stimulus","","","2","45","","","","","","","","","",""
"","","","","","","","","","","","canvas-button-response","417","467209","0.0-417.0","769","car","","","","","","","","","","","","","","perceptual","","","2","45","","","","","78","car","10","0","1",""
"","","","","","","","","","","","canvas-button-response","418","467995","0.0-418.0","784","10","","","","","","","","","","","","","","confidence","","","2","45","","","","","","","","","","36"
"","","","","","","","","","","","preload","419","467996","0.0-419.0","","","","","true","","","","","","","","","","","preload","","","2","46","false","[]","[]","[]","","","","","",""
"","","","","","","","","","","","canvas-keyboard-response","420","468305","0.0-420.0","null","null","","","","","","","","","","","","","","fixation","","","2","46","","","","","","","","","",""
"","","","","","","","","","","","canvas-keyboard-response","421","468611","0.0-421.0","null","null","","","","","","","","","","","","","","stimulus","","","2","46","","","","","","","","","",""
"","","","","","","","","","","","canvas-button-response","422","469596","0.0-422.0","982","elephant","","","","","","","","","","","","","","perceptual","","","2","46","","","","","353","elephant","10","0","1",""
"","","","","","","","","","","","canvas-button-response","423","470234","0.0-423.0","635","10","","","","","","","","","","","","","","confidence","","","2","46","","","","","","","","","","37"
"","","","","","","","","","","","preload","424","470235","0.0-424.0","","","","","true","","","","","","","","","","","preload","","","2","47","false","[]","[]","[]","","","","","",""
"","","","","","","","","","","","canvas-keyboard-response","425","470539","0.0-425.0","null","null","","","","","","","","","","","","","","fixation","","","2","47","","","","","","","","","",""
"","","","","","","","","","","","canvas-keyboard-response","426","470855","0.0-426.0","null","null","","","","","","","","","","","","","","stimulus","","","2","47","","","","","","","","","",""
"","","","","","","","","","","","canvas-button-response","427","471764","0.0-427.0","906","bed","","","","","","","","","","","","","","perceptual","","","2","47","","","","","121","bed","6","0","1",""
"","","","","","","","","","","","canvas-button-response","428","472458","0.0-428.0","690","10","","","","","","","","","","","","","","confidence","","","2","47","","","","","","","","","","38"
"","","","","","","","","","","","preload","429","472460","0.0-429.0","","","","","true","","","","","","","","","","","preload","","","2","48","false","[]","[]","[]","","","","","",""
"","","","","","","","","","","","canvas-keyboard-response","430","472762","0.0-430.0","null","null","","","","","","","","","","","","","","fixation","","","2","48","","","","","","","","","",""
"","","","","","","","","","","","canvas-keyboard-response","431","473066","0.0-431.0","null","null","","","","","","","","","","","","","","stimulus","","","2","48","","","","","","","","","",""
"","","","","","","","","","","","canvas-button-response","432","476557","0.0-432.0","3489","knife","","","","","","","","","","","","","","perceptual","","","2","48","","","","","372","knife","6","0","1",""
"","","","","","","","","","","","canvas-button-response","433","477243","0.0-433.0","683","1","","","","","","","","","","","","","","confidence","","","2","48","","","","","","","","","","39"
"","","","","","","","","","","","preload","434","477244","0.0-434.0","","","","","true","","","","","","","","","","","preload","","","2","49","false","[]","[]","[]","","","","","",""
"","","","","","","","","","","","canvas-keyboard-response","435","477549","0.0-435.0","null","null","","","","","","","","","","","","","","fixation","","","2","49","","","","","","","","","",""
"","","","","","","","","","","","canvas-keyboard-response","436","477865","0.0-436.0","null","null","","","","","","","","","","","","","","stimulus","","","2","49","","","","","","","","","",""
"","","","","","","","","","","","canvas-button-response","437","478721","0.0-437.0","854","flower","","","","","","","","","","","","","","perceptual","","","2","49","","","","","202","flower","6","0","1",""
"","","","","","","","","","","","canvas-button-response","438","479425","0.0-438.0","702","10","","","","","","","","","","","","","","confidence","","","2","49","","","","","","","","","","40"
"","","","","","","","","","","","html-button-response","439","922896","0.0-439.0","443468","0","","","","","","","","","","","","","","<p style=""font-size:20px;color:#000000"">You got 40 out of 50 trials correct in this block.<br><br>You have completed 6% of the experiment.<br><br>Take a short break.<br><br>When you are ready, click Continue to proceed.","","","2","49","","","","","","","","","",""
"","","","","","","","","","","","html-keyboard-response","440","923908","0.0-440.0","null","null","","","","","","","","","","","","","","<p style=""font-size:32px;color:#000000""><br><br> RUN: &nbsp 1/4 <br><br> BLOCK: 2/4 ","","","2","49","","","","","","","","","",""
"","","","","","","","","","","","preload","441","923909","0.0-441.0","","","","","true","","","","","","","","","","","preload","","","2","50","false","[]","[]","[]","","","","","",""
"","","","","","","","","","","","canvas-keyboard-response","442","924216","0.0-442.0","null","null","","","","","","","","","","","","","","fixation","","","2","50","","","","","","","","","",""
"","","","","","","","","","","","canvas-keyboard-response","443","924522","0.0-443.0","null","null","","","","","","","","","","","","","","stimulus","","","2","50","","","","","","","","","",""
"","","","","","","","","","","","canvas-button-response","444","926939","0.0-444.0","2415","knife","","","","","","","","","","","","","","perceptual","","","2","50","","","","","146","bed","10","0","0",""
"","","","","","","","","","","","canvas-button-response","445","927774","0.0-445.0","834","2","","","","","","","","","","","","","","confidence","","","2","50","","","","","","","","","","0"
"","","","","","","","","","","","preload","446","927775","0.0-446.0","","","","","true","","","","","","","","","","","preload","","","2","51","false","[]","[]","[]","","","","","",""
"","","","","","","","","","","","canvas-keyboard-response","447","928078","0.0-447.0","null","null","","","","","","","","","","","","","","fixation","","","2","51","","","","","","","","","",""
"","","","","","","","","","","","canvas-keyboard-response","448","928383","0.0-448.0","null","null","","","","","","","","","","","","","","stimulus","","","2","51","","","","","","","","","",""
"","","","","","","","","","","","canvas-button-response","449","929103","0.0-449.0","717","knife","","","","","","","","","","","","","","perceptual","","","2","51","","","","","387","knife","10","0","1",""
"","","","","","","","","","","","canvas-button-response","450","929726","0.0-450.0","622","9","","","","","","","","","","","","","","confidence","","","2","51","","","","","","","","","","1"
"","","","","","","","","","","","preload","451","929727","0.0-451.0","","","","","true","","","","","","","","","","","preload","","","2","52","false","[]","[]","[]","","","","","",""
"","","","","","","","","","","","canvas-keyboard-response","452","930028","0.0-452.0","null","null","","","","","","","","","","","","","","fixation","","","2","52","","","","","","","","","",""
"","","","","","","","","","","","canvas-keyboard-response","453","930337","0.0-453.0","null","null","","","","","","","","","","","","","","stimulus","","","2","52","","","","","","","","","",""
"","","","","","","","","","","","canvas-button-response","454","930973","0.0-454.0","634","car","","","","","","","","","","","","","","perceptual","","","2","52","","","","","61","car","10","0","1",""
"","","","","","","","","","","","canvas-button-response","455","931479","0.0-455.0","504","10","","","","","","","","","","","","","","confidence","","","2","52","","","","","","","","","","2"
"","","","","","","","","","","","preload","456","931479","0.0-456.0","","","","","true","","","","","","","","","","","preload","","","2","53","false","[]","[]","[]","","","","","",""
"","","","","","","","","","","","canvas-keyboard-response","457","931784","0.0-457.0","null","null","","","","","","","","","","","","","","fixation","","","2","53","","","","","","","","","",""
"","","","","","","","","","","","canvas-keyboard-response","458","932093","0.0-458.0","null","null","","","","","","","","","","","","","","stimulus","","","2","53","","","","","","","","","",""
"","","","","","","","","","","","canvas-button-response","459","934204","0.0-459.0","2110","elephant","","","","","","","","","","","","","","perceptual","","","2","53","","","","","287","cat","6","0","0",""
"","","","","","","","","","","","canvas-button-response","460","935052","0.0-460.0","847","7","","","","","","","","","","","","","","confidence","","","2","53","","","","","","","","","","2"
"","","","","","","","","","","","preload","461","935053","0.0-461.0","","","","","true","","","","","","","","","","","preload","","","2","54","false","[]","[]","[]","","","","","",""
"","","","","","","","","","","","canvas-keyboard-response","462","935361","0.0-462.0","null","null","","","","","","","","","","","","","","fixation","","","2","54","","","","","","","","","",""
"","","","","","","","","","","","canvas-keyboard-response","463","935668","0.0-463.0","null","null","","","","","","","","","","","","","","stimulus","","","2","54","","","","","","","","","",""
"","","","","","","","","","","","canvas-button-response","464","938798","0.0-464.0","3128","train","","","","","","","","","","","","","","perceptual","","","2","54","","","","","265","train","10","0","1",""
"","","","","","","","","","","","canvas-button-response","465","939466","0.0-465.0","665","2","","","","","","","","","","","","","","confidence","","","2","54","","","","","","","","","","3"
"","","","","","","","","","","","preload","466","939466","0.0-466.0","","","","","true","","","","","","","","","","","preload","","","2","55","false","[]","[]","[]","","","","","",""
"","","","","","","","","","","","canvas-keyboard-response","467","939768","0.0-467.0","null","null","","","","","","","","","","","","","","fixation","","","2","55","","","","","","","","","",""
"","","","","","","","","","","","canvas-keyboard-response","468","940071","0.0-468.0","null","null","","","","","","","","","","","","","","stimulus","","","2","55","","","","","","","","","",""
"","","","","","","","","","","","canvas-button-response","469","940912","0.0-469.0","839","cat","","","","","","","","","","","","","","perceptual","","","2","55","","","","","71","car","10","0","0",""
"","","","","","","","","","","","canvas-button-response","470","941627","0.0-470.0","714","2","","","","","","","","","","","","","","confidence","","","2","55","","","","","","","","","","3"
"","","","","","","","","","","","preload","471","941627","0.0-471.0","","","","","true","","","","","","","","","","","preload","","","2","56","false","[]","[]","[]","","","","","",""
"","","","","","","","","","","","canvas-keyboard-response","472","941936","0.0-472.0","null","null","","","","","","","","","","","","","","fixation","","","2","56","","","","","","","","","",""
"","","","","","","","","","","","canvas-keyboard-response","473","942239","0.0-473.0","null","null","","","","","","","","","","","","","","stimulus","","","2","56","","","","","","","","","",""
"","","","","","","","","","","","canvas-button-response","474","943697","0.0-474.0","1456","bed","","","","","","","","","","","","","","perceptual","","","2","56","","","","","123","bed","6","0","1",""
"","","","","","","","","","","","canvas-button-response","475","944298","0.0-475.0","599","6","","","","","","","","","","","","","","confidence","","","2","56","","","","","","","","","","4"
"","","","","","","","","","","","preload","476","944298","0.0-476.0","","","","","true","","","","","","","","","","","preload","","","2","57","false","[]","[]","[]","","","","","",""
"","","","","","","","","","","","canvas-keyboard-response","477","944603","0.0-477.0","null","null","","","","","","","","","","","","","","fixation","","","2","57","","","","","","","","","",""
"","","","","","","","","","","","canvas-keyboard-response","478","944910","0.0-478.0","null","null","","","","","","","","","","","","","","stimulus","","","2","57","","","","","","","","","",""
"","","","","","","","","","","","canvas-button-response","479","945769","0.0-479.0","857","cat","","","","","","","","","","","","","","perceptual","","","2","57","","","","","283","cat","6","0","1",""
"","","","","","","","","","","","canvas-button-response","480","946245","0.0-480.0","475","9","","","","","","","","","","","","","","confidence","","","2","57","","","","","","","","","","5"
"","","","","","","","","","","","preload","481","946246","0.0-481.0","","","","","true","","","","","","","","","","","preload","","","2","58","false","[]","[]","[]","","","","","",""
"","","","","","","","","","","","canvas-keyboard-response","482","946551","0.0-482.0","null","null","","","","","","","","","","","","","","fixation","","","2","58","","","","","","","","","",""
"","","","","","","","","","","","canvas-keyboard-response","483","946859","0.0-483.0","null","null","","","","","","","","","","","","","","stimulus","","","2","58","","","","","","","","","",""
"","","","","","","","","","","","canvas-button-response","484","947909","0.0-484.0","1049","cat","","","","","","","","","","","","","","perceptual","","","2","58","","","","","304","cat","10","0","1",""
"","","","","","","","","","","","canvas-button-response","485","948452","0.0-485.0","541","10","","","","","","","","","","","","","","confidence","","","2","58","","","","","","","","","","6"
"","","","","","","","","","","","preload","486","948453","0.0-486.0","","","","","true","","","","","","","","","","","preload","","","2","59","false","[]","[]","[]","","","","","",""
"","","","","","","","","","","","canvas-keyboard-response","487","948754","0.0-487.0","null","null","","","","","","","","","","","","","","fixation","","","2","59","","","","","","","","","",""
"","","","","","","","","","","","canvas-keyboard-response","488","949065","0.0-488.0","null","null","","","","","","","","","","","","","","stimulus","","","2","59","","","","","","","","","",""
"","","","","","","","","","","","canvas-button-response","489","949941","0.0-489.0","875","flower","","","","","","","","","","","","","","perceptual","","","2","59","","","","","210","flower","6","0","1",""
"","","","","","","","","","","","canvas-button-response","490","951068","0.0-490.0","1126","10","","","","","","","","","","","","","","confidence","","","2","59","","","","","","","","","","7"
"","","","","","","","","","","","preload","491","951068","0.0-491.0","","","","","true","","","","","","","","","","","preload","","","2","60","false","[]","[]","[]","","","","","",""
"","","","","","","","","","","","canvas-keyboard-response","492","951370","0.0-492.0","null","null","","","","","","","","","","","","","","fixation","","","2","60","","","","","","","","","",""
"","","","","","","","","","","","canvas-keyboard-response","493","951676","0.0-493.0","null","null","","","","","","","","","","","","","","stimulus","","","2","60","","","","","","","","","",""
