"width","height","webaudio","browser","browser_version","mobile","os","fullscreen","vsync_rate","webcam","microphone","trial_type","trial_index","time_elapsed","internal_node_id","rt","response","accuracy","view_history","success","item_width_mm","item_height_mm","item_width_px","px2mm","view_dist_mm","item_width_deg","px2deg","scale_factor","win_width_deg","win_height_deg","stimulus","datetime","subjectID","curr_triallist","trial_no","timeout","failed_images","failed_audio","failed_video","image_index","category","blur","reps","correct","running_score"
"1920","911","true","chrome","141.0.0","false","Windows 10","true","366.97","true","true","browser-check","0","500","0.0-0.0","","","","","","","","","","","","","","","","","","","","","","","","","","","","","",""
"","","","","","","","","","","","survey","1","617764","0.0-1.0","617242","{""P0_Q0"":""903885535"",""P0_Q1"":""20"",""P1_Q0"":""Male"",""P1_Q1"":""Prefer not to say"",""P1_Q2"":""More than one race"",""P1_Q3"":""Normal"",""P1_Q4"":""Right-Handed""}","[]","","","","","","","","","","","","","","","","","","","","","","","","","","",""
"","","","","","","","","","","","instructions","2","794923","0.0-2.0","177159","","","[{""page_index"":0,""viewing_time"":936},{""page_index"":1,""viewing_time"":726},{""page_index"":2,""viewing_time"":881},{""page_index"":3,""viewing_time"":174615}]","","","","","","","","","","","","","","","","","","","","","","","","","",""
"","","","","","","","","","","","fullscreen","3","796985","0.0-3.0","1056","","","","true","","","","","","","","","","","","","","","","","","","","","","","","",""
"","","","","","","","","","","","virtual-chinrest","4","867359","0.0-4.0","70374","","","","","85.6","53.98","80.5302572952639","0.9395196684447454","1826.75","2.68434190984213","30","3.799814011248618","64","36","","","","","","","","","","","","","","",""
"","","","","","","","","","","","instructions","5","981935","0.0-5.0","114575","","","[{""page_index"":0,""viewing_time"":13316},{""page_index"":1,""viewing_time"":8101},{""page_index"":2,""viewing_time"":17526},{""page_index"":3,""viewing_time"":7132},{""page_index"":4,""viewing_time"":13868},{""page_index"":5,""viewing_time"":53499},{""page_index"":6,""viewing_time"":1134}]","","","","","","","","","","","","","","","","","","","","","","","","","",""
"","","","","","","","","","","","html-button-response","6","1007422","0.0-6.0","25485","0","","","","","","","","","","","","","","start_practice","Thu Oct 09 2025 20:33:32 GMT-0400 (Eastern Daylight Time)","27594","","","","","","","","","","","",""
"","","","","","","","","","","","preload","7","1007422","0.0-7.0","","","","","true","","","","","","","","","","","preload","","","0","0","false","[]","[]","[]","","","","","",""
"","","","","","","","","","","","canvas-keyboard-response","8","1007724","0.0-8.0","null","null","","","","","","","","","","","","","","fixation","","","0","0","","","","","","","","","",""
"","","","","","","","","","","","canvas-keyboard-response","9","1008031","0.0-9.0","null","null","","","","","","","","","","","","","","stimulus","","","0","0","","","","","","","","","",""
"","","","","","","","","","","","canvas-button-response","10","1022771","0.0-10.0","14739","bed","","","","","","","","","","","","","","perceptual","","","0","0","","","","","92","knife","1","","0",""
"","","","","","","","","","","","canvas-button-response","11","1025393","0.0-11.0","2621","1","","","","","","","","","","","","","","confidence","","","0","0","","","","","","","","","","0"
"","","","","","","","","","","","html-keyboard-response","12","1026398","0.0-12.0","null","null","","","","","","","","","","","","","","feedback","Thu Oct 09 2025 20:34:15 GMT-0400 (Eastern Daylight Time)","27594","0","0","","","","","","","","","",""
"","","","","","","","","","","","preload","13","1026399","0.0-13.0","","","","","true","","","","","","","","","","","preload","","","0","1","false","[]","[]","[]","","","","","",""
"","","","","","","","","","","","canvas-keyboard-response","14","1026711","0.0-14.0","null","null","","","","","","","","","","","","","","fixation","","","0","1","","","","","","","","","",""
"","","","","","","","","","","","canvas-keyboard-response","15","1027021","0.0-15.0","null","null","","","","","","","","","","","","","","stimulus","","","0","1","","","","","","","","","",""
"","","","","","","","","","","","canvas-button-response","16","1032193","0.0-16.0","5171","cat","","","","","","","","","","","","","","perceptual","","","0","1","","","","","2","house","1","","0",""
"","","","","","","","","","","","canvas-button-response","17","1033980","0.0-17.0","1786","1","","","","","","","","","","","","","","confidence","","","0","1","","","","","","","","","","0"
"","","","","","","","","","","","html-keyboard-response","18","1034990","0.0-18.0","null","null","","","","","","","","","","","","","","feedback","Thu Oct 09 2025 20:34:24 GMT-0400 (Eastern Daylight Time)","27594","0","1","","","","","","","","","",""
"","","","","","","","","","","","preload","19","1034991","0.0-19.0","","","","","true","","","","","","","","","","","preload","","","0","2","false","[]","[]","[]","","","","","",""
"","","","","","","","","","","","canvas-keyboard-response","20","1035300","0.0-20.0","null","null","","","","","","","","","","","","","","fixation","","","0","2","","","","","","","","","",""
"","","","","","","","","","","","canvas-keyboard-response","21","1035612","0.0-21.0","null","null","","","","","","","","","","","","","","stimulus","","","0","2","","","","","","","","","",""
"","","","","","","","","","","","canvas-button-response","22","1038239","0.0-22.0","2625","bed","","","","","","","","","","","","","","perceptual","","","0","2","","","","","32","bed","1","","1",""
"","","","","","","","","","","","canvas-button-response","23","1039442","0.0-23.0","1202","10","","","","","","","","","","","","","","confidence","","","0","2","","","","","","","","","","1"
"","","","","","","","","","","","html-keyboard-response","24","1040454","0.0-24.0","null","null","","","","","","","","","","","","","","feedback","Thu Oct 09 2025 20:34:29 GMT-0400 (Eastern Daylight Time)","27594","0","2","","","","","","","","","",""
"","","","","","","","","","","","preload","25","1040455","0.0-25.0","","","","","true","","","","","","","","","","","preload","","","0","3","false","[]","[]","[]","","","","","",""
"","","","","","","","","","","","canvas-keyboard-response","26","1040755","0.0-26.0","null","null","","","","","","","","","","","","","","fixation","","","0","3","","","","","","","","","",""
"","","","","","","","","","","","canvas-keyboard-response","27","1041059","0.0-27.0","null","null","","","","","","","","","","","","","","stimulus","","","0","3","","","","","","","","","",""
"","","","","","","","","","","","canvas-button-response","28","1041946","0.0-28.0","886","car","","","","","","","","","","","","","","perceptual","","","0","3","","","","","12","car","1","","1",""
"","","","","","","","","","","","canvas-button-response","29","1042502","0.0-29.0","555","10","","","","","","","","","","","","","","confidence","","","0","3","","","","","","","","","","2"
"","","","","","","","","","","","html-keyboard-response","30","1043514","0.0-30.0","null","null","","","","","","","","","","","","","","feedback","Thu Oct 09 2025 20:34:32 GMT-0400 (Eastern Daylight Time)","27594","0","3","","","","","","","","","",""
"","","","","","","","","","","","preload","31","1043514","0.0-31.0","","","","","true","","","","","","","","","","","preload","","","0","4","false","[]","[]","[]","","","","","",""
"","","","","","","","","","","","canvas-keyboard-response","32","1043815","0.0-32.0","null","null","","","","","","","","","","","","","","fixation","","","0","4","","","","","","","","","",""
"","","","","","","","","","","","canvas-keyboard-response","33","1044126","0.0-33.0","null","null","","","","","","","","","","","","","","stimulus","","","0","4","","","","","","","","","",""
"","","","","","","","","","","","canvas-button-response","34","1045697","0.0-34.0","1570","bridge","","","","","","","","","","","","","","perceptual","","","0","4","","","","","42","bridge","1","","1",""
"","","","","","","","","","","","canvas-button-response","35","1046305","0.0-35.0","607","10","","","","","","","","","","","","","","confidence","","","0","4","","","","","","","","","","3"
"","","","","","","","","","","","html-keyboard-response","36","1047316","0.0-36.0","null","null","","","","","","","","","","","","","","feedback","Thu Oct 09 2025 20:34:36 GMT-0400 (Eastern Daylight Time)","27594","0","4","","","","","","","","","",""
"","","","","","","","","","","","preload","37","1047317","0.0-37.0","","","","","true","","","","","","","","","","","preload","","","0","5","false","[]","[]","[]","","","","","",""
"","","","","","","","","","","","canvas-keyboard-response","38","1047627","0.0-38.0","null","null","","","","","","","","","","","","","","fixation","","","0","5","","","","","","","","","",""
"","","","","","","","","","","","canvas-keyboard-response","39","1047934","0.0-39.0","null","null","","","","","","","","","","","","","","stimulus","","","0","5","","","","","","","","","",""
"","","","","","","","","","","","canvas-button-response","40","1048670","0.0-40.0","735","train","","","","","","","","","","","","","","perceptual","","","0","5","","","","","62","train","1","","1",""
"","","","","","","","","","","","canvas-button-response","41","1049112","0.0-41.0","441","10","","","","","","","","","","","","","","confidence","","","0","5","","","","","","","","","","4"
"","","","","","","","","","","","html-keyboard-response","42","1050119","0.0-42.0","null","null","","","","","","","","","","","","","","feedback","Thu Oct 09 2025 20:34:39 GMT-0400 (Eastern Daylight Time)","27594","0","5","","","","","","","","","",""
"","","","","","","","","","","","preload","43","1050120","0.0-43.0","","","","","true","","","","","","","","","","","preload","","","0","6","false","[]","[]","[]","","","","","",""
"","","","","","","","","","","","canvas-keyboard-response","44","1050430","0.0-44.0","null","null","","","","","","","","","","","","","","fixation","","","0","6","","","","","","","","","",""
"","","","","","","","","","","","canvas-keyboard-response","45","1050738","0.0-45.0","null","null","","","","","","","","","","","","","","stimulus","","","0","6","","","","","","","","","",""
"","","","","","","","","","","","canvas-button-response","46","1052477","0.0-46.0","1739","house","","","","","","","","","","","","","","perceptual","","","0","6","","","","","52","flower","1","","0",""
"","","","","","","","","","","","canvas-button-response","47","1054887","0.0-47.0","2409","5","","","","","","","","","","","","","","confidence","","","0","6","","","","","","","","","","4"
"","","","","","","","","","","","html-keyboard-response","48","1055898","0.0-48.0","null","null","","","","","","","","","","","","","","feedback","Thu Oct 09 2025 20:34:45 GMT-0400 (Eastern Daylight Time)","27594","0","6","","","","","","","","","",""
"","","","","","","","","","","","preload","49","1055898","0.0-49.0","","","","","true","","","","","","","","","","","preload","","","0","7","false","[]","[]","[]","","","","","",""
"","","","","","","","","","","","canvas-keyboard-response","50","1056208","0.0-50.0","null","null","","","","","","","","","","","","","","fixation","","","0","7","","","","","","","","","",""
"","","","","","","","","","","","canvas-keyboard-response","51","1056520","0.0-51.0","null","null","","","","","","","","","","","","","","stimulus","","","0","7","","","","","","","","","",""
"","","","","","","","","","","","canvas-button-response","52","1058476","0.0-52.0","1956","phone","","","","","","","","","","","","","","perceptual","","","0","7","","","","","22","phone","1","","1",""
"","","","","","","","","","","","canvas-button-response","53","1059211","0.0-53.0","734","8","","","","","","","","","","","","","","confidence","","","0","7","","","","","","","","","","5"
"","","","","","","","","","","","html-keyboard-response","54","1060227","0.0-54.0","null","null","","","","","","","","","","","","","","feedback","Thu Oct 09 2025 20:34:49 GMT-0400 (Eastern Daylight Time)","27594","0","7","","","","","","","","","",""
"","","","","","","","","","","","preload","55","1060228","0.0-55.0","","","","","true","","","","","","","","","","","preload","","","0","8","false","[]","[]","[]","","","","","",""
"","","","","","","","","","","","canvas-keyboard-response","56","1060537","0.0-56.0","null","null","","","","","","","","","","","","","","fixation","","","0","8","","","","","","","","","",""
"","","","","","","","","","","","canvas-keyboard-response","57","1060850","0.0-57.0","null","null","","","","","","","","","","","","","","stimulus","","","0","8","","","","","","","","","",""
"","","","","","","","","","","","canvas-button-response","58","1070627","0.0-58.0","9776","elephant","","","","","","","","","","","","","","perceptual","","","0","8","","","","","82","elephant","1","","1",""
"","","","","","","","","","","","canvas-button-response","59","1071711","0.0-59.0","1083","3","","","","","","","","","","","","","","confidence","","","0","8","","","","","","","","","","6"
"","","","","","","","","","","","html-keyboard-response","60","1072719","0.0-60.0","null","null","","","","","","","","","","","","","","feedback","Thu Oct 09 2025 20:35:02 GMT-0400 (Eastern Daylight Time)","27594","0","8","","","","","","","","","",""
"","","","","","","","","","","","preload","61","1072719","0.0-61.0","","","","","true","","","","","","","","","","","preload","","","0","9","false","[]","[]","[]","","","","","",""
"","","","","","","","","","","","canvas-keyboard-response","62","1073031","0.0-62.0","null","null","","","","","","","","","","","","","","fixation","","","0","9","","","","","","","","","",""
"","","","","","","","","","","","canvas-keyboard-response","63","1073341","0.0-63.0","null","null","","","","","","","","","","","","","","stimulus","","","0","9","","","","","","","","","",""
"","","","","","","","","","","","canvas-button-response","64","1074302","0.0-64.0","960","cat","","","","","","","","","","","","","","perceptual","","","0","9","","","","","72","cat","1","","1",""
"","","","","","","","","","","","canvas-button-response","65","1075041","0.0-65.0","739","10","","","","","","","","","","","","","","confidence","","","0","9","","","","","","","","","","7"
"","","","","","","","","","","","html-keyboard-response","66","1076050","0.0-66.0","null","null","","","","","","","","","","","","","","feedback","Thu Oct 09 2025 20:35:05 GMT-0400 (Eastern Daylight Time)","27594","0","9","","","","","","","","","",""
"","","","","","","","","","","","html-button-response","67","1088104","0.0-67.0","12053","0","","","","","","","","","","","","","","start_practice","Thu Oct 09 2025 20:35:06 GMT-0400 (Eastern Daylight Time)","27594","0","9","","","","","","","","","",""
"","","","","","","","","","","","preload","68","1088104","0.0-68.0","","","","","true","","","","","","","","","","","preload","","","1","0","false","[]","[]","[]","","","","","",""
"","","","","","","","","","","","canvas-keyboard-response","69","1088417","0.0-69.0","null","null","","","","","","","","","","","","","","fixation","","","1","0","","","","","","","","","",""
"","","","","","","","","","","","canvas-keyboard-response","70","1088730","0.0-70.0","null","null","","","","","","","","","","","","","","stimulus","","","1","0","","","","","","","","","",""
"","","","","","","","","","","","canvas-button-response","71","1090318","0.0-71.0","1587","flower","","","","","","","","","","","","","","perceptual","","","1","0","","","","","57","flower","10","","1",""
"","","","","","","","","","","","canvas-button-response","72","1091472","0.0-72.0","1153","3","","","","","","","","","","","","","","confidence","","","1","0","","","","","","","","","","1"
"","","","","","","","","","","","html-keyboard-response","73","1092485","0.0-73.0","null","null","","","","","","","","","","","","","","feedback","Thu Oct 09 2025 20:35:21 GMT-0400 (Eastern Daylight Time)","27594","1","0","","","","","","","","","",""
"","","","","","","","","","","","preload","74","1092485","0.0-74.0","","","","","true","","","","","","","","","","","preload","","","1","1","false","[]","[]","[]","","","","","",""
"","","","","","","","","","","","canvas-keyboard-response","75","1092796","0.0-75.0","null","null","","","","","","","","","","","","","","fixation","","","1","1","","","","","","","","","",""
"","","","","","","","","","","","canvas-keyboard-response","76","1093107","0.0-76.0","null","null","","","","","","","","","","","","","","stimulus","","","1","1","","","","","","","","","",""
"","","","","","","","","","","","canvas-button-response","77","1101249","0.0-77.0","8141","car","","","","","","","","","","","","","","perceptual","","","1","1","","","","","44","bridge","6","","0",""
"","","","","","","","","","","","canvas-button-response","78","1102065","0.0-78.0","815","2","","","","","","","","","","","","","","confidence","","","1","1","","","","","","","","","","1"
"","","","","","","","","","","","html-keyboard-response","79","1103067","0.0-79.0","null","null","","","","","","","","","","","","","","feedback","Thu Oct 09 2025 20:35:32 GMT-0400 (Eastern Daylight Time)","27594","1","1","","","","","","","","","",""
"","","","","","","","","","","","preload","80","1103067","0.0-80.0","","","","","true","","","","","","","","","","","preload","","","1","2","false","[]","[]","[]","","","","","",""
"","","","","","","","","","","","canvas-keyboard-response","81","1103379","0.0-81.0","null","null","","","","","","","","","","","","","","fixation","","","1","2","","","","","","","","","",""
"","","","","","","","","","","","canvas-keyboard-response","82","1103687","0.0-82.0","null","null","","","","","","","","","","","","","","stimulus","","","1","2","","","","","","","","","",""
"","","","","","","","","","","","canvas-button-response","83","1105290","0.0-83.0","1602","train","","","","","","","","","","","","","","perceptual","","","1","2","","","","","47","bridge","10","","0",""
"","","","","","","","","","","","canvas-button-response","84","1106219","0.0-84.0","928","6","","","","","","","","","","","","","","confidence","","","1","2","","","","","","","","","","1"
"","","","","","","","","","","","html-keyboard-response","85","1107228","0.0-85.0","null","null","","","","","","","","","","","","","","feedback","Thu Oct 09 2025 20:35:36 GMT-0400 (Eastern Daylight Time)","27594","1","2","","","","","","","","","",""
"","","","","","","","","","","","preload","86","1107228","0.0-86.0","","","","","true","","","","","","","","","","","preload","","","1","3","false","[]","[]","[]","","","","","",""
"","","","","","","","","","","","canvas-keyboard-response","87","1107538","0.0-87.0","null","null","","","","","","","","","","","","","","fixation","","","1","3","","","","","","","","","",""
"","","","","","","","","","","","canvas-keyboard-response","88","1107848","0.0-88.0","null","null","","","","","","","","","","","","","","stimulus","","","1","3","","","","","","","","","",""
"","","","","","","","","","","","canvas-button-response","89","1109312","0.0-89.0","1463","house","","","","","","","","","","","","","","perceptual","","","1","3","","","","","7","house","10","","1",""
"","","","","","","","","","","","canvas-button-response","90","1110715","0.0-90.0","1402","7","","","","","","","","","","","","","","confidence","","","1","3","","","","","","","","","","2"
"","","","","","","","","","","","html-keyboard-response","91","1111724","0.0-91.0","null","null","","","","","","","","","","","","","","feedback","Thu Oct 09 2025 20:35:41 GMT-0400 (Eastern Daylight Time)","27594","1","3","","","","","","","","","",""
"","","","","","","","","","","","preload","92","1111725","0.0-92.0","","","","","true","","","","","","","","","","","preload","","","1","4","false","[]","[]","[]","","","","","",""
"","","","","","","","","","","","canvas-keyboard-response","93","1112033","0.0-93.0","null","null","","","","","","","","","","","","","","fixation","","","1","4","","","","","","","","","",""
"","","","","","","","","","","","canvas-keyboard-response","94","1112345","0.0-94.0","null","null","","","","","","","","","","","","","","stimulus","","","1","4","","","","","","","","","",""
"","","","","","","","","","","","canvas-button-response","95","1115908","0.0-95.0","3562","cat","","","","","","","","","","","","","","perceptual","","","1","4","","","","","37","bed","10","","0",""
"","","","","","","","","","","","canvas-button-response","96","1116531","0.0-96.0","622","6","","","","","","","","","","","","","","confidence","","","1","4","","","","","","","","","","2"
"","","","","","","","","","","","html-keyboard-response","97","1117539","0.0-97.0","null","null","","","","","","","","","","","","","","feedback","Thu Oct 09 2025 20:35:46 GMT-0400 (Eastern Daylight Time)","27594","1","4","","","","","","","","","",""
"","","","","","","","","","","","preload","98","1117540","0.0-98.0","","","","","true","","","","","","","","","","","preload","","","1","5","false","[]","[]","[]","","","","","",""
"","","","","","","","","","","","canvas-keyboard-response","99","1117851","0.0-99.0","null","null","","","","","","","","","","","","","","fixation","","","1","5","","","","","","","","","",""
"","","","","","","","","","","","canvas-keyboard-response","100","1118151","0.0-100.0","null","null","","","","","","","","","","","","","","stimulus","","","1","5","","","","","","","","","",""
"","","","","","","","","","","","canvas-button-response","101","1119203","0.0-101.0","1051","knife","","","","","","","","","","","","","","perceptual","","","1","5","","","","","97","knife","10","","1",""
"","","","","","","","","","","","canvas-button-response","102","1119762","0.0-102.0","558","10","","","","","","","","","","","","","","confidence","","","1","5","","","","","","","","","","3"
"","","","","","","","","","","","html-keyboard-response","103","1120765","0.0-103.0","null","null","","","","","","","","","","","","","","feedback","Thu Oct 09 2025 20:35:50 GMT-0400 (Eastern Daylight Time)","27594","1","5","","","","","","","","","",""
"","","","","","","","","","","","preload","104","1120765","0.0-104.0","","","","","true","","","","","","","","","","","preload","","","1","6","false","[]","[]","[]","","","","","",""
"","","","","","","","","","","","canvas-keyboard-response","105","1121078","0.0-105.0","null","null","","","","","","","","","","","","","","fixation","","","1","6","","","","","","","","","",""
"","","","","","","","","","","","canvas-keyboard-response","106","1121389","0.0-106.0","null","null","","","","","","","","","","","","","","stimulus","","","1","6","","","","","","","","","",""
"","","","","","","","","","","","canvas-button-response","107","1124699","0.0-107.0","3309","flower","","","","","","","","","","","","","","perceptual","","","1","6","","","","","17","car","10","","0",""
"","","","","","","","","","","","canvas-button-response","108","1126645","0.0-108.0","1945","4","","","","","","","","","","","","","","confidence","","","1","6","","","","","","","","","","3"
"","","","","","","","","","","","html-keyboard-response","109","1127661","0.0-109.0","null","null","","","","","","","","","","","","","","feedback","Thu Oct 09 2025 20:35:56 GMT-0400 (Eastern Daylight Time)","27594","1","6","","","","","","","","","",""
"","","","","","","","","","","","preload","110","1127661","0.0-110.0","","","","","true","","","","","","","","","","","preload","","","1","7","false","[]","[]","[]","","","","","",""
"","","","","","","","","","","","canvas-keyboard-response","111","1127972","0.0-111.0","null","null","","","","","","","","","","","","","","fixation","","","1","7","","","","","","","","","",""
"","","","","","","","","","","","canvas-keyboard-response","112","1128282","0.0-112.0","null","null","","","","","","","","","","","","","","stimulus","","","1","7","","","","","","","","","",""
"","","","","","","","","","","","canvas-button-response","113","1132055","0.0-113.0","3773","elephant","","","","","","","","","","","","","","perceptual","","","1","7","","","","","14","car","6","","0",""
"","","","","","","","","","","","canvas-button-response","114","1133020","0.0-114.0","964","2","","","","","","","","","","","","","","confidence","","","1","7","","","","","","","","","","3"
"","","","","","","","","","","","html-keyboard-response","115","1134031","0.0-115.0","null","null","","","","","","","","","","","","","","feedback","Thu Oct 09 2025 20:36:03 GMT-0400 (Eastern Daylight Time)","27594","1","7","","","","","","","","","",""
"","","","","","","","","","","","preload","116","1134031","0.0-116.0","","","","","true","","","","","","","","","","","preload","","","1","8","false","[]","[]","[]","","","","","",""
"","","","","","","","","","","","canvas-keyboard-response","117","1134344","0.0-117.0","null","null","","","","","","","","","","","","","","fixation","","","1","8","","","","","","","","","",""
"","","","","","","","","","","","canvas-keyboard-response","118","1134657","0.0-118.0","null","null","","","","","","","","","","","","","","stimulus","","","1","8","","","","","","","","","",""
"","","","","","","","","","","","canvas-button-response","119","1138959","0.0-119.0","4301","cat","","","","","","","","","","","","","","perceptual","","","1","8","","","","","27","phone","10","","0",""
"","","","","","","","","","","","canvas-button-response","120","1140060","0.0-120.0","1100","4","","","","","","","","","","","","","","confidence","","","1","8","","","","","","","","","","3"
"","","","","","","","","","","","html-keyboard-response","121","1141068","0.0-121.0","null","null","","","","","","","","","","","","","","feedback","Thu Oct 09 2025 20:36:10 GMT-0400 (Eastern Daylight Time)","27594","1","8","","","","","","","","","",""
"","","","","","","","","","","","preload","122","1141068","0.0-122.0","","","","","true","","","","","","","","","","","preload","","","1","9","false","[]","[]","[]","","","","","",""
"","","","","","","","","","","","canvas-keyboard-response","123","1141379","0.0-123.0","null","null","","","","","","","","","","","","","","fixation","","","1","9","","","","","","","","","",""
"","","","","","","","","","","","canvas-keyboard-response","124","1141691","0.0-124.0","null","null","","","","","","","","","","","","","","stimulus","","","1","9","","","","","","","","","",""
"","","","","","","","","","","","canvas-button-response","125","1143031","0.0-125.0","1339","house","","","","","","","","","","","","","","perceptual","","","1","9","","","","","4","house","6","","1",""
"","","","","","","","","","","","canvas-button-response","126","1144108","0.0-126.0","1076","10","","","","","","","","","","","","","","confidence","","","1","9","","","","","","","","","","4"
"","","","","","","","","","","","html-keyboard-response","127","1145113","0.0-127.0","null","null","","","","","","","","","","","","","","feedback","Thu Oct 09 2025 20:36:14 GMT-0400 (Eastern Daylight Time)","27594","1","9","","","","","","","","","",""
"","","","","","","","","","","","preload","128","1145113","0.0-128.0","","","","","true","","","","","","","","","","","preload","","","1","10","false","[]","[]","[]","","","","","",""
"","","","","","","","","","","","canvas-keyboard-response","129","1145424","0.0-129.0","null","null","","","","","","","","","","","","","","fixation","","","1","10","","","","","","","","","",""
"","","","","","","","","","","","canvas-keyboard-response","130","1145735","0.0-130.0","null","null","","","","","","","","","","","","","","stimulus","","","1","10","","","","","","","","","",""
"","","","","","","","","","","","canvas-button-response","131","1146513","0.0-131.0","776","elephant","","","","","","","","","","","","","","perceptual","","","1","10","","","","","84","elephant","6","","1",""
"","","","","","","","","","","","canvas-button-response","132","1146965","0.0-132.0","451","10","","","","","","","","","","","","","","confidence","","","1","10","","","","","","","","","","5"
"","","","","","","","","","","","html-keyboard-response","133","1147977","0.0-133.0","null","null","","","","","","","","","","","","","","feedback","Thu Oct 09 2025 20:36:17 GMT-0400 (Eastern Daylight Time)","27594","1","10","","","","","","","","","",""
"","","","","","","","","","","","preload","134","1147977","0.0-134.0","","","","","true","","","","","","","","","","","preload","","","1","11","false","[]","[]","[]","","","","","",""
"","","","","","","","","","","","canvas-keyboard-response","135","1148291","0.0-135.0","null","null","","","","","","","","","","","","","","fixation","","","1","11","","","","","","","","","",""
"","","","","","","","","","","","canvas-keyboard-response","136","1148601","0.0-136.0","null","null","","","","","","","","","","","","","","stimulus","","","1","11","","","","","","","","","",""
"","","","","","","","","","","","canvas-button-response","137","1149763","0.0-137.0","1161","bed","","","","","","","","","","","","","","perceptual","","","1","11","","","","","34","bed","6","","1",""
"","","","","","","","","","","","canvas-button-response","138","1150247","0.0-138.0","484","10","","","","","","","","","","","","","","confidence","","","1","11","","","","","","","","","","6"
"","","","","","","","","","","","html-keyboard-response","139","1151259","0.0-139.0","null","null","","","","","","","","","","","","","","feedback","Thu Oct 09 2025 20:36:20 GMT-0400 (Eastern Daylight Time)","27594","1","11","","","","","","","","","",""
"","","","","","","","","","","","preload","140","1151259","0.0-140.0","","","","","true","","","","","","","","","","","preload","","","1","12","false","[]","[]","[]","","","","","",""
"","","","","","","","","","","","canvas-keyboard-response","141","1151571","0.0-141.0","null","null","","","","","","","","","","","","","","fixation","","","1","12","","","","","","","","","",""
"","","","","","","","","","","","canvas-keyboard-response","142","1151882","0.0-142.0","null","null","","","","","","","","","","","","","","stimulus","","","1","12","","","","","","","","","",""
"","","","","","","","","","","","canvas-button-response","143","1155267","0.0-143.0","3384","flower","","","","","","","","","","","","","","perceptual","","","1","12","","","","","87","elephant","10","","0",""
"","","","","","","","","","","","canvas-button-response","144","1155936","0.0-144.0","668","5","","","","","","","","","","","","","","confidence","","","1","12","","","","","","","","","","6"
"","","","","","","","","","","","html-keyboard-response","145","1156949","0.0-145.0","null","null","","","","","","","","","","","","","","feedback","Thu Oct 09 2025 20:36:26 GMT-0400 (Eastern Daylight Time)","27594","1","12","","","","","","","","","",""
"","","","","","","","","","","","preload","146","1156949","0.0-146.0","","","","","true","","","","","","","","","","","preload","","","1","13","false","[]","[]","[]","","","","","",""
"","","","","","","","","","","","canvas-keyboard-response","147","1157254","0.0-147.0","null","null","","","","","","","","","","","","","","fixation","","","1","13","","","","","","","","","",""
"","","","","","","","","","","","canvas-keyboard-response","148","1157567","0.0-148.0","null","null","","","","","","","","","","","","","","stimulus","","","1","13","","","","","","","","","",""
"","","","","","","","","","","","canvas-button-response","149","1162373","0.0-149.0","4805","flower","","","","","","","","","","","","","","perceptual","","","1","13","","","","","54","flower","6","","1",""
"","","","","","","","","","","","canvas-button-response","150","1163223","0.0-150.0","849","5","","","","","","","","","","","","","","confidence","","","1","13","","","","","","","","","","7"
"","","","","","","","","","","","html-keyboard-response","151","1164235","0.0-151.0","null","null","","","","","","","","","","","","","","feedback","Thu Oct 09 2025 20:36:33 GMT-0400 (Eastern Daylight Time)","27594","1","13","","","","","","","","","",""
"","","","","","","","","","","","preload","152","1164235","0.0-152.0","","","","","true","","","","","","","","","","","preload","","","1","14","false","[]","[]","[]","","","","","",""
"","","","","","","","","","","","canvas-keyboard-response","153","1164547","0.0-153.0","null","null","","","","","","","","","","","","","","fixation","","","1","14","","","","","","","","","",""
"","","","","","","","","","","","canvas-keyboard-response","154","1164856","0.0-154.0","null","null","","","","","","","","","","","","","","stimulus","","","1","14","","","","","","","","","",""
"","","","","","","","","","","","canvas-button-response","155","1165522","0.0-155.0","665","train","","","","","","","","","","","","","","perceptual","","","1","14","","","","","64","train","6","","1",""
"","","","","","","","","","","","canvas-button-response","156","1165932","0.0-156.0","409","10","","","","","","","","","","","","","","confidence","","","1","14","","","","","","","","","","8"
"","","","","","","","","","","","html-keyboard-response","157","1166941","0.0-157.0","null","null","","","","","","","","","","","","","","feedback","Thu Oct 09 2025 20:36:36 GMT-0400 (Eastern Daylight Time)","27594","1","14","","","","","","","","","",""
"","","","","","","","","","","","preload","158","1166942","0.0-158.0","","","","","true","","","","","","","","","","","preload","","","1","15","false","[]","[]","[]","","","","","",""
"","","","","","","","","","","","canvas-keyboard-response","159","1167249","0.0-159.0","null","null","","","","","","","","","","","","","","fixation","","","1","15","","","","","","","","","",""
"","","","","","","","","","","","canvas-keyboard-response","160","1167558","0.0-160.0","null","null","","","","","","","","","","","","","","stimulus","","","1","15","","","","","","","","","",""
"","","","","","","","","","","","canvas-button-response","161","1173345","0.0-161.0","5786","bed","","","","","","","","","","","","","","perceptual","","","1","15","","","","","77","cat","10","","0",""
"","","","","","","","","","","","canvas-button-response","162","1174260","0.0-162.0","914","3","","","","","","","","","","","","","","confidence","","","1","15","","","","","","","","","","8"
"","","","","","","","","","","","html-keyboard-response","163","1175266","0.0-163.0","null","null","","","","","","","","","","","","","","feedback","Thu Oct 09 2025 20:36:44 GMT-0400 (Eastern Daylight Time)","27594","1","15","","","","","","","","","",""
"","","","","","","","","","","","preload","164","1175266","0.0-164.0","","","","","true","","","","","","","","","","","preload","","","1","16","false","[]","[]","[]","","","","","",""
"","","","","","","","","","","","canvas-keyboard-response","165","1175577","0.0-165.0","null","null","","","","","","","","","","","","","","fixation","","","1","16","","","","","","","","","",""
"","","","","","","","","","","","canvas-keyboard-response","166","1175884","0.0-166.0","null","null","","","","","","","","","","","","","","stimulus","","","1","16","","","","","","","","","",""
"","","","","","","","","","","","canvas-button-response","167","1180055","0.0-167.0","4170","bed","","","","","","","","","","","","","","perceptual","","","1","16","","","","","94","knife","6","","0",""
"","","","","","","","","","","","canvas-button-response","168","1180555","0.0-168.0","499","7","","","","","","","","","","","","","","confidence","","","1","16","","","","","","","","","","8"
"","","","","","","","","","","","html-keyboard-response","169","1181560","0.0-169.0","null","null","","","","","","","","","","","","","","feedback","Thu Oct 09 2025 20:36:50 GMT-0400 (Eastern Daylight Time)","27594","1","16","","","","","","","","","",""
"","","","","","","","","","","","preload","170","1181560","0.0-170.0","","","","","true","","","","","","","","","","","preload","","","1","17","false","[]","[]","[]","","","","","",""
"","","","","","","","","","","","canvas-keyboard-response","171","1181871","0.0-171.0","null","null","","","","","","","","","","","","","","fixation","","","1","17","","","","","","","","","",""
"","","","","","","","","","","","canvas-keyboard-response","172","1182183","0.0-172.0","null","null","","","","","","","","","","","","","","stimulus","","","1","17","","","","","","","","","",""
"","","","","","","","","","","","canvas-button-response","173","1183078","0.0-173.0","895","cat","","","","","","","","","","","","","","perceptual","","","1","17","","","","","74","cat","6","","1",""
"","","","","","","","","","","","canvas-button-response","174","1183518","0.0-174.0","439","7","","","","","","","","","","","","","","confidence","","","1","17","","","","","","","","","","9"
"","","","","","","","","","","","html-keyboard-response","175","1184534","0.0-175.0","null","null","","","","","","","","","","","","","","feedback","Thu Oct 09 2025 20:36:53 GMT-0400 (Eastern Daylight Time)","27594","1","17","","","","","","","","","",""
"","","","","","","","","","","","preload","176","1184534","0.0-176.0","","","","","true","","","","","","","","","","","preload","","","1","18","false","[]","[]","[]","","","","","",""
"","","","","","","","","","","","canvas-keyboard-response","177","1184835","0.0-177.0","null","null","","","","","","","","","","","","","","fixation","","","1","18","","","","","","","","","",""
"","","","","","","","","","","","canvas-keyboard-response","178","1185139","0.0-178.0","null","null","","","","","","","","","","","","","","stimulus","","","1","18","","","","","","","","","",""
"","","","","","","","","","","","canvas-button-response","179","1186992","0.0-179.0","1852","phone","","","","","","","","","","","","","","perceptual","","","1","18","","","","","24","phone","6","","1",""
"","","","","","","","","","","","canvas-button-response","180","1187491","0.0-180.0","498","7","","","","","","","","","","","","","","confidence","","","1","18","","","","","","","","","","10"
"","","","","","","","","","","","html-keyboard-response","181","1188507","0.0-181.0","null","null","","","","","","","","","","","","","","feedback","Thu Oct 09 2025 20:36:57 GMT-0400 (Eastern Daylight Time)","27594","1","18","","","","","","","","","",""
"","","","","","","","","","","","preload","182","1188508","0.0-182.0","","","","","true","","","","","","","","","","","preload","","","1","19","false","[]","[]","[]","","","","","",""
"","","","","","","","","","","","canvas-keyboard-response","183","1188809","0.0-183.0","null","null","","","","","","","","","","","","","","fixation","","","1","19","","","","","","","","","",""
"","","","","","","","","","","","canvas-keyboard-response","184","1189117","0.0-184.0","null","null","","","","","","","","","","","","","","stimulus","","","1","19","","","","","","","","","",""
"","","","","","","","","","","","canvas-button-response","185","1189772","0.0-185.0","654","train","","","","","","","","","","","","","","perceptual","","","1","19","","","","","67","train","10","","1",""
"","","","","","","","","","","","canvas-button-response","186","1190180","0.0-186.0","407","10","","","","","","","","","","","","","","confidence","","","1","19","","","","","","","","","","11"
"","","","","","","","","","","","html-keyboard-response","187","1191193","0.0-187.0","null","null","","","","","","","","","","","","","","feedback","Thu Oct 09 2025 20:37:00 GMT-0400 (Eastern Daylight Time)","27594","1","19","","","","","","","","","",""
"","","","","","","","","","","","html-button-response","188","1208341","0.0-188.0","17147","0","","","","","","","","","","","","","","start experiment","Thu Oct 09 2025 20:37:01 GMT-0400 (Eastern Daylight Time)","27594","1","19","","","","","","","","","",""
"","","","","","","","","","","","preload","189","1208341","0.0-189.0","","","","","true","","","","","","","","","","","preload","","","2","0","false","[]","[]","[]","","","","","",""
"","","","","","","","","","","","canvas-keyboard-response","190","1208648","0.0-190.0","null","null","","","","","","","","","","","","","","fixation","","","2","0","","","","","","","","","",""
"","","","","","","","","","","","canvas-keyboard-response","191","1208963","0.0-191.0","null","null","","","","","","","","","","","","","","stimulus","","","2","0","","","","","","","","","",""
"","","","","","","","","","","","canvas-button-response","192","1210953","0.0-192.0","1989","house","","","","","","","","","","","","","","perceptual","","","2","0","","","","","139","bed","6","0","0",""
"","","","","","","","","","","","canvas-button-response","193","1212818","0.0-193.0","1864","3","","","","","","","","","","","","","","confidence","","","2","0","","","","","","","","","","0"
"","","","","","","","","","","","preload","194","1212819","0.0-194.0","","","","","true","","","","","","","","","","","preload","","","2","1","false","[]","[]","[]","","","","","",""
"","","","","","","","","","","","canvas-keyboard-response","195","1213132","0.0-195.0","null","null","","","","","","","","","","","","","","fixation","","","2","1","","","","","","","","","",""
"","","","","","","","","","","","canvas-keyboard-response","196","1213443","0.0-196.0","null","null","","","","","","","","","","","","","","stimulus","","","2","1","","","","","","","","","",""
"","","","","","","","","","","","canvas-button-response","197","1215392","0.0-197.0","1948","house","","","","","","","","","","","","","","perceptual","","","2","1","","","","","12","house","6","0","1",""
"","","","","","","","","","","","canvas-button-response","198","1216466","0.0-198.0","1074","4","","","","","","","","","","","","","","confidence","","","2","1","","","","","","","","","","1"
"","","","","","","","","","","","preload","199","1216467","0.0-199.0","","","","","true","","","","","","","","","","","preload","","","2","2","false","[]","[]","[]","","","","","",""
"","","","","","","","","","","","canvas-keyboard-response","200","1216774","0.0-200.0","null","null","","","","","","","","","","","","","","fixation","","","2","2","","","","","","","","","",""
"","","","","","","","","","","","canvas-keyboard-response","201","1217086","0.0-201.0","null","null","","","","","","","","","","","","","","stimulus","","","2","2","","","","","","","","","",""
"","","","","","","","","","","","canvas-button-response","202","1217832","0.0-202.0","745","house","","","","","","","","","","","","","","perceptual","","","2","2","","","","","17","house","6","0","1",""
"","","","","","","","","","","","canvas-button-response","203","1218416","0.0-203.0","583","10","","","","","","","","","","","","","","confidence","","","2","2","","","","","","","","","","2"
"","","","","","","","","","","","preload","204","1218416","0.0-204.0","","","","","true","","","","","","","","","","","preload","","","2","3","false","[]","[]","[]","","","","","",""
"","","","","","","","","","","","canvas-keyboard-response","205","1218723","0.0-205.0","null","null","","","","","","","","","","","","","","fixation","","","2","3","","","","","","","","","",""
"","","","","","","","","","","","canvas-keyboard-response","206","1219035","0.0-206.0","null","null","","","","","","","","","","","","","","stimulus","","","2","3","","","","","","","","","",""
"","","","","","","","","","","","canvas-button-response","207","1223013","0.0-207.0","3977","knife","","","","","","","","","","","","","","perceptual","","","2","3","","","","","194","bridge","10","0","0",""
"","","","","","","","","","","","canvas-button-response","208","1224908","0.0-208.0","1894","2","","","","","","","","","","","","","","confidence","","","2","3","","","","","","","","","","2"
"","","","","","","","","","","","preload","209","1224908","0.0-209.0","","","","","true","","","","","","","","","","","preload","","","2","4","false","[]","[]","[]","","","","","",""
"","","","","","","","","","","","canvas-keyboard-response","210","1225225","0.0-210.0","null","null","","","","","","","","","","","","","","fixation","","","2","4","","","","","","","","","",""
"","","","","","","","","","","","canvas-keyboard-response","211","1225533","0.0-211.0","null","null","","","","","","","","","","","","","","stimulus","","","2","4","","","","","","","","","",""
"","","","","","","","","","","","canvas-button-response","212","1226918","0.0-212.0","1384","house","","","","","","","","","","","","","","perceptual","","","2","4","","","","","248","train","6","0","0",""
"","","","","","","","","","","","canvas-button-response","213","1227982","0.0-213.0","1063","9","","","","","","","","","","","","","","confidence","","","2","4","","","","","","","","","","2"
"","","","","","","","","","","","preload","214","1227982","0.0-214.0","","","","","true","","","","","","","","","","","preload","","","2","5","false","[]","[]","[]","","","","","",""
"","","","","","","","","","","","canvas-keyboard-response","215","1228292","0.0-215.0","null","null","","","","","","","","","","","","","","fixation","","","2","5","","","","","","","","","",""
"","","","","","","","","","","","canvas-keyboard-response","216","1228594","0.0-216.0","null","null","","","","","","","","","","","","","","stimulus","","","2","5","","","","","","","","","",""
"","","","","","","","","","","","canvas-button-response","217","1230431","0.0-217.0","1836","bridge","","","","","","","","","","","","","","perceptual","","","2","5","","","","","169","bridge","6","0","1",""
"","","","","","","","","","","","canvas-button-response","218","1230955","0.0-218.0","523","10","","","","","","","","","","","","","","confidence","","","2","5","","","","","","","","","","3"
"","","","","","","","","","","","preload","219","1230955","0.0-219.0","","","","","true","","","","","","","","","","","preload","","","2","6","false","[]","[]","[]","","","","","",""
"","","","","","","","","","","","canvas-keyboard-response","220","1231266","0.0-220.0","null","null","","","","","","","","","","","","","","fixation","","","2","6","","","","","","","","","",""
"","","","","","","","","","","","canvas-keyboard-response","221","1231574","0.0-221.0","null","null","","","","","","","","","","","","","","stimulus","","","2","6","","","","","","","","","",""
"","","","","","","","","","","","canvas-button-response","222","1233516","0.0-222.0","1940","house","","","","","","","","","","","","","","perceptual","","","2","6","","","","","28","house","10","0","1",""
"","","","","","","","","","","","canvas-button-response","223","1234308","0.0-223.0","791","5","","","","","","","","","","","","","","confidence","","","2","6","","","","","","","","","","4"
"","","","","","","","","","","","preload","224","1234308","0.0-224.0","","","","","true","","","","","","","","","","","preload","","","2","7","false","[]","[]","[]","","","","","",""
"","","","","","","","","","","","canvas-keyboard-response","225","1234611","0.0-225.0","null","null","","","","","","","","","","","","","","fixation","","","2","7","","","","","","","","","",""
"","","","","","","","","","","","canvas-keyboard-response","226","1234920","0.0-226.0","null","null","","","","","","","","","","","","","","stimulus","","","2","7","","","","","","","","","",""
"","","","","","","","","","","","canvas-button-response","227","1236978","0.0-227.0","2057","bed","","","","","","","","","","","","","","perceptual","","","2","7","","","","","364","knife","6","0","0",""
"","","","","","","","","","","","canvas-button-response","228","1238599","0.0-228.0","1620","3","","","","","","","","","","","","","","confidence","","","2","7","","","","","","","","","","4"
"","","","","","","","","","","","preload","229","1238599","0.0-229.0","","","","","true","","","","","","","","","","","preload","","","2","8","false","[]","[]","[]","","","","","",""
"","","","","","","","","","","","canvas-keyboard-response","230","1238910","0.0-230.0","null","null","","","","","","","","","","","","","","fixation","","","2","8","","","","","","","","","",""
"","","","","","","","","","","","canvas-keyboard-response","231","1239221","0.0-231.0","null","null","","","","","","","","","","","","","","stimulus","","","2","8","","","","","","","","","",""
"","","","","","","","","","","","canvas-button-response","232","1241563","0.0-232.0","2342","bed","","","","","","","","","","","","","","perceptual","","","2","8","","","","","122","bed","6","0","1",""
"","","","","","","","","","","","canvas-button-response","233","1242295","0.0-233.0","731","10","","","","","","","","","","","","","","confidence","","","2","8","","","","","","","","","","5"
"","","","","","","","","","","","preload","234","1242295","0.0-234.0","","","","","true","","","","","","","","","","","preload","","","2","9","false","[]","[]","[]","","","","","",""
"","","","","","","","","","","","canvas-keyboard-response","235","1242596","0.0-235.0","null","null","","","","","","","","","","","","","","fixation","","","2","9","","","","","","","","","",""
"","","","","","","","","","","","canvas-keyboard-response","236","1242900","0.0-236.0","null","null","","","","","","","","","","","","","","stimulus","","","2","9","","","","","","","","","",""
"","","","","","","","","","","","canvas-button-response","237","1244971","0.0-237.0","2071","car","","","","","","","","","","","","","","perceptual","","","2","9","","","","","54","car","6","0","1",""
"","","","","","","","","","","","canvas-button-response","238","1247251","0.0-238.0","2279","5","","","","","","","","","","","","","","confidence","","","2","9","","","","","","","","","","6"
"","","","","","","","","","","","preload","239","1247251","0.0-239.0","","","","","true","","","","","","","","","","","preload","","","2","10","false","[]","[]","[]","","","","","",""
"","","","","","","","","","","","canvas-keyboard-response","240","1247559","0.0-240.0","null","null","","","","","","","","","","","","","","fixation","","","2","10","","","","","","","","","",""
"","","","","","","","","","","","canvas-keyboard-response","241","1247867","0.0-241.0","null","null","","","","","","","","","","","","","","stimulus","","","2","10","","","","","","","","","",""
"","","","","","","","","","","","canvas-button-response","242","1249313","0.0-242.0","1446","cat","","","","","","","","","","","","","","perceptual","","","2","10","","","","","296","cat","6","0","1",""
"","","","","","","","","","","","canvas-button-response","243","1250271","0.0-243.0","957","2","","","","","","","","","","","","","","confidence","","","2","10","","","","","","","","","","7"
"","","","","","","","","","","","preload","244","1250271","0.0-244.0","","","","","true","","","","","","","","","","","preload","","","2","11","false","[]","[]","[]","","","","","",""
"","","","","","","","","","","","canvas-keyboard-response","245","1250578","0.0-245.0","null","null","","","","","","","","","","","","","","fixation","","","2","11","","","","","","","","","",""
"","","","","","","","","","","","canvas-keyboard-response","246","1250883","0.0-246.0","null","null","","","","","","","","","","","","","","stimulus","","","2","11","","","","","","","","","",""
"","","","","","","","","","","","canvas-button-response","247","1252174","0.0-247.0","1291","elephant","","","","","","","","","","","","","","perceptual","","","2","11","","","","","112","phone","10","0","0",""
"","","","","","","","","","","","canvas-button-response","248","1253296","0.0-248.0","1121","3","","","","","","","","","","","","","","confidence","","","2","11","","","","","","","","","","7"
"","","","","","","","","","","","preload","249","1253296","0.0-249.0","","","","","true","","","","","","","","","","","preload","","","2","12","false","[]","[]","[]","","","","","",""
"","","","","","","","","","","","canvas-keyboard-response","250","1253605","0.0-250.0","null","null","","","","","","","","","","","","","","fixation","","","2","12","","","","","","","","","",""
"","","","","","","","","","","","canvas-keyboard-response","251","1253912","0.0-251.0","null","null","","","","","","","","","","","","","","stimulus","","","2","12","","","","","","","","","",""
"","","","","","","","","","","","canvas-button-response","252","1254661","0.0-252.0","748","elephant","","","","","","","","","","","","","","perceptual","","","2","12","","","","","356","elephant","10","0","1",""
"","","","","","","","","","","","canvas-button-response","253","1255075","0.0-253.0","413","10","","","","","","","","","","","","","","confidence","","","2","12","","","","","","","","","","8"
"","","","","","","","","","","","preload","254","1255075","0.0-254.0","","","","","true","","","","","","","","","","","preload","","","2","13","false","[]","[]","[]","","","","","",""
"","","","","","","","","","","","canvas-keyboard-response","255","1255380","0.0-255.0","null","null","","","","","","","","","","","","","","fixation","","","2","13","","","","","","","","","",""
"","","","","","","","","","","","canvas-keyboard-response","256","1255688","0.0-256.0","null","null","","","","","","","","","","","","","","stimulus","","","2","13","","","","","","","","","",""
"","","","","","","","","","","","canvas-button-response","257","1257773","0.0-257.0","2084","bridge","","","","","","","","","","","","","","perceptual","","","2","13","","","","","183","bridge","10","0","1",""
"","","","","","","","","","","","canvas-button-response","258","1258529","0.0-258.0","755","7","","","","","","","","","","","","","","confidence","","","2","13","","","","","","","","","","9"
"","","","","","","","","","","","preload","259","1258529","0.0-259.0","","","","","true","","","","","","","","","","","preload","","","2","14","false","[]","[]","[]","","","","","",""
"","","","","","","","","","","","canvas-keyboard-response","260","1258838","0.0-260.0","null","null","","","","","","","","","","","","","","fixation","","","2","14","","","","","","","","","",""
"","","","","","","","","","","","canvas-keyboard-response","261","1259152","0.0-261.0","null","null","","","","","","","","","","","","","","stimulus","","","2","14","","","","","","","","","",""
"","","","","","","","","","","","canvas-button-response","262","1260696","0.0-262.0","1543","car","","","","","","","","","","","","","","perceptual","","","2","14","","","","","68","car","10","0","1",""
"","","","","","","","","","","","canvas-button-response","263","1261956","0.0-263.0","1259","3","","","","","","","","","","","","","","confidence","","","2","14","","","","","","","","","","10"
"","","","","","","","","","","","preload","264","1261957","0.0-264.0","","","","","true","","","","","","","","","","","preload","","","2","15","false","[]","[]","[]","","","","","",""
"","","","","","","","","","","","canvas-keyboard-response","265","1262268","0.0-265.0","null","null","","","","","","","","","","","","","","fixation","","","2","15","","","","","","","","","",""
"","","","","","","","","","","","canvas-keyboard-response","266","1262581","0.0-266.0","null","null","","","","","","","","","","","","","","stimulus","","","2","15","","","","","","","","","",""
"","","","","","","","","","","","canvas-button-response","267","1263392","0.0-267.0","810","car","","","","","","","","","","","","","","perceptual","","","2","15","","","","","46","car","6","0","1",""
"","","","","","","","","","","","canvas-button-response","268","1264090","0.0-268.0","697","10","","","","","","","","","","","","","","confidence","","","2","15","","","","","","","","","","11"
"","","","","","","","","","","","preload","269","1264091","0.0-269.0","","","","","true","","","","","","","","","","","preload","","","2","16","false","[]","[]","[]","","","","","",""
"","","","","","","","","","","","canvas-keyboard-response","270","1264397","0.0-270.0","null","null","","","","","","","","","","","","","","fixation","","","2","16","","","","","","","","","",""
"","","","","","","","","","","","canvas-keyboard-response","271","1264706","0.0-271.0","null","null","","","","","","","","","","","","","","stimulus","","","2","16","","","","","","","","","",""
"","","","","","","","","","","","canvas-button-response","272","1271424","0.0-272.0","6718","bridge","","","","","","","","","","","","","","perceptual","","","2","16","","","","","152","bed","10","0","0",""
"","","","","","","","","","","","canvas-button-response","273","1272067","0.0-273.0","642","5","","","","","","","","","","","","","","confidence","","","2","16","","","","","","","","","","11"
"","","","","","","","","","","","preload","274","1272068","0.0-274.0","","","","","true","","","","","","","","","","","preload","","","2","17","false","[]","[]","[]","","","","","",""
"","","","","","","","","","","","canvas-keyboard-response","275","1272374","0.0-275.0","null","null","","","","","","","","","","","","","","fixation","","","2","17","","","","","","","","","",""
"","","","","","","","","","","","canvas-keyboard-response","276","1272683","0.0-276.0","null","null","","","","","","","","","","","","","","stimulus","","","2","17","","","","","","","","","",""
"","","","","","","","","","","","canvas-button-response","277","1273708","0.0-277.0","1025","bed","","","","","","","","","","","","","","perceptual","","","2","17","","","","","131","bed","6","0","1",""
"","","","","","","","","","","","canvas-button-response","278","1274354","0.0-278.0","645","10","","","","","","","","","","","","","","confidence","","","2","17","","","","","","","","","","12"
"","","","","","","","","","","","preload","279","1274355","0.0-279.0","","","","","true","","","","","","","","","","","preload","","","2","18","false","[]","[]","[]","","","","","",""
"","","","","","","","","","","","canvas-keyboard-response","280","1274655","0.0-280.0","null","null","","","","","","","","","","","","","","fixation","","","2","18","","","","","","","","","",""
"","","","","","","","","","","","canvas-keyboard-response","281","1274969","0.0-281.0","null","null","","","","","","","","","","","","","","stimulus","","","2","18","","","","","","","","","",""
"","","","","","","","","","","","canvas-button-response","282","1275638","0.0-282.0","668","train","","","","","","","","","","","","","","perceptual","","","2","18","","","","","241","train","6","0","1",""
"","","","","","","","","","","","canvas-button-response","283","1276036","0.0-283.0","397","10","","","","","","","","","","","","","","confidence","","","2","18","","","","","","","","","","13"
"","","","","","","","","","","","preload","284","1276037","0.0-284.0","","","","","true","","","","","","","","","","","preload","","","2","19","false","[]","[]","[]","","","","","",""
"","","","","","","","","","","","canvas-keyboard-response","285","1276348","0.0-285.0","null","null","","","","","","","","","","","","","","fixation","","","2","19","","","","","","","","","",""
"","","","","","","","","","","","canvas-keyboard-response","286","1276661","0.0-286.0","null","null","","","","","","","","","","","","","","stimulus","","","2","19","","","","","","","","","",""
"","","","","","","","","","","","canvas-button-response","287","1278114","0.0-287.0","1452","house","","","","","","","","","","","","","","perceptual","","","2","19","","","","","138","bed","6","0","0",""
"","","","","","","","","","","","canvas-button-response","288","1279071","0.0-288.0","956","5","","","","","","","","","","","","","","confidence","","","2","19","","","","","","","","","","13"
"","","","","","","","","","","","preload","289","1279072","0.0-289.0","","","","","true","","","","","","","","","","","preload","","","2","20","false","[]","[]","[]","","","","","",""
"","","","","","","","","","","","canvas-keyboard-response","290","1279382","0.0-290.0","null","null","","","","","","","","","","","","","","fixation","","","2","20","","","","","","","","","",""
"","","","","","","","","","","","canvas-keyboard-response","291","1279694","0.0-291.0","null","null","","","","","","","","","","","","","","stimulus","","","2","20","","","","","","","","","",""
"","","","","","","","","","","","canvas-button-response","292","1280645","0.0-292.0","951","bed","","","","","","","","","","","","","","perceptual","","","2","20","","","","","132","bed","6","0","1",""
"","","","","","","","","","","","canvas-button-response","293","1281343","0.0-293.0","696","8","","","","","","","","","","","","","","confidence","","","2","20","","","","","","","","","","14"
"","","","","","","","","","","","preload","294","1281343","0.0-294.0","","","","","true","","","","","","","","","","","preload","","","2","21","false","[]","[]","[]","","","","","",""
"","","","","","","","","","","","canvas-keyboard-response","295","1281645","0.0-295.0","null","null","","","","","","","","","","","","","","fixation","","","2","21","","","","","","","","","",""
"","","","","","","","","","","","canvas-keyboard-response","296","1281956","0.0-296.0","null","null","","","","","","","","","","","","","","stimulus","","","2","21","","","","","","","","","",""
"","","","","","","","","","","","canvas-button-response","297","1283038","0.0-297.0","1082","car","","","","","","","","","","","","","","perceptual","","","2","21","","","","","69","car","10","0","1",""
"","","","","","","","","","","","canvas-button-response","298","1283459","0.0-298.0","419","7","","","","","","","","","","","","","","confidence","","","2","21","","","","","","","","","","15"
"","","","","","","","","","","","preload","299","1283459","0.0-299.0","","","","","true","","","","","","","","","","","preload","","","2","22","false","[]","[]","[]","","","","","",""
"","","","","","","","","","","","canvas-keyboard-response","300","1283773","0.0-300.0","null","null","","","","","","","","","","","","","","fixation","","","2","22","","","","","","","","","",""
"","","","","","","","","","","","canvas-keyboard-response","301","1284085","0.0-301.0","null","null","","","","","","","","","","","","","","stimulus","","","2","22","","","","","","","","","",""
"","","","","","","","","","","","canvas-button-response","302","1284822","0.0-302.0","737","bed","","","","","","","","","","","","","","perceptual","","","2","22","","","","","127","bed","6","0","1",""
"","","","","","","","","","","","canvas-button-response","303","1285332","0.0-303.0","508","10","","","","","","","","","","","","","","confidence","","","2","22","","","","","","","","","","16"
"","","","","","","","","","","","preload","304","1285332","0.0-304.0","","","","","true","","","","","","","","","","","preload","","","2","23","false","[]","[]","[]","","","","","",""
"","","","","","","","","","","","canvas-keyboard-response","305","1285646","0.0-305.0","null","null","","","","","","","","","","","","","","fixation","","","2","23","","","","","","","","","",""
"","","","","","","","","","","","canvas-keyboard-response","306","1285957","0.0-306.0","null","null","","","","","","","","","","","","","","stimulus","","","2","23","","","","","","","","","",""
"","","","","","","","","","","","canvas-button-response","307","1287256","0.0-307.0","1298","knife","","","","","","","","","","","","","","perceptual","","","2","23","","","","","395","knife","10","0","1",""
"","","","","","","","","","","","canvas-button-response","308","1287782","0.0-308.0","524","7","","","","","","","","","","","","","","confidence","","","2","23","","","","","","","","","","17"
"","","","","","","","","","","","preload","309","1287782","0.0-309.0","","","","","true","","","","","","","","","","","preload","","","2","24","false","[]","[]","[]","","","","","",""
"","","","","","","","","","","","canvas-keyboard-response","310","1288094","0.0-310.0","null","null","","","","","","","","","","","","","","fixation","","","2","24","","","","","","","","","",""
"","","","","","","","","","","","canvas-keyboard-response","311","1288403","0.0-311.0","null","null","","","","","","","","","","","","","","stimulus","","","2","24","","","","","","","","","",""
"","","","","","","","","","","","canvas-button-response","312","1289184","0.0-312.0","780","flower","","","","","","","","","","","","","","perceptual","","","2","24","","","","","215","flower","6","0","1",""
"","","","","","","","","","","","canvas-button-response","313","1289642","0.0-313.0","457","10","","","","","","","","","","","","","","confidence","","","2","24","","","","","","","","","","18"
"","","","","","","","","","","","preload","314","1289642","0.0-314.0","","","","","true","","","","","","","","","","","preload","","","2","25","false","[]","[]","[]","","","","","",""
"","","","","","","","","","","","canvas-keyboard-response","315","1289943","0.0-315.0","null","null","","","","","","","","","","","","","","fixation","","","2","25","","","","","","","","","",""
"","","","","","","","","","","","canvas-keyboard-response","316","1290258","0.0-316.0","null","null","","","","","","","","","","","","","","stimulus","","","2","25","","","","","","","","","",""
"","","","","","","","","","","","canvas-button-response","317","1291412","0.0-317.0","1152","knife","","","","","","","","","","","","","","perceptual","","","2","25","","","","","398","knife","10","0","1",""
"","","","","","","","","","","","canvas-button-response","318","1291983","0.0-318.0","570","5","","","","","","","","","","","","","","confidence","","","2","25","","","","","","","","","","19"
"","","","","","","","","","","","preload","319","1291983","0.0-319.0","","","","","true","","","","","","","","","","","preload","","","2","26","false","[]","[]","[]","","","","","",""
"","","","","","","","","","","","canvas-keyboard-response","320","1292297","0.0-320.0","null","null","","","","","","","","","","","","","","fixation","","","2","26","","","","","","","","","",""
"","","","","","","","","","","","canvas-keyboard-response","321","1292610","0.0-321.0","null","null","","","","","","","","","","","","","","stimulus","","","2","26","","","","","","","","","",""
"","","","","","","","","","","","canvas-button-response","322","1294191","0.0-322.0","1580","train","","","","","","","","","","","","","","perceptual","","","2","26","","","","","254","train","6","0","1",""
"","","","","","","","","","","","canvas-button-response","323","1295240","0.0-323.0","1048","5","","","","","","","","","","","","","","confidence","","","2","26","","","","","","","","","","20"
"","","","","","","","","","","","preload","324","1295240","0.0-324.0","","","","","true","","","","","","","","","","","preload","","","2","27","false","[]","[]","[]","","","","","",""
"","","","","","","","","","","","canvas-keyboard-response","325","1295544","0.0-325.0","null","null","","","","","","","","","","","","","","fixation","","","2","27","","","","","","","","","",""
"","","","","","","","","","","","canvas-keyboard-response","326","1295855","0.0-326.0","null","null","","","","","","","","","","","","","","stimulus","","","2","27","","","","","","","","","",""
"","","","","","","","","","","","canvas-button-response","327","1296743","0.0-327.0","887","bed","","","","","","","","","","","","","","perceptual","","","2","27","","","","","290","cat","6","0","0",""
"","","","","","","","","","","","canvas-button-response","328","1297588","0.0-328.0","844","6","","","","","","","","","","","","","","confidence","","","2","27","","","","","","","","","","20"
"","","","","","","","","","","","preload","329","1297588","0.0-329.0","","","","","true","","","","","","","","","","","preload","","","2","28","false","[]","[]","[]","","","","","",""
"","","","","","","","","","","","canvas-keyboard-response","330","1297889","0.0-330.0","null","null","","","","","","","","","","","","","","fixation","","","2","28","","","","","","","","","",""
"","","","","","","","","","","","canvas-keyboard-response","331","1298199","0.0-331.0","null","null","","","","","","","","","","","","","","stimulus","","","2","28","","","","","","","","","",""
"","","","","","","","","","","","canvas-button-response","332","1299795","0.0-332.0","1594","knife","","","","","","","","","","","","","","perceptual","","","2","28","","","","","368","knife","6","0","1",""
"","","","","","","","","","","","canvas-button-response","333","1300486","0.0-333.0","690","4","","","","","","","","","","","","","","confidence","","","2","28","","","","","","","","","","21"
"","","","","","","","","","","","preload","334","1300486","0.0-334.0","","","","","true","","","","","","","","","","","preload","","","2","29","false","[]","[]","[]","","","","","",""
"","","","","","","","","","","","canvas-keyboard-response","335","1300789","0.0-335.0","null","null","","","","","","","","","","","","","","fixation","","","2","29","","","","","","","","","",""
"","","","","","","","","","","","canvas-keyboard-response","336","1301095","0.0-336.0","null","null","","","","","","","","","","","","","","stimulus","","","2","29","","","","","","","","","",""
"","","","","","","","","","","","canvas-button-response","337","1304042","0.0-337.0","2946","cat","","","","","","","","","","","","","","perceptual","","","2","29","","","","","314","cat","10","0","1",""
"","","","","","","","","","","","canvas-button-response","338","1304678","0.0-338.0","635","3","","","","","","","","","","","","","","confidence","","","2","29","","","","","","","","","","22"
"","","","","","","","","","","","preload","339","1304678","0.0-339.0","","","","","true","","","","","","","","","","","preload","","","2","30","false","[]","[]","[]","","","","","",""
"","","","","","","","","","","","canvas-keyboard-response","340","1304992","0.0-340.0","null","null","","","","","","","","","","","","","","fixation","","","2","30","","","","","","","","","",""
"","","","","","","","","","","","canvas-keyboard-response","341","1305300","0.0-341.0","null","null","","","","","","","","","","","","","","stimulus","","","2","30","","","","","","","","","",""
"","","","","","","","","","","","canvas-button-response","342","1305933","0.0-342.0","632","flower","","","","","","","","","","","","","","perceptual","","","2","30","","","","","223","flower","10","0","1",""
"","","","","","","","","","","","canvas-button-response","343","1306572","0.0-343.0","638","8","","","","","","","","","","","","","","confidence","","","2","30","","","","","","","","","","23"
"","","","","","","","","","","","preload","344","1306572","0.0-344.0","","","","","true","","","","","","","","","","","preload","","","2","31","false","[]","[]","[]","","","","","",""
"","","","","","","","","","","","canvas-keyboard-response","345","1306885","0.0-345.0","null","null","","","","","","","","","","","","","","fixation","","","2","31","","","","","","","","","",""
"","","","","","","","","","","","canvas-keyboard-response","346","1307198","0.0-346.0","null","null","","","","","","","","","","","","","","stimulus","","","2","31","","","","","","","","","",""
"","","","","","","","","","","","canvas-button-response","347","1308760","0.0-347.0","1561","bridge","","","","","","","","","","","","","","perceptual","","","2","31","","","","","327","elephant","6","0","0",""
"","","","","","","","","","","","canvas-button-response","348","1309261","0.0-348.0","500","5","","","","","","","","","","","","","","confidence","","","2","31","","","","","","","","","","23"
"","","","","","","","","","","","preload","349","1309261","0.0-349.0","","","","","true","","","","","","","","","","","preload","","","2","32","false","[]","[]","[]","","","","","",""
"","","","","","","","","","","","canvas-keyboard-response","350","1309569","0.0-350.0","null","null","","","","","","","","","","","","","","fixation","","","2","32","","","","","","","","","",""
"","","","","","","","","","","","canvas-keyboard-response","351","1309877","0.0-351.0","null","null","","","","","","","","","","","","","","stimulus","","","2","32","","","","","","","","","",""
"","","","","","","","","","","","canvas-button-response","352","1311666","0.0-352.0","1788","house","","","","","","","","","","","","","","perceptual","","","2","32","","","","","11","house","6","0","1",""
"","","","","","","","","","","","canvas-button-response","353","1312169","0.0-353.0","502","10","","","","","","","","","","","","","","confidence","","","2","32","","","","","","","","","","24"
"","","","","","","","","","","","preload","354","1312169","0.0-354.0","","","","","true","","","","","","","","","","","preload","","","2","33","false","[]","[]","[]","","","","","",""
"","","","","","","","","","","","canvas-keyboard-response","355","1312476","0.0-355.0","null","null","","","","","","","","","","","","","","fixation","","","2","33","","","","","","","","","",""
"","","","","","","","","","","","canvas-keyboard-response","356","1312789","0.0-356.0","null","null","","","","","","","","","","","","","","stimulus","","","2","33","","","","","","","","","",""
"","","","","","","","","","","","canvas-button-response","357","1313889","0.0-357.0","1099","phone","","","","","","","","","","","","","","perceptual","","","2","33","","","","","97","phone","6","0","1",""
"","","","","","","","","","","","canvas-button-response","358","1314296","0.0-358.0","406","10","","","","","","","","","","","","","","confidence","","","2","33","","","","","","","","","","25"
"","","","","","","","","","","","preload","359","1314296","0.0-359.0","","","","","true","","","","","","","","","","","preload","","","2","34","false","[]","[]","[]","","","","","",""
"","","","","","","","","","","","canvas-keyboard-response","360","1314606","0.0-360.0","null","null","","","","","","","","","","","","","","fixation","","","2","34","","","","","","","","","",""
"","","","","","","","","","","","canvas-keyboard-response","361","1314915","0.0-361.0","null","null","","","","","","","","","","","","","","stimulus","","","2","34","","","","","","","","","",""
"","","","","","","","","","","","canvas-button-response","362","1315673","0.0-362.0","757","flower","","","","","","","","","","","","","","perceptual","","","2","34","","","","","237","flower","10","0","1",""
"","","","","","","","","","","","canvas-button-response","363","1316170","0.0-363.0","496","8","","","","","","","","","","","","","","confidence","","","2","34","","","","","","","","","","26"
"","","","","","","","","","","","preload","364","1316170","0.0-364.0","","","","","true","","","","","","","","","","","preload","","","2","35","false","[]","[]","[]","","","","","",""
"","","","","","","","","","","","canvas-keyboard-response","365","1316483","0.0-365.0","null","null","","","","","","","","","","","","","","fixation","","","2","35","","","","","","","","","",""
"","","","","","","","","","","","canvas-keyboard-response","366","1316789","0.0-366.0","null","null","","","","","","","","","","","","","","stimulus","","","2","35","","","","","","","","","",""
"","","","","","","","","","","","canvas-button-response","367","1317837","0.0-367.0","1047","knife","","","","","","","","","","","","","","perceptual","","","2","35","","","","","320","elephant","6","0","0",""
"","","","","","","","","","","","canvas-button-response","368","1318367","0.0-368.0","529","5","","","","","","","","","","","","","","confidence","","","2","35","","","","","","","","","","26"
"","","","","","","","","","","","preload","369","1318367","0.0-369.0","","","","","true","","","","","","","","","","","preload","","","2","36","false","[]","[]","[]","","","","","",""
"","","","","","","","","","","","canvas-keyboard-response","370","1318673","0.0-370.0","null","null","","","","","","","","","","","","","","fixation","","","2","36","","","","","","","","","",""
"","","","","","","","","","","","canvas-keyboard-response","371","1318984","0.0-371.0","null","null","","","","","","","","","","","","","","stimulus","","","2","36","","","","","","","","","",""
"","","","","","","","","","","","canvas-button-response","372","1323550","0.0-372.0","4565","elephant","","","","","","","","","","","","","","perceptual","","","2","36","","","","","116","phone","10","0","0",""
"","","","","","","","","","","","canvas-button-response","373","1324002","0.0-373.0","451","5","","","","","","","","","","","","","","confidence","","","2","36","","","","","","","","","","26"
"","","","","","","","","","","","preload","374","1324002","0.0-374.0","","","","","true","","","","","","","","","","","preload","","","2","37","false","[]","[]","[]","","","","","",""
"","","","","","","","","","","","canvas-keyboard-response","375","1324309","0.0-375.0","null","null","","","","","","","","","","","","","","fixation","","","2","37","","","","","","","","","",""
"","","","","","","","","","","","canvas-keyboard-response","376","1324622","0.0-376.0","null","null","","","","","","","","","","","","","","stimulus","","","2","37","","","","","","","","","",""
"","","","","","","","","","","","canvas-button-response","377","1325233","0.0-377.0","610","flower","","","","","","","","","","","","","","perceptual","","","2","37","","","","","234","flower","10","0","1",""
"","","","","","","","","","","","canvas-button-response","378","1325940","0.0-378.0","706","8","","","","","","","","","","","","","","confidence","","","2","37","","","","","","","","","","27"
"","","","","","","","","","","","preload","379","1325941","0.0-379.0","","","","","true","","","","","","","","","","","preload","","","2","38","false","[]","[]","[]","","","","","",""
"","","","","","","","","","","","canvas-keyboard-response","380","1326254","0.0-380.0","null","null","","","","","","","","","","","","","","fixation","","","2","38","","","","","","","","","",""
"","","","","","","","","","","","canvas-keyboard-response","381","1326563","0.0-381.0","null","null","","","","","","","","","","","","","","stimulus","","","2","38","","","","","","","","","",""
"","","","","","","","","","","","canvas-button-response","382","1327882","0.0-382.0","1318","bridge","","","","","","","","","","","","","","perceptual","","","2","38","","","","","178","bridge","6","0","1",""
"","","","","","","","","","","","canvas-button-response","383","1328528","0.0-383.0","645","9","","","","","","","","","","","","","","confidence","","","2","38","","","","","","","","","","28"
"","","","","","","","","","","","preload","384","1328528","0.0-384.0","","","","","true","","","","","","","","","","","preload","","","2","39","false","[]","[]","[]","","","","","",""
"","","","","","","","","","","","canvas-keyboard-response","385","1328832","0.0-385.0","null","null","","","","","","","","","","","","","","fixation","","","2","39","","","","","","","","","",""
"","","","","","","","","","","","canvas-keyboard-response","386","1329137","0.0-386.0","null","null","","","","","","","","","","","","","","stimulus","","","2","39","","","","","","","","","",""
"","","","","","","","","","","","canvas-button-response","387","1329809","0.0-387.0","672","flower","","","","","","","","","","","","","","perceptual","","","2","39","","","","","353","elephant","10","0","0",""
"","","","","","","","","","","","canvas-button-response","388","1330880","0.0-388.0","1070","7","","","","","","","","","","","","","","confidence","","","2","39","","","","","","","","","","28"
"","","","","","","","","","","","preload","389","1330881","0.0-389.0","","","","","true","","","","","","","","","","","preload","","","2","40","false","[]","[]","[]","","","","","",""
"","","","","","","","","","","","canvas-keyboard-response","390","1331185","0.0-390.0","null","null","","","","","","","","","","","","","","fixation","","","2","40","","","","","","","","","",""
"","","","","","","","","","","","canvas-keyboard-response","391","1331497","0.0-391.0","null","null","","","","","","","","","","","","","","stimulus","","","2","40","","","","","","","","","",""
"","","","","","","","","","","","canvas-button-response","392","1332203","0.0-392.0","705","elephant","","","","","","","","","","","","","","perceptual","","","2","40","","","","","349","elephant","10","0","1",""
"","","","","","","","","","","","canvas-button-response","393","1332596","0.0-393.0","392","10","","","","","","","","","","","","","","confidence","","","2","40","","","","","","","","","","29"
"","","","","","","","","","","","preload","394","1332597","0.0-394.0","","","","","true","","","","","","","","","","","preload","","","2","41","false","[]","[]","[]","","","","","",""
"","","","","","","","","","","","canvas-keyboard-response","395","1332898","0.0-395.0","null","null","","","","","","","","","","","","","","fixation","","","2","41","","","","","","","","","",""
"","","","","","","","","","","","canvas-keyboard-response","396","1333210","0.0-396.0","null","null","","","","","","","","","","","","","","stimulus","","","2","41","","","","","","","","","",""
"","","","","","","","","","","","canvas-button-response","397","1334630","0.0-397.0","1420","bridge","","","","","","","","","","","","","","perceptual","","","2","41","","","","","175","bridge","6","0","1",""
"","","","","","","","","","","","canvas-button-response","398","1335116","0.0-398.0","485","10","","","","","","","","","","","","","","confidence","","","2","41","","","","","","","","","","30"
"","","","","","","","","","","","preload","399","1335117","0.0-399.0","","","","","true","","","","","","","","","","","preload","","","2","42","false","[]","[]","[]","","","","","",""
"","","","","","","","","","","","canvas-keyboard-response","400","1335430","0.0-400.0","null","null","","","","","","","","","","","","","","fixation","","","2","42","","","","","","","","","",""
"","","","","","","","","","","","canvas-keyboard-response","401","1335741","0.0-401.0","null","null","","","","","","","","","","","","","","stimulus","","","2","42","","","","","","","","","",""
"","","","","","","","","","","","canvas-button-response","402","1336601","0.0-402.0","860","flower","","","","","","","","","","","","","","perceptual","","","2","42","","","","","358","elephant","10","0","0",""
"","","","","","","","","","","","canvas-button-response","403","1337196","0.0-403.0","594","8","","","","","","","","","","","","","","confidence","","","2","42","","","","","","","","","","30"
"","","","","","","","","","","","preload","404","1337197","0.0-404.0","","","","","true","","","","","","","","","","","preload","","","2","43","false","[]","[]","[]","","","","","",""
"","","","","","","","","","","","canvas-keyboard-response","405","1337506","0.0-405.0","null","null","","","","","","","","","","","","","","fixation","","","2","43","","","","","","","","","",""
"","","","","","","","","","","","canvas-keyboard-response","406","1337817","0.0-406.0","null","null","","","","","","","","","","","","","","stimulus","","","2","43","","","","","","","","","",""
"","","","","","","","","","","","canvas-button-response","407","1338578","0.0-407.0","760","car","","","","","","","","","","","","","","perceptual","","","2","43","","","","","74","car","10","0","1",""
"","","","","","","","","","","","canvas-button-response","408","1338982","0.0-408.0","402","10","","","","","","","","","","","","","","confidence","","","2","43","","","","","","","","","","31"
"","","","","","","","","","","","preload","409","1338982","0.0-409.0","","","","","true","","","","","","","","","","","preload","","","2","44","false","[]","[]","[]","","","","","",""
"","","","","","","","","","","","canvas-keyboard-response","410","1339292","0.0-410.0","null","null","","","","","","","","","","","","","","fixation","","","2","44","","","","","","","","","",""
"","","","","","","","","","","","canvas-keyboard-response","411","1339605","0.0-411.0","null","null","","","","","","","","","","","","","","stimulus","","","2","44","","","","","","","","","",""
"","","","","","","","","","","","canvas-button-response","412","1340164","0.0-412.0","558","elephant","","","","","","","","","","","","","","perceptual","","","2","44","","","","","338","elephant","6","0","1",""
"","","","","","","","","","","","canvas-button-response","413","1340536","0.0-413.0","371","10","","","","","","","","","","","","","","confidence","","","2","44","","","","","","","","","","32"
"","","","","","","","","","","","preload","414","1340537","0.0-414.0","","","","","true","","","","","","","","","","","preload","","","2","45","false","[]","[]","[]","","","","","",""
"","","","","","","","","","","","canvas-keyboard-response","415","1340841","0.0-415.0","null","null","","","","","","","","","","","","","","fixation","","","2","45","","","","","","","","","",""
"","","","","","","","","","","","canvas-keyboard-response","416","1341154","0.0-416.0","null","null","","","","","","","","","","","","","","stimulus","","","2","45","","","","","","","","","",""
"","","","","","","","","","","","canvas-button-response","417","1344798","0.0-417.0","3644","bridge","","","","","","","","","","","","","","perceptual","","","2","45","","","","","382","knife","10","0","0",""
"","","","","","","","","","","","canvas-button-response","418","1345511","0.0-418.0","712","6","","","","","","","","","","","","","","confidence","","","2","45","","","","","","","","","","32"
"","","","","","","","","","","","preload","419","1345512","0.0-419.0","","","","","true","","","","","","","","","","","preload","","","2","46","false","[]","[]","[]","","","","","",""
"","","","","","","","","","","","canvas-keyboard-response","420","1345822","0.0-420.0","null","null","","","","","","","","","","","","","","fixation","","","2","46","","","","","","","","","",""
"","","","","","","","","","","","canvas-keyboard-response","421","1346131","0.0-421.0","null","null","","","","","","","","","","","","","","stimulus","","","2","46","","","","","","","","","",""
"","","","","","","","","","","","canvas-button-response","422","1347973","0.0-422.0","1842","bridge","","","","","","","","","","","","","","perceptual","","","2","46","","","","","26","house","10","0","0",""
"","","","","","","","","","","","canvas-button-response","423","1348660","0.0-423.0","686","5","","","","","","","","","","","","","","confidence","","","2","46","","","","","","","","","","32"
"","","","","","","","","","","","preload","424","1348661","0.0-424.0","","","","","true","","","","","","","","","","","preload","","","2","47","false","[]","[]","[]","","","","","",""
"","","","","","","","","","","","canvas-keyboard-response","425","1348966","0.0-425.0","null","null","","","","","","","","","","","","","","fixation","","","2","47","","","","","","","","","",""
"","","","","","","","","","","","canvas-keyboard-response","426","1349276","0.0-426.0","null","null","","","","","","","","","","","","","","stimulus","","","2","47","","","","","","","","","",""
"","","","","","","","","","","","canvas-button-response","427","1349911","0.0-427.0","634","train","","","","","","","","","","","","","","perceptual","","","2","47","","","","","259","train","6","0","1",""
"","","","","","","","","","","","canvas-button-response","428","1350299","0.0-428.0","386","10","","","","","","","","","","","","","","confidence","","","2","47","","","","","","","","","","33"
"","","","","","","","","","","","preload","429","1350299","0.0-429.0","","","","","true","","","","","","","","","","","preload","","","2","48","false","[]","[]","[]","","","","","",""
"","","","","","","","","","","","canvas-keyboard-response","430","1350604","0.0-430.0","null","null","","","","","","","","","","","","","","fixation","","","2","48","","","","","","","","","",""
"","","","","","","","","","","","canvas-keyboard-response","431","1350916","0.0-431.0","null","null","","","","","","","","","","","","","","stimulus","","","2","48","","","","","","","","","",""
"","","","","","","","","","","","canvas-button-response","432","1352492","0.0-432.0","1576","car","","","","","","","","","","","","","","perceptual","","","2","48","","","","","141","bed","10","0","0",""
"","","","","","","","","","","","canvas-button-response","433","1354077","0.0-433.0","1583","4","","","","","","","","","","","","","","confidence","","","2","48","","","","","","","","","","33"
"","","","","","","","","","","","preload","434","1354077","0.0-434.0","","","","","true","","","","","","","","","","","preload","","","2","49","false","[]","[]","[]","","","","","",""
"","","","","","","","","","","","canvas-keyboard-response","435","1354386","0.0-435.0","null","null","","","","","","","","","","","","","","fixation","","","2","49","","","","","","","","","",""
"","","","","","","","","","","","canvas-keyboard-response","436","1354698","0.0-436.0","null","null","","","","","","","","","","","","","","stimulus","","","2","49","","","","","","","","","",""
"","","","","","","","","","","","canvas-button-response","437","1355692","0.0-437.0","993","bridge","","","","","","","","","","","","","","perceptual","","","2","49","","","","","162","bridge","6","0","1",""
"","","","","","","","","","","","canvas-button-response","438","1356315","0.0-438.0","621","10","","","","","","","","","","","","","","confidence","","","2","49","","","","","","","","","","34"
"","","","","","","","","","","","html-button-response","439","1367565","0.0-439.0","11249","0","","","","","","","","","","","","","","<p style=""font-size:20px;color:#000000"">You got 34 out of 50 trials correct in this block.<br><br>You have completed 6% of the experiment.<br><br>Take a short break.<br><br>When you are ready, click Continue to proceed.","","","2","49","","","","","","","","","",""
"","","","","","","","","","","","html-keyboard-response","440","1368568","0.0-440.0","null","null","","","","","","","","","","","","","","<p style=""font-size:32px;color:#000000""><br><br> RUN: &nbsp 1/4 <br><br> BLOCK: 2/4 ","","","2","49","","","","","","","","","",""
"","","","","","","","","","","","preload","441","1368568","0.0-441.0","","","","","true","","","","","","","","","","","preload","","","2","50","false","[]","[]","[]","","","","","",""
"","","","","","","","","","","","canvas-keyboard-response","442","1368879","0.0-442.0","null","null","","","","","","","","","","","","","","fixation","","","2","50","","","","","","","","","",""
"","","","","","","","","","","","canvas-keyboard-response","443","1369190","0.0-443.0","null","null","","","","","","","","","","","","","","stimulus","","","2","50","","","","","","","","","",""
"","","","","","","","","","","","canvas-button-response","444","1370118","0.0-444.0","927","car","","","","","","","","","","","","","","perceptual","","","2","50","","","","","52","car","6","0","1",""
"","","","","","","","","","","","canvas-button-response","445","1371528","0.0-445.0","1409","10","","","","","","","","","","","","","","confidence","","","2","50","","","","","","","","","","1"
"","","","","","","","","","","","preload","446","1371528","0.0-446.0","","","","","true","","","","","","","","","","","preload","","","2","51","false","[]","[]","[]","","","","","",""
"","","","","","","","","","","","canvas-keyboard-response","447","1371842","0.0-447.0","null","null","","","","","","","","","","","","","","fixation","","","2","51","","","","","","","","","",""
"","","","","","","","","","","","canvas-keyboard-response","448","1372152","0.0-448.0","null","null","","","","","","","","","","","","","","stimulus","","","2","51","","","","","","","","","",""
"","","","","","","","","","","","canvas-button-response","449","1372842","0.0-449.0","689","flower","","","","","","","","","","","","","","perceptual","","","2","51","","","","","206","flower","6","0","1",""
"","","","","","","","","","","","canvas-button-response","450","1373463","0.0-450.0","620","10","","","","","","","","","","","","","","confidence","","","2","51","","","","","","","","","","2"
"","","","","","","","","","","","preload","451","1373463","0.0-451.0","","","","","true","","","","","","","","","","","preload","","","2","52","false","[]","[]","[]","","","","","",""
"","","","","","","","","","","","canvas-keyboard-response","452","1373767","0.0-452.0","null","null","","","","","","","","","","","","","","fixation","","","2","52","","","","","","","","","",""
"","","","","","","","","","","","canvas-keyboard-response","453","1374079","0.0-453.0","null","null","","","","","","","","","","","","","","stimulus","","","2","52","","","","","","","","","",""
"","","","","","","","","","","","canvas-button-response","454","1374671","0.0-454.0","591","car","","","","","","","","","","","","","","perceptual","","","2","52","","","","","72","car","10","0","1",""
"","","","","","","","","","","","canvas-button-response","455","1375164","0.0-455.0","492","10","","","","","","","","","","","","","","confidence","","","2","52","","","","","","","","","","3"
"","","","","","","","","","","","preload","456","1375164","0.0-456.0","","","","","true","","","","","","","","","","","preload","","","2","53","false","[]","[]","[]","","","","","",""
"","","","","","","","","","","","canvas-keyboard-response","457","1375466","0.0-457.0","null","null","","","","","","","","","","","","","","fixation","","","2","53","","","","","","","","","",""
"","","","","","","","","","","","canvas-keyboard-response","458","1375778","0.0-458.0","null","null","","","","","","","","","","","","","","stimulus","","","2","53","","","","","","","","","",""
"","","","","","","","","","","","canvas-button-response","459","1409991","0.0-459.0","34212","car","","","","","","","","","","","","","","perceptual","","","2","53","","","","","149","bed","10","0","0",""
"","","","","","","","","","","","canvas-button-response","460","1411336","0.0-460.0","1344","10","","","","","","","","","","","","","","confidence","","","2","53","","","","","","","","","","3"
"","","","","","","","","","","","preload","461","1411337","0.0-461.0","","","","","true","","","","","","","","","","","preload","","","2","54","false","[]","[]","[]","","","","","",""
"","","","","","","","","","","","canvas-keyboard-response","462","1411639","0.0-462.0","null","null","","","","","","","","","","","","","","fixation","","","2","54","","","","","","","","","",""
"","","","","","","","","","","","canvas-keyboard-response","463","1411951","0.0-463.0","null","null","","","","","","","","","","","","","","stimulus","","","2","54","","","","","","","","","",""
"","","","","","","","","","","","canvas-button-response","464","1412755","0.0-464.0","803","car","","","","","","","","","","","","","","perceptual","","","2","54","","","","","51","car","6","0","1",""
"","","","","","","","","","","","canvas-button-response","465","1413178","0.0-465.0","422","10","","","","","","","","","","","","","","confidence","","","2","54","","","","","","","","","","4"
"","","","","","","","","","","","preload","466","1413179","0.0-466.0","","","","","true","","","","","","","","","","","preload","","","2","55","false","[]","[]","[]","","","","","",""
"","","","","","","","","","","","canvas-keyboard-response","467","1413480","0.0-467.0","null","null","","","","","","","","","","","","","","fixation","","","2","55","","","","","","","","","",""
"","","","","","","","","","","","canvas-keyboard-response","468","1413791","0.0-468.0","null","null","","","","","","","","","","","","","","stimulus","","","2","55","","","","","","","","","",""
"","","","","","","","","","","","canvas-button-response","469","1420389","0.0-469.0","6596","house","","","","","","","","","","","","","","perceptual","","","2","55","","","","","322","elephant","6","0","0",""
"","","","","","","","","","","","canvas-button-response","470","1421186","0.0-470.0","796","8","","","","","","","","","","","","","","confidence","","","2","55","","","","","","","","","","4"
"","","","","","","","","","","","preload","471","1421186","0.0-471.0","","","","","true","","","","","","","","","","","preload","","","2","56","false","[]","[]","[]","","","","","",""
"","","","","","","","","","","","canvas-keyboard-response","472","1421499","0.0-472.0","null","null","","","","","","","","","","","","","","fixation","","","2","56","","","","","","","","","",""
"","","","","","","","","","","","canvas-keyboard-response","473","1421813","0.0-473.0","null","null","","","","","","","","","","","","","","stimulus","","","2","56","","","","","","","","","",""
"","","","","","","","","","","","canvas-button-response","474","1423956","0.0-474.0","2143","car","","","","","","","","","","","","","","perceptual","","","2","56","","","","","332","elephant","6","0","0",""
"","","","","","","","","","","","canvas-button-response","475","1424411","0.0-475.0","453","6","","","","","","","","","","","","","","confidence","","","2","56","","","","","","","","","","4"
"","","","","","","","","","","","preload","476","1424411","0.0-476.0","","","","","true","","","","","","","","","","","preload","","","2","57","false","[]","[]","[]","","","","","",""
"","","","","","","","","","","","canvas-keyboard-response","477","1424717","0.0-477.0","null","null","","","","","","","","","","","","","","fixation","","","2","57","","","","","","","","","",""
"","","","","","","","","","","","canvas-keyboard-response","478","1425027","0.0-478.0","null","null","","","","","","","","","","","","","","stimulus","","","2","57","","","","","","","","","",""
"","","","","","","","","","","","canvas-button-response","479","1425611","0.0-479.0","583","flower","","","","","","","","","","","","","","perceptual","","","2","57","","","","","202","flower","6","0","1",""
"","","","","","","","","","","","canvas-button-response","480","1426088","0.0-480.0","476","8","","","","","","","","","","","","","","confidence","","","2","57","","","","","","","","","","5"
"","","","","","","","","","","","preload","481","1426088","0.0-481.0","","","","","true","","","","","","","","","","","preload","","","2","58","false","[]","[]","[]","","","","","",""
"","","","","","","","","","","","canvas-keyboard-response","482","1426393","0.0-482.0","null","null","","","","","","","","","","","","","","fixation","","","2","58","","","","","","","","","",""
"","","","","","","","","","","","canvas-keyboard-response","483","1426703","0.0-483.0","null","null","","","","","","","","","","","","","","stimulus","","","2","58","","","","","","","","","",""
"","","","","","","","","","","","canvas-button-response","484","1427366","0.0-484.0","661","car","","","","","","","","","","","","","","perceptual","","","2","58","","","","","56","car","6","0","1",""
"","","","","","","","","","","","canvas-button-response","485","1427844","0.0-485.0","477","10","","","","","","","","","","","","","","confidence","","","2","58","","","","","","","","","","6"
"","","","","","","","","","","","preload","486","1427844","0.0-486.0","","","","","true","","","","","","","","","","","preload","","","2","59","false","[]","[]","[]","","","","","",""
"","","","","","","","","","","","canvas-keyboard-response","487","1428145","0.0-487.0","null","null","","","","","","","","","","","","","","fixation","","","2","59","","","","","","","","","",""
"","","","","","","","","","","","canvas-keyboard-response","488","1428451","0.0-488.0","null","null","","","","","","","","","","","","","","stimulus","","","2","59","","","","","","","","","",""
"","","","","","","","","","","","canvas-button-response","489","1429134","0.0-489.0","682","car","","","","","","","","","","","","","","perceptual","","","2","59","","","","","41","car","6","0","1",""
