"width","height","webaudio","browser","browser_version","mobile","os","fullscreen","vsync_rate","webcam","microphone","trial_type","trial_index","time_elapsed","internal_node_id","rt","response","accuracy","view_history","success","item_width_mm","item_height_mm","item_width_px","px2mm","view_dist_mm","item_width_deg","px2deg","scale_factor","win_width_deg","win_height_deg","stimulus","datetime","subjectID","curr_triallist","trial_no","timeout","failed_images","failed_audio","failed_video","image_index","category","blur","reps","correct","running_score"
"1440","778","true","chrome","141.0.0","false","Mac OS","true","60.71","true","true","browser-check","0","996","0.0-0.0","","","","","","","","","","","","","","","","","","","","","","","","","","","","","",""
"","","","","","","","","","","","survey","1","37587","0.0-1.0","36546","{""P0_Q0"":""903981949"",""P0_Q1"":""19"",""P1_Q0"":""Female"",""P1_Q1"":""Hispanic or Latino"",""P1_Q2"":""White"",""P1_Q3"":""Normal"",""P1_Q4"":""Right-Handed""}","[]","","","","","","","","","","","","","","","","","","","","","","","","","","",""
"","","","","","","","","","","","instructions","2","71023","0.0-2.0","33436","","","[{""page_index"":0,""viewing_time"":8051},{""page_index"":1,""viewing_time"":6400},{""page_index"":2,""viewing_time"":15551},{""page_index"":3,""viewing_time"":3434}]","","","","","","","","","","","","","","","","","","","","","","","","","",""
"","","","","","","","","","","","fullscreen","3","73158","0.0-3.0","1130","","","","true","","","","","","","","","","","","","","","","","","","","","","","","",""
"","","","","","","","","","","","virtual-chinrest","4","144113","0.0-4.0","70955","","","","","85.6","53.98","262.42365967158776","3.0657550762581227","559.59","8.74745532238626","29.999999999999996","1.6080867118769524","48.00000000000001","30.000000000000004","","","","","","","","","","","","","","",""
"","","","","","","","","","","","instructions","5","209219","0.0-5.0","65108","","","[{""page_index"":0,""viewing_time"":4973},{""page_index"":1,""viewing_time"":11734},{""page_index"":2,""viewing_time"":9583},{""page_index"":3,""viewing_time"":3567},{""page_index"":4,""viewing_time"":8316},{""page_index"":5,""viewing_time"":24567},{""page_index"":6,""viewing_time"":2368}]","","","","","","","","","","","","","","","","","","","","","","","","","",""
"","","","","","","","","","","","html-button-response","6","210805","0.0-6.0","1580","0","","","","","","","","","","","","","","start_practice","Tue Oct 21 2025 15:55:47 GMT-0400 (Eastern Daylight Time)","25692","","","","","","","","","","","",""
"","","","","","","","","","","","preload","7","210807","0.0-7.0","","","","","true","","","","","","","","","","","preload","","","0","0","false","[]","[]","[]","","","","","",""
"","","","","","","","","","","","canvas-keyboard-response","8","211114","0.0-8.0","null","null","","","","","","","","","","","","","","fixation","","","0","0","","","","","","","","","",""
"","","","","","","","","","","","canvas-keyboard-response","9","211418","0.0-9.0","null","null","","","","","","","","","","","","","","stimulus","","","0","0","","","","","","","","","",""
"","","","","","","","","","","","canvas-button-response","10","212987","0.0-10.0","1565","bridge","","","","","","","","","","","","","","perceptual","","","0","0","","","","","42","bridge","1","","1",""
"","","","","","","","","","","","canvas-button-response","11","214536","0.0-11.0","1546","10","","","","","","","","","","","","","","confidence","","","0","0","","","","","","","","","","1"
"","","","","","","","","","","","html-keyboard-response","12","215540","0.0-12.0","null","null","","","","","","","","","","","","","","feedback","Tue Oct 21 2025 15:55:52 GMT-0400 (Eastern Daylight Time)","25692","0","0","","","","","","","","","",""
"","","","","","","","","","","","preload","13","215541","0.0-13.0","","","","","true","","","","","","","","","","","preload","","","0","1","false","[]","[]","[]","","","","","",""
"","","","","","","","","","","","canvas-keyboard-response","14","215844","0.0-14.0","null","null","","","","","","","","","","","","","","fixation","","","0","1","","","","","","","","","",""
"","","","","","","","","","","","canvas-keyboard-response","15","216148","0.0-15.0","null","null","","","","","","","","","","","","","","stimulus","","","0","1","","","","","","","","","",""
"","","","","","","","","","","","canvas-button-response","16","231353","0.0-16.0","15203","house","","","","","","","","","","","","","","perceptual","","","0","1","","","","","82","elephant","1","","0",""
"","","","","","","","","","","","canvas-button-response","17","232553","0.0-17.0","1198","1","","","","","","","","","","","","","","confidence","","","0","1","","","","","","","","","","1"
"","","","","","","","","","","","html-keyboard-response","18","233556","0.0-18.0","null","null","","","","","","","","","","","","","","feedback","Tue Oct 21 2025 15:56:10 GMT-0400 (Eastern Daylight Time)","25692","0","1","","","","","","","","","",""
"","","","","","","","","","","","preload","19","233557","0.0-19.0","","","","","true","","","","","","","","","","","preload","","","0","2","false","[]","[]","[]","","","","","",""
"","","","","","","","","","","","canvas-keyboard-response","20","233859","0.0-20.0","null","null","","","","","","","","","","","","","","fixation","","","0","2","","","","","","","","","",""
"","","","","","","","","","","","canvas-keyboard-response","21","234161","0.0-21.0","null","null","","","","","","","","","","","","","","stimulus","","","0","2","","","","","","","","","",""
"","","","","","","","","","","","canvas-button-response","22","235137","0.0-22.0","973","house","","","","","","","","","","","","","","perceptual","","","0","2","","","","","2","house","1","","1",""
"","","","","","","","","","","","canvas-button-response","23","236387","0.0-23.0","1247","10","","","","","","","","","","","","","","confidence","","","0","2","","","","","","","","","","2"
"","","","","","","","","","","","html-keyboard-response","24","237390","0.0-24.0","null","null","","","","","","","","","","","","","","feedback","Tue Oct 21 2025 15:56:14 GMT-0400 (Eastern Daylight Time)","25692","0","2","","","","","","","","","",""
"","","","","","","","","","","","preload","25","237392","0.0-25.0","","","","","true","","","","","","","","","","","preload","","","0","3","false","[]","[]","[]","","","","","",""
"","","","","","","","","","","","canvas-keyboard-response","26","237695","0.0-26.0","null","null","","","","","","","","","","","","","","fixation","","","0","3","","","","","","","","","",""
"","","","","","","","","","","","canvas-keyboard-response","27","237998","0.0-27.0","null","null","","","","","","","","","","","","","","stimulus","","","0","3","","","","","","","","","",""
"","","","","","","","","","","","canvas-button-response","28","239220","0.0-28.0","1218","cat","","","","","","","","","","","","","","perceptual","","","0","3","","","","","72","cat","1","","1",""
"","","","","","","","","","","","canvas-button-response","29","240137","0.0-29.0","914","10","","","","","","","","","","","","","","confidence","","","0","3","","","","","","","","","","3"
"","","","","","","","","","","","html-keyboard-response","30","241140","0.0-30.0","null","null","","","","","","","","","","","","","","feedback","Tue Oct 21 2025 15:56:18 GMT-0400 (Eastern Daylight Time)","25692","0","3","","","","","","","","","",""
"","","","","","","","","","","","preload","31","241142","0.0-31.0","","","","","true","","","","","","","","","","","preload","","","0","4","false","[]","[]","[]","","","","","",""
"","","","","","","","","","","","canvas-keyboard-response","32","241445","0.0-32.0","null","null","","","","","","","","","","","","","","fixation","","","0","4","","","","","","","","","",""
"","","","","","","","","","","","canvas-keyboard-response","33","241749","0.0-33.0","null","null","","","","","","","","","","","","","","stimulus","","","0","4","","","","","","","","","",""
"","","","","","","","","","","","canvas-button-response","34","242904","0.0-34.0","1152","car","","","","","","","","","","","","","","perceptual","","","0","4","","","","","12","car","1","","1",""
"","","","","","","","","","","","canvas-button-response","35","243853","0.0-35.0","947","10","","","","","","","","","","","","","","confidence","","","0","4","","","","","","","","","","4"
"","","","","","","","","","","","html-keyboard-response","36","244857","0.0-36.0","null","null","","","","","","","","","","","","","","feedback","Tue Oct 21 2025 15:56:21 GMT-0400 (Eastern Daylight Time)","25692","0","4","","","","","","","","","",""
"","","","","","","","","","","","preload","37","244858","0.0-37.0","","","","","true","","","","","","","","","","","preload","","","0","5","false","[]","[]","[]","","","","","",""
"","","","","","","","","","","","canvas-keyboard-response","38","245161","0.0-38.0","null","null","","","","","","","","","","","","","","fixation","","","0","5","","","","","","","","","",""
"","","","","","","","","","","","canvas-keyboard-response","39","245465","0.0-39.0","null","null","","","","","","","","","","","","","","stimulus","","","0","5","","","","","","","","","",""
"","","","","","","","","","","","canvas-button-response","40","246720","0.0-40.0","1252","house","","","","","","","","","","","","","","perceptual","","","0","5","","","","","52","flower","1","","0",""
"","","","","","","","","","","","canvas-button-response","41","247652","0.0-41.0","930","10","","","","","","","","","","","","","","confidence","","","0","5","","","","","","","","","","4"
"","","","","","","","","","","","html-keyboard-response","42","248655","0.0-42.0","null","null","","","","","","","","","","","","","","feedback","Tue Oct 21 2025 15:56:25 GMT-0400 (Eastern Daylight Time)","25692","0","5","","","","","","","","","",""
"","","","","","","","","","","","preload","43","248657","0.0-43.0","","","","","true","","","","","","","","","","","preload","","","0","6","false","[]","[]","[]","","","","","",""
"","","","","","","","","","","","canvas-keyboard-response","44","248960","0.0-44.0","null","null","","","","","","","","","","","","","","fixation","","","0","6","","","","","","","","","",""
"","","","","","","","","","","","canvas-keyboard-response","45","249263","0.0-45.0","null","null","","","","","","","","","","","","","","stimulus","","","0","6","","","","","","","","","",""
"","","","","","","","","","","","canvas-button-response","46","250236","0.0-46.0","970","train","","","","","","","","","","","","","","perceptual","","","0","6","","","","","62","train","1","","1",""
"","","","","","","","","","","","canvas-button-response","47","250952","0.0-47.0","713","10","","","","","","","","","","","","","","confidence","","","0","6","","","","","","","","","","5"
"","","","","","","","","","","","html-keyboard-response","48","251956","0.0-48.0","null","null","","","","","","","","","","","","","","feedback","Tue Oct 21 2025 15:56:29 GMT-0400 (Eastern Daylight Time)","25692","0","6","","","","","","","","","",""
"","","","","","","","","","","","preload","49","251957","0.0-49.0","","","","","true","","","","","","","","","","","preload","","","0","7","false","[]","[]","[]","","","","","",""
"","","","","","","","","","","","canvas-keyboard-response","50","252260","0.0-50.0","null","null","","","","","","","","","","","","","","fixation","","","0","7","","","","","","","","","",""
"","","","","","","","","","","","canvas-keyboard-response","51","252563","0.0-51.0","null","null","","","","","","","","","","","","","","stimulus","","","0","7","","","","","","","","","",""
"","","","","","","","","","","","canvas-button-response","52","255169","0.0-52.0","2603","bed","","","","","","","","","","","","","","perceptual","","","0","7","","","","","32","bed","1","","1",""
"","","","","","","","","","","","canvas-button-response","53","256136","0.0-53.0","964","10","","","","","","","","","","","","","","confidence","","","0","7","","","","","","","","","","6"
"","","","","","","","","","","","html-keyboard-response","54","257139","0.0-54.0","null","null","","","","","","","","","","","","","","feedback","Tue Oct 21 2025 15:56:34 GMT-0400 (Eastern Daylight Time)","25692","0","7","","","","","","","","","",""
"","","","","","","","","","","","preload","55","257140","0.0-55.0","","","","","true","","","","","","","","","","","preload","","","0","8","false","[]","[]","[]","","","","","",""
"","","","","","","","","","","","canvas-keyboard-response","56","257443","0.0-56.0","null","null","","","","","","","","","","","","","","fixation","","","0","8","","","","","","","","","",""
"","","","","","","","","","","","canvas-keyboard-response","57","257746","0.0-57.0","null","null","","","","","","","","","","","","","","stimulus","","","0","8","","","","","","","","","",""
"","","","","","","","","","","","canvas-button-response","58","259186","0.0-58.0","1436","phone","","","","","","","","","","","","","","perceptual","","","0","8","","","","","22","phone","1","","1",""
"","","","","","","","","","","","canvas-button-response","59","260020","0.0-59.0","832","10","","","","","","","","","","","","","","confidence","","","0","8","","","","","","","","","","7"
"","","","","","","","","","","","html-keyboard-response","60","261024","0.0-60.0","null","null","","","","","","","","","","","","","","feedback","Tue Oct 21 2025 15:56:38 GMT-0400 (Eastern Daylight Time)","25692","0","8","","","","","","","","","",""
"","","","","","","","","","","","preload","61","261026","0.0-61.0","","","","","true","","","","","","","","","","","preload","","","0","9","false","[]","[]","[]","","","","","",""
"","","","","","","","","","","","canvas-keyboard-response","62","261329","0.0-62.0","null","null","","","","","","","","","","","","","","fixation","","","0","9","","","","","","","","","",""
"","","","","","","","","","","","canvas-keyboard-response","63","261632","0.0-63.0","null","null","","","","","","","","","","","","","","stimulus","","","0","9","","","","","","","","","",""
"","","","","","","","","","","","canvas-button-response","64","266785","0.0-64.0","5150","knife","","","","","","","","","","","","","","perceptual","","","0","9","","","","","92","knife","1","","1",""
"","","","","","","","","","","","canvas-button-response","65","268485","0.0-65.0","1698","8","","","","","","","","","","","","","","confidence","","","0","9","","","","","","","","","","8"
"","","","","","","","","","","","html-keyboard-response","66","269488","0.0-66.0","null","null","","","","","","","","","","","","","","feedback","Tue Oct 21 2025 15:56:46 GMT-0400 (Eastern Daylight Time)","25692","0","9","","","","","","","","","",""
"","","","","","","","","","","","html-button-response","67","276653","0.0-67.0","7160","0","","","","","","","","","","","","","","start_practice","Tue Oct 21 2025 15:56:47 GMT-0400 (Eastern Daylight Time)","25692","0","9","","","","","","","","","",""
"","","","","","","","","","","","preload","68","276654","0.0-68.0","","","","","true","","","","","","","","","","","preload","","","1","0","false","[]","[]","[]","","","","","",""
"","","","","","","","","","","","canvas-keyboard-response","69","276958","0.0-69.0","null","null","","","","","","","","","","","","","","fixation","","","1","0","","","","","","","","","",""
"","","","","","","","","","","","canvas-keyboard-response","70","277260","0.0-70.0","null","null","","","","","","","","","","","","","","stimulus","","","1","0","","","","","","","","","",""
"","","","","","","","","","","","canvas-button-response","71","283001","0.0-71.0","5739","bed","","","","","","","","","","","","","","perceptual","","","1","0","","","","","94","knife","6","","0",""
"","","","","","","","","","","","canvas-button-response","72","284319","0.0-72.0","1315","5","","","","","","","","","","","","","","confidence","","","1","0","","","","","","","","","","0"
"","","","","","","","","","","","html-keyboard-response","73","285321","0.0-73.0","null","null","","","","","","","","","","","","","","feedback","Tue Oct 21 2025 15:57:02 GMT-0400 (Eastern Daylight Time)","25692","1","0","","","","","","","","","",""
"","","","","","","","","","","","preload","74","285323","0.0-74.0","","","","","true","","","","","","","","","","","preload","","","1","1","false","[]","[]","[]","","","","","",""
"","","","","","","","","","","","canvas-keyboard-response","75","285626","0.0-75.0","null","null","","","","","","","","","","","","","","fixation","","","1","1","","","","","","","","","",""
"","","","","","","","","","","","canvas-keyboard-response","76","285928","0.0-76.0","null","null","","","","","","","","","","","","","","stimulus","","","1","1","","","","","","","","","",""
"","","","","","","","","","","","canvas-button-response","77","293702","0.0-77.0","7771","bridge","","","","","","","","","","","","","","perceptual","","","1","1","","","","","77","cat","10","","0",""
"","","","","","","","","","","","canvas-button-response","78","295119","0.0-78.0","1414","1","","","","","","","","","","","","","","confidence","","","1","1","","","","","","","","","","0"
"","","","","","","","","","","","html-keyboard-response","79","296122","0.0-79.0","null","null","","","","","","","","","","","","","","feedback","Tue Oct 21 2025 15:57:13 GMT-0400 (Eastern Daylight Time)","25692","1","1","","","","","","","","","",""
"","","","","","","","","","","","preload","80","296123","0.0-80.0","","","","","true","","","","","","","","","","","preload","","","1","2","false","[]","[]","[]","","","","","",""
"","","","","","","","","","","","canvas-keyboard-response","81","296426","0.0-81.0","null","null","","","","","","","","","","","","","","fixation","","","1","2","","","","","","","","","",""
"","","","","","","","","","","","canvas-keyboard-response","82","296730","0.0-82.0","null","null","","","","","","","","","","","","","","stimulus","","","1","2","","","","","","","","","",""
"","","","","","","","","","","","canvas-button-response","83","297784","0.0-83.0","1052","bed","","","","","","","","","","","","","","perceptual","","","1","2","","","","","34","bed","6","","1",""
"","","","","","","","","","","","canvas-button-response","84","299186","0.0-84.0","1399","8","","","","","","","","","","","","","","confidence","","","1","2","","","","","","","","","","1"
"","","","","","","","","","","","html-keyboard-response","85","300189","0.0-85.0","null","null","","","","","","","","","","","","","","feedback","Tue Oct 21 2025 15:57:17 GMT-0400 (Eastern Daylight Time)","25692","1","2","","","","","","","","","",""
"","","","","","","","","","","","preload","86","300191","0.0-86.0","","","","","true","","","","","","","","","","","preload","","","1","3","false","[]","[]","[]","","","","","",""
"","","","","","","","","","","","canvas-keyboard-response","87","300494","0.0-87.0","null","null","","","","","","","","","","","","","","fixation","","","1","3","","","","","","","","","",""
"","","","","","","","","","","","canvas-keyboard-response","88","300797","0.0-88.0","null","null","","","","","","","","","","","","","","stimulus","","","1","3","","","","","","","","","",""
"","","","","","","","","","","","canvas-button-response","89","301869","0.0-89.0","1069","elephant","","","","","","","","","","","","","","perceptual","","","1","3","","","","","84","elephant","6","","1",""
"","","","","","","","","","","","canvas-button-response","90","303285","0.0-90.0","1413","9","","","","","","","","","","","","","","confidence","","","1","3","","","","","","","","","","2"
"","","","","","","","","","","","html-keyboard-response","91","304288","0.0-91.0","null","null","","","","","","","","","","","","","","feedback","Tue Oct 21 2025 15:57:21 GMT-0400 (Eastern Daylight Time)","25692","1","3","","","","","","","","","",""
"","","","","","","","","","","","preload","92","304290","0.0-92.0","","","","","true","","","","","","","","","","","preload","","","1","4","false","[]","[]","[]","","","","","",""
"","","","","","","","","","","","canvas-keyboard-response","93","304592","0.0-93.0","null","null","","","","","","","","","","","","","","fixation","","","1","4","","","","","","","","","",""
"","","","","","","","","","","","canvas-keyboard-response","94","304895","0.0-94.0","null","null","","","","","","","","","","","","","","stimulus","","","1","4","","","","","","","","","",""
"","","","","","","","","","","","canvas-button-response","95","305736","0.0-95.0","838","cat","","","","","","","","","","","","","","perceptual","","","1","4","","","","","74","cat","6","","1",""
"","","","","","","","","","","","canvas-button-response","96","306419","0.0-96.0","681","10","","","","","","","","","","","","","","confidence","","","1","4","","","","","","","","","","3"
"","","","","","","","","","","","html-keyboard-response","97","307422","0.0-97.0","null","null","","","","","","","","","","","","","","feedback","Tue Oct 21 2025 15:57:24 GMT-0400 (Eastern Daylight Time)","25692","1","4","","","","","","","","","",""
"","","","","","","","","","","","preload","98","307423","0.0-98.0","","","","","true","","","","","","","","","","","preload","","","1","5","false","[]","[]","[]","","","","","",""
"","","","","","","","","","","","canvas-keyboard-response","99","307726","0.0-99.0","null","null","","","","","","","","","","","","","","fixation","","","1","5","","","","","","","","","",""
"","","","","","","","","","","","canvas-keyboard-response","100","308029","0.0-100.0","null","null","","","","","","","","","","","","","","stimulus","","","1","5","","","","","","","","","",""
"","","","","","","","","","","","canvas-button-response","101","311318","0.0-101.0","3286","train","","","","","","","","","","","","","","perceptual","","","1","5","","","","","27","phone","10","","0",""
"","","","","","","","","","","","canvas-button-response","102","312352","0.0-102.0","1031","5","","","","","","","","","","","","","","confidence","","","1","5","","","","","","","","","","3"
"","","","","","","","","","","","html-keyboard-response","103","313356","0.0-103.0","null","null","","","","","","","","","","","","","","feedback","Tue Oct 21 2025 15:57:30 GMT-0400 (Eastern Daylight Time)","25692","1","5","","","","","","","","","",""
"","","","","","","","","","","","preload","104","313357","0.0-104.0","","","","","true","","","","","","","","","","","preload","","","1","6","false","[]","[]","[]","","","","","",""
"","","","","","","","","","","","canvas-keyboard-response","105","313660","0.0-105.0","null","null","","","","","","","","","","","","","","fixation","","","1","6","","","","","","","","","",""
"","","","","","","","","","","","canvas-keyboard-response","106","313962","0.0-106.0","null","null","","","","","","","","","","","","","","stimulus","","","1","6","","","","","","","","","",""
"","","","","","","","","","","","canvas-button-response","107","314834","0.0-107.0","869","house","","","","","","","","","","","","","","perceptual","","","1","6","","","","","4","house","6","","1",""
"","","","","","","","","","","","canvas-button-response","108","315501","0.0-108.0","665","10","","","","","","","","","","","","","","confidence","","","1","6","","","","","","","","","","4"
"","","","","","","","","","","","html-keyboard-response","109","316504","0.0-109.0","null","null","","","","","","","","","","","","","","feedback","Tue Oct 21 2025 15:57:33 GMT-0400 (Eastern Daylight Time)","25692","1","6","","","","","","","","","",""
"","","","","","","","","","","","preload","110","316505","0.0-110.0","","","","","true","","","","","","","","","","","preload","","","1","7","false","[]","[]","[]","","","","","",""
"","","","","","","","","","","","canvas-keyboard-response","111","316809","0.0-111.0","null","null","","","","","","","","","","","","","","fixation","","","1","7","","","","","","","","","",""
"","","","","","","","","","","","canvas-keyboard-response","112","317112","0.0-112.0","null","null","","","","","","","","","","","","","","stimulus","","","1","7","","","","","","","","","",""
"","","","","","","","","","","","canvas-button-response","113","318184","0.0-113.0","1070","flower","","","","","","","","","","","","","","perceptual","","","1","7","","","","","57","flower","10","","1",""
"","","","","","","","","","","","canvas-button-response","114","319269","0.0-114.0","1081","9","","","","","","","","","","","","","","confidence","","","1","7","","","","","","","","","","5"
"","","","","","","","","","","","html-keyboard-response","115","320272","0.0-115.0","null","null","","","","","","","","","","","","","","feedback","Tue Oct 21 2025 15:57:37 GMT-0400 (Eastern Daylight Time)","25692","1","7","","","","","","","","","",""
"","","","","","","","","","","","preload","116","320273","0.0-116.0","","","","","true","","","","","","","","","","","preload","","","1","8","false","[]","[]","[]","","","","","",""
"","","","","","","","","","","","canvas-keyboard-response","117","320575","0.0-117.0","null","null","","","","","","","","","","","","","","fixation","","","1","8","","","","","","","","","",""
"","","","","","","","","","","","canvas-keyboard-response","118","320878","0.0-118.0","null","null","","","","","","","","","","","","","","stimulus","","","1","8","","","","","","","","","",""
"","","","","","","","","","","","canvas-button-response","119","322351","0.0-119.0","1470","bridge","","","","","","","","","","","","","","perceptual","","","1","8","","","","","44","bridge","6","","1",""
"","","","","","","","","","","","canvas-button-response","120","323168","0.0-120.0","815","8","","","","","","","","","","","","","","confidence","","","1","8","","","","","","","","","","6"
"","","","","","","","","","","","html-keyboard-response","121","324172","0.0-121.0","null","null","","","","","","","","","","","","","","feedback","Tue Oct 21 2025 15:57:41 GMT-0400 (Eastern Daylight Time)","25692","1","8","","","","","","","","","",""
"","","","","","","","","","","","preload","122","324173","0.0-122.0","","","","","true","","","","","","","","","","","preload","","","1","9","false","[]","[]","[]","","","","","",""
"","","","","","","","","","","","canvas-keyboard-response","123","324476","0.0-123.0","null","null","","","","","","","","","","","","","","fixation","","","1","9","","","","","","","","","",""
"","","","","","","","","","","","canvas-keyboard-response","124","324780","0.0-124.0","null","null","","","","","","","","","","","","","","stimulus","","","1","9","","","","","","","","","",""
"","","","","","","","","","","","canvas-button-response","125","325851","0.0-125.0","1068","knife","","","","","","","","","","","","","","perceptual","","","1","9","","","","","97","knife","10","","1",""
"","","","","","","","","","","","canvas-button-response","126","326652","0.0-126.0","797","10","","","","","","","","","","","","","","confidence","","","1","9","","","","","","","","","","7"
"","","","","","","","","","","","html-keyboard-response","127","327656","0.0-127.0","null","null","","","","","","","","","","","","","","feedback","Tue Oct 21 2025 15:57:44 GMT-0400 (Eastern Daylight Time)","25692","1","9","","","","","","","","","",""
"","","","","","","","","","","","preload","128","327657","0.0-128.0","","","","","true","","","","","","","","","","","preload","","","1","10","false","[]","[]","[]","","","","","",""
"","","","","","","","","","","","canvas-keyboard-response","129","327960","0.0-129.0","null","null","","","","","","","","","","","","","","fixation","","","1","10","","","","","","","","","",""
"","","","","","","","","","","","canvas-keyboard-response","130","328263","0.0-130.0","null","null","","","","","","","","","","","","","","stimulus","","","1","10","","","","","","","","","",""
"","","","","","","","","","","","canvas-button-response","131","329519","0.0-131.0","1253","flower","","","","","","","","","","","","","","perceptual","","","1","10","","","","","54","flower","6","","1",""
"","","","","","","","","","","","canvas-button-response","132","330351","0.0-132.0","830","10","","","","","","","","","","","","","","confidence","","","1","10","","","","","","","","","","8"
"","","","","","","","","","","","html-keyboard-response","133","331354","0.0-133.0","null","null","","","","","","","","","","","","","","feedback","Tue Oct 21 2025 15:57:48 GMT-0400 (Eastern Daylight Time)","25692","1","10","","","","","","","","","",""
"","","","","","","","","","","","preload","134","331355","0.0-134.0","","","","","true","","","","","","","","","","","preload","","","1","11","false","[]","[]","[]","","","","","",""
"","","","","","","","","","","","canvas-keyboard-response","135","331658","0.0-135.0","null","null","","","","","","","","","","","","","","fixation","","","1","11","","","","","","","","","",""
"","","","","","","","","","","","canvas-keyboard-response","136","331962","0.0-136.0","null","null","","","","","","","","","","","","","","stimulus","","","1","11","","","","","","","","","",""
"","","","","","","","","","","","canvas-button-response","137","332752","0.0-137.0","787","train","","","","","","","","","","","","","","perceptual","","","1","11","","","","","64","train","6","","1",""
"","","","","","","","","","","","canvas-button-response","138","333452","0.0-138.0","697","10","","","","","","","","","","","","","","confidence","","","1","11","","","","","","","","","","9"
"","","","","","","","","","","","html-keyboard-response","139","334455","0.0-139.0","null","null","","","","","","","","","","","","","","feedback","Tue Oct 21 2025 15:57:51 GMT-0400 (Eastern Daylight Time)","25692","1","11","","","","","","","","","",""
"","","","","","","","","","","","preload","140","334457","0.0-140.0","","","","","true","","","","","","","","","","","preload","","","1","12","false","[]","[]","[]","","","","","",""
"","","","","","","","","","","","canvas-keyboard-response","141","334760","0.0-141.0","null","null","","","","","","","","","","","","","","fixation","","","1","12","","","","","","","","","",""
"","","","","","","","","","","","canvas-keyboard-response","142","335062","0.0-142.0","null","null","","","","","","","","","","","","","","stimulus","","","1","12","","","","","","","","","",""
"","","","","","","","","","","","canvas-button-response","143","343451","0.0-143.0","8386","train","","","","","","","","","","","","","","perceptual","","","1","12","","","","","67","train","10","","1",""
"","","","","","","","","","","","canvas-button-response","144","344785","0.0-144.0","1331","1","","","","","","","","","","","","","","confidence","","","1","12","","","","","","","","","","10"
"","","","","","","","","","","","html-keyboard-response","145","345788","0.0-145.0","null","null","","","","","","","","","","","","","","feedback","Tue Oct 21 2025 15:58:02 GMT-0400 (Eastern Daylight Time)","25692","1","12","","","","","","","","","",""
"","","","","","","","","","","","preload","146","345790","0.0-146.0","","","","","true","","","","","","","","","","","preload","","","1","13","false","[]","[]","[]","","","","","",""
"","","","","","","","","","","","canvas-keyboard-response","147","346093","0.0-147.0","null","null","","","","","","","","","","","","","","fixation","","","1","13","","","","","","","","","",""
"","","","","","","","","","","","canvas-keyboard-response","148","346395","0.0-148.0","null","null","","","","","","","","","","","","","","stimulus","","","1","13","","","","","","","","","",""
"","","","","","","","","","","","canvas-button-response","149","350268","0.0-149.0","3870","bridge","","","","","","","","","","","","","","perceptual","","","1","13","","","","","14","car","6","","0",""
"","","","","","","","","","","","canvas-button-response","150","351034","0.0-150.0","764","1","","","","","","","","","","","","","","confidence","","","1","13","","","","","","","","","","10"
"","","","","","","","","","","","html-keyboard-response","151","352036","0.0-151.0","null","null","","","","","","","","","","","","","","feedback","Tue Oct 21 2025 15:58:09 GMT-0400 (Eastern Daylight Time)","25692","1","13","","","","","","","","","",""
"","","","","","","","","","","","preload","152","352038","0.0-152.0","","","","","true","","","","","","","","","","","preload","","","1","14","false","[]","[]","[]","","","","","",""
"","","","","","","","","","","","canvas-keyboard-response","153","352340","0.0-153.0","null","null","","","","","","","","","","","","","","fixation","","","1","14","","","","","","","","","",""
"","","","","","","","","","","","canvas-keyboard-response","154","352644","0.0-154.0","null","null","","","","","","","","","","","","","","stimulus","","","1","14","","","","","","","","","",""
"","","","","","","","","","","","canvas-button-response","155","356734","0.0-155.0","4087","car","","","","","","","","","","","","","","perceptual","","","1","14","","","","","47","bridge","10","","0",""
"","","","","","","","","","","","canvas-button-response","156","357818","0.0-156.0","1082","5","","","","","","","","","","","","","","confidence","","","1","14","","","","","","","","","","10"
"","","","","","","","","","","","html-keyboard-response","157","358820","0.0-157.0","null","null","","","","","","","","","","","","","","feedback","Tue Oct 21 2025 15:58:15 GMT-0400 (Eastern Daylight Time)","25692","1","14","","","","","","","","","",""
"","","","","","","","","","","","preload","158","358821","0.0-158.0","","","","","true","","","","","","","","","","","preload","","","1","15","false","[]","[]","[]","","","","","",""
"","","","","","","","","","","","canvas-keyboard-response","159","359123","0.0-159.0","null","null","","","","","","","","","","","","","","fixation","","","1","15","","","","","","","","","",""
"","","","","","","","","","","","canvas-keyboard-response","160","359425","0.0-160.0","null","null","","","","","","","","","","","","","","stimulus","","","1","15","","","","","","","","","",""
"","","","","","","","","","","","canvas-button-response","161","363534","0.0-161.0","4107","house","","","","","","","","","","","","","","perceptual","","","1","15","","","","","7","house","10","","1",""
"","","","","","","","","","","","canvas-button-response","162","364318","0.0-162.0","781","3","","","","","","","","","","","","","","confidence","","","1","15","","","","","","","","","","11"
"","","","","","","","","","","","html-keyboard-response","163","365320","0.0-163.0","null","null","","","","","","","","","","","","","","feedback","Tue Oct 21 2025 15:58:22 GMT-0400 (Eastern Daylight Time)","25692","1","15","","","","","","","","","",""
"","","","","","","","","","","","preload","164","365321","0.0-164.0","","","","","true","","","","","","","","","","","preload","","","1","16","false","[]","[]","[]","","","","","",""
"","","","","","","","","","","","canvas-keyboard-response","165","365624","0.0-165.0","null","null","","","","","","","","","","","","","","fixation","","","1","16","","","","","","","","","",""
"","","","","","","","","","","","canvas-keyboard-response","166","365927","0.0-166.0","null","null","","","","","","","","","","","","","","stimulus","","","1","16","","","","","","","","","",""
"","","","","","","","","","","","canvas-button-response","167","368818","0.0-167.0","2888","phone","","","","","","","","","","","","","","perceptual","","","1","16","","","","","24","phone","6","","1",""
"","","","","","","","","","","","canvas-button-response","168","369600","0.0-168.0","780","7","","","","","","","","","","","","","","confidence","","","1","16","","","","","","","","","","12"
"","","","","","","","","","","","html-keyboard-response","169","370602","0.0-169.0","null","null","","","","","","","","","","","","","","feedback","Tue Oct 21 2025 15:58:27 GMT-0400 (Eastern Daylight Time)","25692","1","16","","","","","","","","","",""
"","","","","","","","","","","","preload","170","370604","0.0-170.0","","","","","true","","","","","","","","","","","preload","","","1","17","false","[]","[]","[]","","","","","",""
"","","","","","","","","","","","canvas-keyboard-response","171","370907","0.0-171.0","null","null","","","","","","","","","","","","","","fixation","","","1","17","","","","","","","","","",""
"","","","","","","","","","","","canvas-keyboard-response","172","371210","0.0-172.0","null","null","","","","","","","","","","","","","","stimulus","","","1","17","","","","","","","","","",""
"","","","","","","","","","","","canvas-button-response","173","373368","0.0-173.0","2155","car","","","","","","","","","","","","","","perceptual","","","1","17","","","","","37","bed","10","","0",""
"","","","","","","","","","","","canvas-button-response","174","374101","0.0-174.0","731","5","","","","","","","","","","","","","","confidence","","","1","17","","","","","","","","","","12"
"","","","","","","","","","","","html-keyboard-response","175","375104","0.0-175.0","null","null","","","","","","","","","","","","","","feedback","Tue Oct 21 2025 15:58:32 GMT-0400 (Eastern Daylight Time)","25692","1","17","","","","","","","","","",""
"","","","","","","","","","","","preload","176","375106","0.0-176.0","","","","","true","","","","","","","","","","","preload","","","1","18","false","[]","[]","[]","","","","","",""
"","","","","","","","","","","","canvas-keyboard-response","177","375409","0.0-177.0","null","null","","","","","","","","","","","","","","fixation","","","1","18","","","","","","","","","",""
"","","","","","","","","","","","canvas-keyboard-response","178","375713","0.0-178.0","null","null","","","","","","","","","","","","","","stimulus","","","1","18","","","","","","","","","",""
"","","","","","","","","","","","canvas-button-response","179","382384","0.0-179.0","6669","elephant","","","","","","","","","","","","","","perceptual","","","1","18","","","","","17","car","10","","0",""
"","","","","","","","","","","","canvas-button-response","180","383150","0.0-180.0","763","3","","","","","","","","","","","","","","confidence","","","1","18","","","","","","","","","","12"
"","","","","","","","","","","","html-keyboard-response","181","384153","0.0-181.0","null","null","","","","","","","","","","","","","","feedback","Tue Oct 21 2025 15:58:41 GMT-0400 (Eastern Daylight Time)","25692","1","18","","","","","","","","","",""
"","","","","","","","","","","","preload","182","384154","0.0-182.0","","","","","true","","","","","","","","","","","preload","","","1","19","false","[]","[]","[]","","","","","",""
"","","","","","","","","","","","canvas-keyboard-response","183","384457","0.0-183.0","null","null","","","","","","","","","","","","","","fixation","","","1","19","","","","","","","","","",""
"","","","","","","","","","","","canvas-keyboard-response","184","384759","0.0-184.0","null","null","","","","","","","","","","","","","","stimulus","","","1","19","","","","","","","","","",""
"","","","","","","","","","","","canvas-button-response","185","385717","0.0-185.0","956","elephant","","","","","","","","","","","","","","perceptual","","","1","19","","","","","87","elephant","10","","1",""
"","","","","","","","","","","","canvas-button-response","186","386484","0.0-186.0","765","3","","","","","","","","","","","","","","confidence","","","1","19","","","","","","","","","","13"
"","","","","","","","","","","","html-keyboard-response","187","387487","0.0-187.0","null","null","","","","","","","","","","","","","","feedback","Tue Oct 21 2025 15:58:44 GMT-0400 (Eastern Daylight Time)","25692","1","19","","","","","","","","","",""
"","","","","","","","","","","","html-button-response","188","399967","0.0-188.0","12478","0","","","","","","","","","","","","","","start experiment","Tue Oct 21 2025 15:58:45 GMT-0400 (Eastern Daylight Time)","25692","1","19","","","","","","","","","",""
"","","","","","","","","","","","preload","189","399969","0.0-189.0","","","","","true","","","","","","","","","","","preload","","","2","0","false","[]","[]","[]","","","","","",""
"","","","","","","","","","","","canvas-keyboard-response","190","400272","0.0-190.0","null","null","","","","","","","","","","","","","","fixation","","","2","0","","","","","","","","","",""
"","","","","","","","","","","","canvas-keyboard-response","191","400574","0.0-191.0","null","null","","","","","","","","","","","","","","stimulus","","","2","0","","","","","","","","","",""
"","","","","","","","","","","","canvas-button-response","192","405334","0.0-192.0","4757","train","","","","","","","","","","","","","","perceptual","","","2","0","","","","","261","train","10","0","1",""
"","","","","","","","","","","","canvas-button-response","193","406749","0.0-193.0","1413","3","","","","","","","","","","","","","","confidence","","","2","0","","","","","","","","","","1"
"","","","","","","","","","","","preload","194","406750","0.0-194.0","","","","","true","","","","","","","","","","","preload","","","2","1","false","[]","[]","[]","","","","","",""
"","","","","","","","","","","","canvas-keyboard-response","195","407052","0.0-195.0","null","null","","","","","","","","","","","","","","fixation","","","2","1","","","","","","","","","",""
"","","","","","","","","","","","canvas-keyboard-response","196","407355","0.0-196.0","null","null","","","","","","","","","","","","","","stimulus","","","2","1","","","","","","","","","",""
"","","","","","","","","","","","canvas-button-response","197","408050","0.0-197.0","692","knife","","","","","","","","","","","","","","perceptual","","","2","1","","","","","376","knife","6","0","1",""
"","","","","","","","","","","","canvas-button-response","198","409067","0.0-198.0","1013","10","","","","","","","","","","","","","","confidence","","","2","1","","","","","","","","","","2"
"","","","","","","","","","","","preload","199","409068","0.0-199.0","","","","","true","","","","","","","","","","","preload","","","2","2","false","[]","[]","[]","","","","","",""
"","","","","","","","","","","","canvas-keyboard-response","200","409370","0.0-200.0","null","null","","","","","","","","","","","","","","fixation","","","2","2","","","","","","","","","",""
"","","","","","","","","","","","canvas-keyboard-response","201","409673","0.0-201.0","null","null","","","","","","","","","","","","","","stimulus","","","2","2","","","","","","","","","",""
"","","","","","","","","","","","canvas-button-response","202","411966","0.0-202.0","2290","bridge","","","","","","","","","","","","","","perceptual","","","2","2","","","","","180","bridge","10","0","1",""
"","","","","","","","","","","","canvas-button-response","203","412950","0.0-203.0","982","7","","","","","","","","","","","","","","confidence","","","2","2","","","","","","","","","","3"
"","","","","","","","","","","","preload","204","412951","0.0-204.0","","","","","true","","","","","","","","","","","preload","","","2","3","false","[]","[]","[]","","","","","",""
"","","","","","","","","","","","canvas-keyboard-response","205","413254","0.0-205.0","null","null","","","","","","","","","","","","","","fixation","","","2","3","","","","","","","","","",""
"","","","","","","","","","","","canvas-keyboard-response","206","413556","0.0-206.0","null","null","","","","","","","","","","","","","","stimulus","","","2","3","","","","","","","","","",""
"","","","","","","","","","","","canvas-button-response","207","416949","0.0-207.0","3390","bridge","","","","","","","","","","","","","","perceptual","","","2","3","","","","","268","train","10","0","0",""
"","","","","","","","","","","","canvas-button-response","208","417683","0.0-208.0","731","8","","","","","","","","","","","","","","confidence","","","2","3","","","","","","","","","","3"
"","","","","","","","","","","","preload","209","417684","0.0-209.0","","","","","true","","","","","","","","","","","preload","","","2","4","false","[]","[]","[]","","","","","",""
"","","","","","","","","","","","canvas-keyboard-response","210","417987","0.0-210.0","null","null","","","","","","","","","","","","","","fixation","","","2","4","","","","","","","","","",""
"","","","","","","","","","","","canvas-keyboard-response","211","418290","0.0-211.0","null","null","","","","","","","","","","","","","","stimulus","","","2","4","","","","","","","","","",""
"","","","","","","","","","","","canvas-button-response","212","420699","0.0-212.0","2407","elephant","","","","","","","","","","","","","","perceptual","","","2","4","","","","","326","elephant","6","0","1",""
"","","","","","","","","","","","canvas-button-response","213","421633","0.0-213.0","931","7","","","","","","","","","","","","","","confidence","","","2","4","","","","","","","","","","4"
"","","","","","","","","","","","preload","214","421634","0.0-214.0","","","","","true","","","","","","","","","","","preload","","","2","5","false","[]","[]","[]","","","","","",""
"","","","","","","","","","","","canvas-keyboard-response","215","421937","0.0-215.0","null","null","","","","","","","","","","","","","","fixation","","","2","5","","","","","","","","","",""
"","","","","","","","","","","","canvas-keyboard-response","216","422240","0.0-216.0","null","null","","","","","","","","","","","","","","stimulus","","","2","5","","","","","","","","","",""
"","","","","","","","","","","","canvas-button-response","217","423183","0.0-217.0","941","phone","","","","","","","","","","","","","","perceptual","","","2","5","","","","","83","phone","6","0","1",""
"","","","","","","","","","","","canvas-button-response","218","424183","0.0-218.0","997","8","","","","","","","","","","","","","","confidence","","","2","5","","","","","","","","","","5"
"","","","","","","","","","","","preload","219","424185","0.0-219.0","","","","","true","","","","","","","","","","","preload","","","2","6","false","[]","[]","[]","","","","","",""
"","","","","","","","","","","","canvas-keyboard-response","220","424487","0.0-220.0","null","null","","","","","","","","","","","","","","fixation","","","2","6","","","","","","","","","",""
"","","","","","","","","","","","canvas-keyboard-response","221","424790","0.0-221.0","null","null","","","","","","","","","","","","","","stimulus","","","2","6","","","","","","","","","",""
"","","","","","","","","","","","canvas-button-response","222","425583","0.0-222.0","790","car","","","","","","","","","","","","","","perceptual","","","2","6","","","","","61","car","10","0","1",""
"","","","","","","","","","","","canvas-button-response","223","426216","0.0-223.0","631","10","","","","","","","","","","","","","","confidence","","","2","6","","","","","","","","","","6"
"","","","","","","","","","","","preload","224","426218","0.0-224.0","","","","","true","","","","","","","","","","","preload","","","2","7","false","[]","[]","[]","","","","","",""
"","","","","","","","","","","","canvas-keyboard-response","225","426519","0.0-225.0","null","null","","","","","","","","","","","","","","fixation","","","2","7","","","","","","","","","",""
"","","","","","","","","","","","canvas-keyboard-response","226","426822","0.0-226.0","null","null","","","","","","","","","","","","","","stimulus","","","2","7","","","","","","","","","",""
"","","","","","","","","","","","canvas-button-response","227","427499","0.0-227.0","676","elephant","","","","","","","","","","","","","","perceptual","","","2","7","","","","","197","bridge","10","0","0",""
"","","","","","","","","","","","canvas-button-response","228","428233","0.0-228.0","731","8","","","","","","","","","","","","","","confidence","","","2","7","","","","","","","","","","6"
"","","","","","","","","","","","preload","229","428234","0.0-229.0","","","","","true","","","","","","","","","","","preload","","","2","8","false","[]","[]","[]","","","","","",""
"","","","","","","","","","","","canvas-keyboard-response","230","428536","0.0-230.0","null","null","","","","","","","","","","","","","","fixation","","","2","8","","","","","","","","","",""
"","","","","","","","","","","","canvas-keyboard-response","231","428840","0.0-231.0","null","null","","","","","","","","","","","","","","stimulus","","","2","8","","","","","","","","","",""
"","","","","","","","","","","","canvas-button-response","232","429667","0.0-232.0","824","car","","","","","","","","","","","","","","perceptual","","","2","8","","","","","77","car","10","0","1",""
"","","","","","","","","","","","canvas-button-response","233","430434","0.0-233.0","764","10","","","","","","","","","","","","","","confidence","","","2","8","","","","","","","","","","7"
"","","","","","","","","","","","preload","234","430435","0.0-234.0","","","","","true","","","","","","","","","","","preload","","","2","9","false","[]","[]","[]","","","","","",""
"","","","","","","","","","","","canvas-keyboard-response","235","430738","0.0-235.0","null","null","","","","","","","","","","","","","","fixation","","","2","9","","","","","","","","","",""
"","","","","","","","","","","","canvas-keyboard-response","236","431040","0.0-236.0","null","null","","","","","","","","","","","","","","stimulus","","","2","9","","","","","","","","","",""
"","","","","","","","","","","","canvas-button-response","237","435783","0.0-237.0","4740","bed","","","","","","","","","","","","","","perceptual","","","2","9","","","","","310","cat","10","0","0",""
"","","","","","","","","","","","canvas-button-response","238","436616","0.0-238.0","831","5","","","","","","","","","","","","","","confidence","","","2","9","","","","","","","","","","7"
"","","","","","","","","","","","preload","239","436617","0.0-239.0","","","","","true","","","","","","","","","","","preload","","","2","10","false","[]","[]","[]","","","","","",""
"","","","","","","","","","","","canvas-keyboard-response","240","436920","0.0-240.0","null","null","","","","","","","","","","","","","","fixation","","","2","10","","","","","","","","","",""
"","","","","","","","","","","","canvas-keyboard-response","241","437222","0.0-241.0","null","null","","","","","","","","","","","","","","stimulus","","","2","10","","","","","","","","","",""
"","","","","","","","","","","","canvas-button-response","242","442033","0.0-242.0","4808","flower","","","","","","","","","","","","","","perceptual","","","2","10","","","","","373","knife","6","0","0",""
"","","","","","","","","","","","canvas-button-response","243","443200","0.0-243.0","1164","3","","","","","","","","","","","","","","confidence","","","2","10","","","","","","","","","","7"
"","","","","","","","","","","","preload","244","443201","0.0-244.0","","","","","true","","","","","","","","","","","preload","","","2","11","false","[]","[]","[]","","","","","",""
"","","","","","","","","","","","canvas-keyboard-response","245","443504","0.0-245.0","null","null","","","","","","","","","","","","","","fixation","","","2","11","","","","","","","","","",""
"","","","","","","","","","","","canvas-keyboard-response","246","443808","0.0-246.0","null","null","","","","","","","","","","","","","","stimulus","","","2","11","","","","","","","","","",""
"","","","","","","","","","","","canvas-button-response","247","444850","0.0-247.0","1039","flower","","","","","","","","","","","","","","perceptual","","","2","11","","","","","225","flower","10","0","1",""
"","","","","","","","","","","","canvas-button-response","248","446000","0.0-248.0","1147","7","","","","","","","","","","","","","","confidence","","","2","11","","","","","","","","","","8"
"","","","","","","","","","","","preload","249","446001","0.0-249.0","","","","","true","","","","","","","","","","","preload","","","2","12","false","[]","[]","[]","","","","","",""
"","","","","","","","","","","","canvas-keyboard-response","250","446304","0.0-250.0","null","null","","","","","","","","","","","","","","fixation","","","2","12","","","","","","","","","",""
"","","","","","","","","","","","canvas-keyboard-response","251","446607","0.0-251.0","null","null","","","","","","","","","","","","","","stimulus","","","2","12","","","","","","","","","",""
"","","","","","","","","","","","canvas-button-response","252","454614","0.0-252.0","8006","bed","","","","","","","","","","","","","","perceptual","","","2","12","","","","","148","bed","10","0","1",""
"","","","","","","","","","","","canvas-button-response","253","456866","0.0-253.0","2251","0","","","","","","","","","","","","","","confidence","","","2","12","","","","","","","","","","9"
"","","","","","","","","","","","preload","254","456868","0.0-254.0","","","","","true","","","","","","","","","","","preload","","","2","13","false","[]","[]","[]","","","","","",""
"","","","","","","","","","","","canvas-keyboard-response","255","457169","0.0-255.0","null","null","","","","","","","","","","","","","","fixation","","","2","13","","","","","","","","","",""
"","","","","","","","","","","","canvas-keyboard-response","256","457472","0.0-256.0","null","null","","","","","","","","","","","","","","stimulus","","","2","13","","","","","","","","","",""
"","","","","","","","","","","","canvas-button-response","257","458716","0.0-257.0","1241","train","","","","","","","","","","","","","","perceptual","","","2","13","","","","","254","train","6","0","1",""
"","","","","","","","","","","","canvas-button-response","258","459666","0.0-258.0","947","8","","","","","","","","","","","","","","confidence","","","2","13","","","","","","","","","","10"
"","","","","","","","","","","","preload","259","459667","0.0-259.0","","","","","true","","","","","","","","","","","preload","","","2","14","false","[]","[]","[]","","","","","",""
"","","","","","","","","","","","canvas-keyboard-response","260","459971","0.0-260.0","null","null","","","","","","","","","","","","","","fixation","","","2","14","","","","","","","","","",""
"","","","","","","","","","","","canvas-keyboard-response","261","460274","0.0-261.0","null","null","","","","","","","","","","","","","","stimulus","","","2","14","","","","","","","","","",""
"","","","","","","","","","","","canvas-button-response","262","461332","0.0-262.0","1056","flower","","","","","","","","","","","","","","perceptual","","","2","14","","","","","221","flower","10","0","1",""
"","","","","","","","","","","","canvas-button-response","263","462233","0.0-263.0","898","10","","","","","","","","","","","","","","confidence","","","2","14","","","","","","","","","","11"
"","","","","","","","","","","","preload","264","462235","0.0-264.0","","","","","true","","","","","","","","","","","preload","","","2","15","false","[]","[]","[]","","","","","",""
"","","","","","","","","","","","canvas-keyboard-response","265","462537","0.0-265.0","null","null","","","","","","","","","","","","","","fixation","","","2","15","","","","","","","","","",""
"","","","","","","","","","","","canvas-keyboard-response","266","462840","0.0-266.0","null","null","","","","","","","","","","","","","","stimulus","","","2","15","","","","","","","","","",""
"","","","","","","","","","","","canvas-button-response","267","464099","0.0-267.0","1255","phone","","","","","","","","","","","","","","perceptual","","","2","15","","","","","98","phone","6","0","1",""
"","","","","","","","","","","","canvas-button-response","268","465033","0.0-268.0","932","7","","","","","","","","","","","","","","confidence","","","2","15","","","","","","","","","","12"
"","","","","","","","","","","","preload","269","465034","0.0-269.0","","","","","true","","","","","","","","","","","preload","","","2","16","false","[]","[]","[]","","","","","",""
"","","","","","","","","","","","canvas-keyboard-response","270","465338","0.0-270.0","null","null","","","","","","","","","","","","","","fixation","","","2","16","","","","","","","","","",""
"","","","","","","","","","","","canvas-keyboard-response","271","465640","0.0-271.0","null","null","","","","","","","","","","","","","","stimulus","","","2","16","","","","","","","","","",""
"","","","","","","","","","","","canvas-button-response","272","467216","0.0-272.0","1573","phone","","","","","","","","","","","","","","perceptual","","","2","16","","","","","291","cat","6","0","0",""
"","","","","","","","","","","","canvas-button-response","273","468133","0.0-273.0","914","5","","","","","","","","","","","","","","confidence","","","2","16","","","","","","","","","","12"
"","","","","","","","","","","","preload","274","468134","0.0-274.0","","","","","true","","","","","","","","","","","preload","","","2","17","false","[]","[]","[]","","","","","",""
"","","","","","","","","","","","canvas-keyboard-response","275","468437","0.0-275.0","null","null","","","","","","","","","","","","","","fixation","","","2","17","","","","","","","","","",""
"","","","","","","","","","","","canvas-keyboard-response","276","468741","0.0-276.0","null","null","","","","","","","","","","","","","","stimulus","","","2","17","","","","","","","","","",""
"","","","","","","","","","","","canvas-button-response","277","476381","0.0-277.0","7639","flower","","","","","","","","","","","","","","perceptual","","","2","17","","","","","190","bridge","10","0","0",""
"","","","","","","","","","","","canvas-button-response","278","477216","0.0-278.0","832","2","","","","","","","","","","","","","","confidence","","","2","17","","","","","","","","","","12"
"","","","","","","","","","","","preload","279","477218","0.0-279.0","","","","","true","","","","","","","","","","","preload","","","2","18","false","[]","[]","[]","","","","","",""
"","","","","","","","","","","","canvas-keyboard-response","280","477520","0.0-280.0","null","null","","","","","","","","","","","","","","fixation","","","2","18","","","","","","","","","",""
"","","","","","","","","","","","canvas-keyboard-response","281","477823","0.0-281.0","null","null","","","","","","","","","","","","","","stimulus","","","2","18","","","","","","","","","",""
"","","","","","","","","","","","canvas-button-response","282","478733","0.0-282.0","907","train","","","","","","","","","","","","","","perceptual","","","2","18","","","","","168","bridge","6","0","0",""
"","","","","","","","","","","","canvas-button-response","283","479700","0.0-283.0","964","8","","","","","","","","","","","","","","confidence","","","2","18","","","","","","","","","","12"
"","","","","","","","","","","","preload","284","479701","0.0-284.0","","","","","true","","","","","","","","","","","preload","","","2","19","false","[]","[]","[]","","","","","",""
"","","","","","","","","","","","canvas-keyboard-response","285","480004","0.0-285.0","null","null","","","","","","","","","","","","","","fixation","","","2","19","","","","","","","","","",""
"","","","","","","","","","","","canvas-keyboard-response","286","480307","0.0-286.0","null","null","","","","","","","","","","","","","","stimulus","","","2","19","","","","","","","","","",""
"","","","","","","","","","","","canvas-button-response","287","481183","0.0-287.0","874","train","","","","","","","","","","","","","","perceptual","","","2","19","","","","","250","train","6","0","1",""
"","","","","","","","","","","","canvas-button-response","288","482000","0.0-288.0","814","9","","","","","","","","","","","","","","confidence","","","2","19","","","","","","","","","","13"
"","","","","","","","","","","","preload","289","482001","0.0-289.0","","","","","true","","","","","","","","","","","preload","","","2","20","false","[]","[]","[]","","","","","",""
"","","","","","","","","","","","canvas-keyboard-response","290","482303","0.0-290.0","null","null","","","","","","","","","","","","","","fixation","","","2","20","","","","","","","","","",""
"","","","","","","","","","","","canvas-keyboard-response","291","482606","0.0-291.0","null","null","","","","","","","","","","","","","","stimulus","","","2","20","","","","","","","","","",""
"","","","","","","","","","","","canvas-button-response","292","483382","0.0-292.0","773","car","","","","","","","","","","","","","","perceptual","","","2","20","","","","","52","car","6","0","1",""
"","","","","","","","","","","","canvas-button-response","293","484215","0.0-293.0","830","10","","","","","","","","","","","","","","confidence","","","2","20","","","","","","","","","","14"
"","","","","","","","","","","","preload","294","484216","0.0-294.0","","","","","true","","","","","","","","","","","preload","","","2","21","false","[]","[]","[]","","","","","",""
"","","","","","","","","","","","canvas-keyboard-response","295","484520","0.0-295.0","null","null","","","","","","","","","","","","","","fixation","","","2","21","","","","","","","","","",""
"","","","","","","","","","","","canvas-keyboard-response","296","484822","0.0-296.0","null","null","","","","","","","","","","","","","","stimulus","","","2","21","","","","","","","","","",""
"","","","","","","","","","","","canvas-button-response","297","486166","0.0-297.0","1341","bridge","","","","","","","","","","","","","","perceptual","","","2","21","","","","","135","bed","6","0","0",""
"","","","","","","","","","","","canvas-button-response","298","486949","0.0-298.0","780","8","","","","","","","","","","","","","","confidence","","","2","21","","","","","","","","","","14"
"","","","","","","","","","","","preload","299","486950","0.0-299.0","","","","","true","","","","","","","","","","","preload","","","2","22","false","[]","[]","[]","","","","","",""
"","","","","","","","","","","","canvas-keyboard-response","300","487253","0.0-300.0","null","null","","","","","","","","","","","","","","fixation","","","2","22","","","","","","","","","",""
"","","","","","","","","","","","canvas-keyboard-response","301","487556","0.0-301.0","null","null","","","","","","","","","","","","","","stimulus","","","2","22","","","","","","","","","",""
"","","","","","","","","","","","canvas-button-response","302","491482","0.0-302.0","3924","cat","","","","","","","","","","","","","","perceptual","","","2","22","","","","","307","cat","10","0","1",""
"","","","","","","","","","","","canvas-button-response","303","494867","0.0-303.0","3381","1","","","","","","","","","","","","","","confidence","","","2","22","","","","","","","","","","15"
"","","","","","","","","","","","preload","304","494868","0.0-304.0","","","","","true","","","","","","","","","","","preload","","","2","23","false","[]","[]","[]","","","","","",""
"","","","","","","","","","","","canvas-keyboard-response","305","495172","0.0-305.0","null","null","","","","","","","","","","","","","","fixation","","","2","23","","","","","","","","","",""
"","","","","","","","","","","","canvas-keyboard-response","306","495475","0.0-306.0","null","null","","","","","","","","","","","","","","stimulus","","","2","23","","","","","","","","","",""
"","","","","","","","","","","","canvas-button-response","307","499065","0.0-307.0","3587","knife","","","","","","","","","","","","","","perceptual","","","2","23","","","","","332","elephant","6","0","0",""
"","","","","","","","","","","","canvas-button-response","308","500048","0.0-308.0","981","0","","","","","","","","","","","","","","confidence","","","2","23","","","","","","","","","","15"
"","","","","","","","","","","","preload","309","500049","0.0-309.0","","","","","true","","","","","","","","","","","preload","","","2","24","false","[]","[]","[]","","","","","",""
"","","","","","","","","","","","canvas-keyboard-response","310","500352","0.0-310.0","null","null","","","","","","","","","","","","","","fixation","","","2","24","","","","","","","","","",""
"","","","","","","","","","","","canvas-keyboard-response","311","500655","0.0-311.0","null","null","","","","","","","","","","","","","","stimulus","","","2","24","","","","","","","","","",""
"","","","","","","","","","","","canvas-button-response","312","501731","0.0-312.0","1074","train","","","","","","","","","","","","","","perceptual","","","2","24","","","","","392","knife","10","0","0",""
"","","","","","","","","","","","canvas-button-response","313","502798","0.0-313.0","1065","7","","","","","","","","","","","","","","confidence","","","2","24","","","","","","","","","","15"
"","","","","","","","","","","","preload","314","502799","0.0-314.0","","","","","true","","","","","","","","","","","preload","","","2","25","false","[]","[]","[]","","","","","",""
"","","","","","","","","","","","canvas-keyboard-response","315","503102","0.0-315.0","null","null","","","","","","","","","","","","","","fixation","","","2","25","","","","","","","","","",""
"","","","","","","","","","","","canvas-keyboard-response","316","503405","0.0-316.0","null","null","","","","","","","","","","","","","","stimulus","","","2","25","","","","","","","","","",""
"","","","","","","","","","","","canvas-button-response","317","504466","0.0-317.0","1058","car","","","","","","","","","","","","","","perceptual","","","2","25","","","","","44","car","6","0","1",""
"","","","","","","","","","","","canvas-button-response","318","505249","0.0-318.0","780","9","","","","","","","","","","","","","","confidence","","","2","25","","","","","","","","","","16"
"","","","","","","","","","","","preload","319","505250","0.0-319.0","","","","","true","","","","","","","","","","","preload","","","2","26","false","[]","[]","[]","","","","","",""
"","","","","","","","","","","","canvas-keyboard-response","320","505553","0.0-320.0","null","null","","","","","","","","","","","","","","fixation","","","2","26","","","","","","","","","",""
"","","","","","","","","","","","canvas-keyboard-response","321","505856","0.0-321.0","null","null","","","","","","","","","","","","","","stimulus","","","2","26","","","","","","","","","",""
"","","","","","","","","","","","canvas-button-response","322","507714","0.0-322.0","1855","knife","","","","","","","","","","","","","","perceptual","","","2","26","","","","","160","bridge","6","0","0",""
"","","","","","","","","","","","canvas-button-response","323","508282","0.0-323.0","565","5","","","","","","","","","","","","","","confidence","","","2","26","","","","","","","","","","16"
"","","","","","","","","","","","preload","324","508283","0.0-324.0","","","","","true","","","","","","","","","","","preload","","","2","27","false","[]","[]","[]","","","","","",""
"","","","","","","","","","","","canvas-keyboard-response","325","508586","0.0-325.0","null","null","","","","","","","","","","","","","","fixation","","","2","27","","","","","","","","","",""
"","","","","","","","","","","","canvas-keyboard-response","326","508888","0.0-326.0","null","null","","","","","","","","","","","","","","stimulus","","","2","27","","","","","","","","","",""
"","","","","","","","","","","","canvas-button-response","327","509615","0.0-327.0","724","elephant","","","","","","","","","","","","","","perceptual","","","2","27","","","","","356","elephant","10","0","1",""
"","","","","","","","","","","","canvas-button-response","328","510282","0.0-328.0","664","10","","","","","","","","","","","","","","confidence","","","2","27","","","","","","","","","","17"
"","","","","","","","","","","","preload","329","510283","0.0-329.0","","","","","true","","","","","","","","","","","preload","","","2","28","false","[]","[]","[]","","","","","",""
"","","","","","","","","","","","canvas-keyboard-response","330","510586","0.0-330.0","null","null","","","","","","","","","","","","","","fixation","","","2","28","","","","","","","","","",""
"","","","","","","","","","","","canvas-keyboard-response","331","510889","0.0-331.0","null","null","","","","","","","","","","","","","","stimulus","","","2","28","","","","","","","","","",""
"","","","","","","","","","","","canvas-button-response","332","513698","0.0-332.0","2806","flower","","","","","","","","","","","","","","perceptual","","","2","28","","","","","272","train","10","0","0",""
"","","","","","","","","","","","canvas-button-response","333","514799","0.0-333.0","1099","4","","","","","","","","","","","","","","confidence","","","2","28","","","","","","","","","","17"
"","","","","","","","","","","","preload","334","514800","0.0-334.0","","","","","true","","","","","","","","","","","preload","","","2","29","false","[]","[]","[]","","","","","",""
"","","","","","","","","","","","canvas-keyboard-response","335","515101","0.0-335.0","null","null","","","","","","","","","","","","","","fixation","","","2","29","","","","","","","","","",""
"","","","","","","","","","","","canvas-keyboard-response","336","515405","0.0-336.0","null","null","","","","","","","","","","","","","","stimulus","","","2","29","","","","","","","","","",""
"","","","","","","","","","","","canvas-button-response","337","516315","0.0-337.0","908","house","","","","","","","","","","","","","","perceptual","","","2","29","","","","","3","house","6","0","1",""
"","","","","","","","","","","","canvas-button-response","338","517032","0.0-338.0","715","10","","","","","","","","","","","","","","confidence","","","2","29","","","","","","","","","","18"
"","","","","","","","","","","","preload","339","517033","0.0-339.0","","","","","true","","","","","","","","","","","preload","","","2","30","false","[]","[]","[]","","","","","",""
"","","","","","","","","","","","canvas-keyboard-response","340","517336","0.0-340.0","null","null","","","","","","","","","","","","","","fixation","","","2","30","","","","","","","","","",""
"","","","","","","","","","","","canvas-keyboard-response","341","517640","0.0-341.0","null","null","","","","","","","","","","","","","","stimulus","","","2","30","","","","","","","","","",""
"","","","","","","","","","","","canvas-button-response","342","521464","0.0-342.0","3821","phone","","","","","","","","","","","","","","perceptual","","","2","30","","","","","114","phone","10","0","1",""
"","","","","","","","","","","","canvas-button-response","343","522065","0.0-343.0","598","5","","","","","","","","","","","","","","confidence","","","2","30","","","","","","","","","","19"
"","","","","","","","","","","","preload","344","522066","0.0-344.0","","","","","true","","","","","","","","","","","preload","","","2","31","false","[]","[]","[]","","","","","",""
"","","","","","","","","","","","canvas-keyboard-response","345","522369","0.0-345.0","null","null","","","","","","","","","","","","","","fixation","","","2","31","","","","","","","","","",""
"","","","","","","","","","","","canvas-keyboard-response","346","522672","0.0-346.0","null","null","","","","","","","","","","","","","","stimulus","","","2","31","","","","","","","","","",""
"","","","","","","","","","","","canvas-button-response","347","529148","0.0-347.0","6473","bed","","","","","","","","","","","","","","perceptual","","","2","31","","","","","31","house","10","0","0",""
"","","","","","","","","","","","canvas-button-response","348","529798","0.0-348.0","648","3","","","","","","","","","","","","","","confidence","","","2","31","","","","","","","","","","19"
"","","","","","","","","","","","preload","349","529800","0.0-349.0","","","","","true","","","","","","","","","","","preload","","","2","32","false","[]","[]","[]","","","","","",""
"","","","","","","","","","","","canvas-keyboard-response","350","530103","0.0-350.0","null","null","","","","","","","","","","","","","","fixation","","","2","32","","","","","","","","","",""
"","","","","","","","","","","","canvas-keyboard-response","351","530406","0.0-351.0","null","null","","","","","","","","","","","","","","stimulus","","","2","32","","","","","","","","","",""
"","","","","","","","","","","","canvas-button-response","352","531081","0.0-352.0","672","flower","","","","","","","","","","","","","","perceptual","","","2","32","","","","","219","flower","6","0","1",""
"","","","","","","","","","","","canvas-button-response","353","532098","0.0-353.0","1014","10","","","","","","","","","","","","","","confidence","","","2","32","","","","","","","","","","20"
"","","","","","","","","","","","preload","354","532099","0.0-354.0","","","","","true","","","","","","","","","","","preload","","","2","33","false","[]","[]","[]","","","","","",""
"","","","","","","","","","","","canvas-keyboard-response","355","532402","0.0-355.0","null","null","","","","","","","","","","","","","","fixation","","","2","33","","","","","","","","","",""
"","","","","","","","","","","","canvas-keyboard-response","356","532706","0.0-356.0","null","null","","","","","","","","","","","","","","stimulus","","","2","33","","","","","","","","","",""
"","","","","","","","","","","","canvas-button-response","357","536381","0.0-357.0","3673","bridge","","","","","","","","","","","","","","perceptual","","","2","33","","","","","131","bed","6","0","0",""
"","","","","","","","","","","","canvas-button-response","358","537365","0.0-358.0","982","5","","","","","","","","","","","","","","confidence","","","2","33","","","","","","","","","","20"
"","","","","","","","","","","","preload","359","537366","0.0-359.0","","","","","true","","","","","","","","","","","preload","","","2","34","false","[]","[]","[]","","","","","",""
"","","","","","","","","","","","canvas-keyboard-response","360","537669","0.0-360.0","null","null","","","","","","","","","","","","","","fixation","","","2","34","","","","","","","","","",""
"","","","","","","","","","","","canvas-keyboard-response","361","537972","0.0-361.0","null","null","","","","","","","","","","","","","","stimulus","","","2","34","","","","","","","","","",""
"","","","","","","","","","","","canvas-button-response","362","539247","0.0-362.0","1272","bridge","","","","","","","","","","","","","","perceptual","","","2","34","","","","","188","bridge","10","0","1",""
"","","","","","","","","","","","canvas-button-response","363","540082","0.0-363.0","832","2","","","","","","","","","","","","","","confidence","","","2","34","","","","","","","","","","21"
"","","","","","","","","","","","preload","364","540083","0.0-364.0","","","","","true","","","","","","","","","","","preload","","","2","35","false","[]","[]","[]","","","","","",""
"","","","","","","","","","","","canvas-keyboard-response","365","540386","0.0-365.0","null","null","","","","","","","","","","","","","","fixation","","","2","35","","","","","","","","","",""
"","","","","","","","","","","","canvas-keyboard-response","366","540689","0.0-366.0","null","null","","","","","","","","","","","","","","stimulus","","","2","35","","","","","","","","","",""
"","","","","","","","","","","","canvas-button-response","367","542149","0.0-367.0","1457","train","","","","","","","","","","","","","","perceptual","","","2","35","","","","","368","knife","6","0","0",""
"","","","","","","","","","","","canvas-button-response","368","542948","0.0-368.0","797","5","","","","","","","","","","","","","","confidence","","","2","35","","","","","","","","","","21"
"","","","","","","","","","","","preload","369","542949","0.0-369.0","","","","","true","","","","","","","","","","","preload","","","2","36","false","[]","[]","[]","","","","","",""
"","","","","","","","","","","","canvas-keyboard-response","370","543253","0.0-370.0","null","null","","","","","","","","","","","","","","fixation","","","2","36","","","","","","","","","",""
"","","","","","","","","","","","canvas-keyboard-response","371","543556","0.0-371.0","null","null","","","","","","","","","","","","","","stimulus","","","2","36","","","","","","","","","",""
"","","","","","","","","","","","canvas-button-response","372","544215","0.0-372.0","656","car","","","","","","","","","","","","","","perceptual","","","2","36","","","","","67","car","10","0","1",""
"","","","","","","","","","","","canvas-button-response","373","545348","0.0-373.0","1130","10","","","","","","","","","","","","","","confidence","","","2","36","","","","","","","","","","22"
"","","","","","","","","","","","preload","374","545349","0.0-374.0","","","","","true","","","","","","","","","","","preload","","","2","37","false","[]","[]","[]","","","","","",""
"","","","","","","","","","","","canvas-keyboard-response","375","545653","0.0-375.0","null","null","","","","","","","","","","","","","","fixation","","","2","37","","","","","","","","","",""
"","","","","","","","","","","","canvas-keyboard-response","376","545955","0.0-376.0","null","null","","","","","","","","","","","","","","stimulus","","","2","37","","","","","","","","","",""
"","","","","","","","","","","","canvas-button-response","377","548115","0.0-377.0","2157","cat","","","","","","","","","","","","","","perceptual","","","2","37","","","","","89","phone","6","0","0",""
"","","","","","","","","","","","canvas-button-response","378","549081","0.0-378.0","963","4","","","","","","","","","","","","","","confidence","","","2","37","","","","","","","","","","22"
"","","","","","","","","","","","preload","379","549082","0.0-379.0","","","","","true","","","","","","","","","","","preload","","","2","38","false","[]","[]","[]","","","","","",""
"","","","","","","","","","","","canvas-keyboard-response","380","549385","0.0-380.0","null","null","","","","","","","","","","","","","","fixation","","","2","38","","","","","","","","","",""
"","","","","","","","","","","","canvas-keyboard-response","381","549688","0.0-381.0","null","null","","","","","","","","","","","","","","stimulus","","","2","38","","","","","","","","","",""
"","","","","","","","","","","","canvas-button-response","382","552381","0.0-382.0","2690","flower","","","","","","","","","","","","","","perceptual","","","2","38","","","","","214","flower","6","0","1",""
"","","","","","","","","","","","canvas-button-response","383","553531","0.0-383.0","1148","5","","","","","","","","","","","","","","confidence","","","2","38","","","","","","","","","","23"
"","","","","","","","","","","","preload","384","553533","0.0-384.0","","","","","true","","","","","","","","","","","preload","","","2","39","false","[]","[]","[]","","","","","",""
"","","","","","","","","","","","canvas-keyboard-response","385","553836","0.0-385.0","null","null","","","","","","","","","","","","","","fixation","","","2","39","","","","","","","","","",""
"","","","","","","","","","","","canvas-keyboard-response","386","554138","0.0-386.0","null","null","","","","","","","","","","","","","","stimulus","","","2","39","","","","","","","","","",""
"","","","","","","","","","","","canvas-button-response","387","555498","0.0-387.0","1357","cat","","","","","","","","","","","","","","perceptual","","","2","39","","","","","309","cat","10","0","1",""
"","","","","","","","","","","","canvas-button-response","388","556880","0.0-388.0","1380","5","","","","","","","","","","","","","","confidence","","","2","39","","","","","","","","","","24"
"","","","","","","","","","","","preload","389","556882","0.0-389.0","","","","","true","","","","","","","","","","","preload","","","2","40","false","[]","[]","[]","","","","","",""
"","","","","","","","","","","","canvas-keyboard-response","390","557185","0.0-390.0","null","null","","","","","","","","","","","","","","fixation","","","2","40","","","","","","","","","",""
"","","","","","","","","","","","canvas-keyboard-response","391","557488","0.0-391.0","null","null","","","","","","","","","","","","","","stimulus","","","2","40","","","","","","","","","",""
"","","","","","","","","","","","canvas-button-response","392","558731","0.0-392.0","1240","bed","","","","","","","","","","","","","","perceptual","","","2","40","","","","","152","bed","10","0","1",""
"","","","","","","","","","","","canvas-button-response","393","560614","0.0-393.0","1880","8","","","","","","","","","","","","","","confidence","","","2","40","","","","","","","","","","25"
"","","","","","","","","","","","preload","394","560615","0.0-394.0","","","","","true","","","","","","","","","","","preload","","","2","41","false","[]","[]","[]","","","","","",""
"","","","","","","","","","","","canvas-keyboard-response","395","560917","0.0-395.0","null","null","","","","","","","","","","","","","","fixation","","","2","41","","","","","","","","","",""
"","","","","","","","","","","","canvas-keyboard-response","396","561220","0.0-396.0","null","null","","","","","","","","","","","","","","stimulus","","","2","41","","","","","","","","","",""
"","","","","","","","","","","","canvas-button-response","397","561948","0.0-397.0","726","cat","","","","","","","","","","","","","","perceptual","","","2","41","","","","","281","cat","6","0","1",""
"","","","","","","","","","","","canvas-button-response","398","562581","0.0-398.0","630","10","","","","","","","","","","","","","","confidence","","","2","41","","","","","","","","","","26"
"","","","","","","","","","","","preload","399","562582","0.0-399.0","","","","","true","","","","","","","","","","","preload","","","2","42","false","[]","[]","[]","","","","","",""
"","","","","","","","","","","","canvas-keyboard-response","400","562886","0.0-400.0","null","null","","","","","","","","","","","","","","fixation","","","2","42","","","","","","","","","",""
"","","","","","","","","","","","canvas-keyboard-response","401","563189","0.0-401.0","null","null","","","","","","","","","","","","","","stimulus","","","2","42","","","","","","","","","",""
"","","","","","","","","","","","canvas-button-response","402","565314","0.0-402.0","2123","knife","","","","","","","","","","","","","","perceptual","","","2","42","","","","","27","house","10","0","0",""
"","","","","","","","","","","","canvas-button-response","403","566248","0.0-403.0","931","7","","","","","","","","","","","","","","confidence","","","2","42","","","","","","","","","","26"
"","","","","","","","","","","","preload","404","566249","0.0-404.0","","","","","true","","","","","","","","","","","preload","","","2","43","false","[]","[]","[]","","","","","",""
"","","","","","","","","","","","canvas-keyboard-response","405","566552","0.0-405.0","null","null","","","","","","","","","","","","","","fixation","","","2","43","","","","","","","","","",""
"","","","","","","","","","","","canvas-keyboard-response","406","566855","0.0-406.0","null","null","","","","","","","","","","","","","","stimulus","","","2","43","","","","","","","","","",""
"","","","","","","","","","","","canvas-button-response","407","567614","0.0-407.0","756","cat","","","","","","","","","","","","","","perceptual","","","2","43","","","","","298","cat","6","0","1",""
"","","","","","","","","","","","canvas-button-response","408","568330","0.0-408.0","714","10","","","","","","","","","","","","","","confidence","","","2","43","","","","","","","","","","27"
"","","","","","","","","","","","preload","409","568331","0.0-409.0","","","","","true","","","","","","","","","","","preload","","","2","44","false","[]","[]","[]","","","","","",""
"","","","","","","","","","","","canvas-keyboard-response","410","568635","0.0-410.0","null","null","","","","","","","","","","","","","","fixation","","","2","44","","","","","","","","","",""
"","","","","","","","","","","","canvas-keyboard-response","411","568938","0.0-411.0","null","null","","","","","","","","","","","","","","stimulus","","","2","44","","","","","","","","","",""
"","","","","","","","","","","","canvas-button-response","412","569665","0.0-412.0","724","knife","","","","","","","","","","","","","","perceptual","","","2","44","","","","","396","knife","10","0","1",""
"","","","","","","","","","","","canvas-button-response","413","570214","0.0-413.0","547","10","","","","","","","","","","","","","","confidence","","","2","44","","","","","","","","","","28"
"","","","","","","","","","","","preload","414","570215","0.0-414.0","","","","","true","","","","","","","","","","","preload","","","2","45","false","[]","[]","[]","","","","","",""
"","","","","","","","","","","","canvas-keyboard-response","415","570518","0.0-415.0","null","null","","","","","","","","","","","","","","fixation","","","2","45","","","","","","","","","",""
"","","","","","","","","","","","canvas-keyboard-response","416","570821","0.0-416.0","null","null","","","","","","","","","","","","","","stimulus","","","2","45","","","","","","","","","",""
"","","","","","","","","","","","canvas-button-response","417","579248","0.0-417.0","8424","bed","","","","","","","","","","","","","","perceptual","","","2","45","","","","","233","flower","10","0","0",""
"","","","","","","","","","","","canvas-button-response","418","580064","0.0-418.0","814","4","","","","","","","","","","","","","","confidence","","","2","45","","","","","","","","","","28"
"","","","","","","","","","","","preload","419","580065","0.0-419.0","","","","","true","","","","","","","","","","","preload","","","2","46","false","[]","[]","[]","","","","","",""
"","","","","","","","","","","","canvas-keyboard-response","420","580368","0.0-420.0","null","null","","","","","","","","","","","","","","fixation","","","2","46","","","","","","","","","",""
"","","","","","","","","","","","canvas-keyboard-response","421","580671","0.0-421.0","null","null","","","","","","","","","","","","","","stimulus","","","2","46","","","","","","","","","",""
"","","","","","","","","","","","canvas-button-response","422","581714","0.0-422.0","1040","cat","","","","","","","","","","","","","","perceptual","","","2","46","","","","","150","bed","10","0","0",""
"","","","","","","","","","","","canvas-button-response","423","582264","0.0-423.0","548","7","","","","","","","","","","","","","","confidence","","","2","46","","","","","","","","","","28"
"","","","","","","","","","","","preload","424","582266","0.0-424.0","","","","","true","","","","","","","","","","","preload","","","2","47","false","[]","[]","[]","","","","","",""
"","","","","","","","","","","","canvas-keyboard-response","425","582569","0.0-425.0","null","null","","","","","","","","","","","","","","fixation","","","2","47","","","","","","","","","",""
"","","","","","","","","","","","canvas-keyboard-response","426","582871","0.0-426.0","null","null","","","","","","","","","","","","","","stimulus","","","2","47","","","","","","","","","",""
"","","","","","","","","","","","canvas-button-response","427","583748","0.0-427.0","873","train","","","","","","","","","","","","","","perceptual","","","2","47","","","","","259","train","6","0","1",""
"","","","","","","","","","","","canvas-button-response","428","584564","0.0-428.0","813","8","","","","","","","","","","","","","","confidence","","","2","47","","","","","","","","","","29"
"","","","","","","","","","","","preload","429","584565","0.0-429.0","","","","","true","","","","","","","","","","","preload","","","2","48","false","[]","[]","[]","","","","","",""
"","","","","","","","","","","","canvas-keyboard-response","430","584868","0.0-430.0","null","null","","","","","","","","","","","","","","fixation","","","2","48","","","","","","","","","",""
"","","","","","","","","","","","canvas-keyboard-response","431","585171","0.0-431.0","null","null","","","","","","","","","","","","","","stimulus","","","2","48","","","","","","","","","",""
"","","","","","","","","","","","canvas-button-response","432","587297","0.0-432.0","2123","cat","","","","","","","","","","","","","","perceptual","","","2","48","","","","","24","house","10","0","0",""
"","","","","","","","","","","","canvas-button-response","433","588181","0.0-433.0","881","7","","","","","","","","","","","","","","confidence","","","2","48","","","","","","","","","","29"
"","","","","","","","","","","","preload","434","588182","0.0-434.0","","","","","true","","","","","","","","","","","preload","","","2","49","false","[]","[]","[]","","","","","",""
"","","","","","","","","","","","canvas-keyboard-response","435","588485","0.0-435.0","null","null","","","","","","","","","","","","","","fixation","","","2","49","","","","","","","","","",""
"","","","","","","","","","","","canvas-keyboard-response","436","588788","0.0-436.0","null","null","","","","","","","","","","","","","","stimulus","","","2","49","","","","","","","","","",""
"","","","","","","","","","","","canvas-button-response","437","589863","0.0-437.0","1073","bed","","","","","","","","","","","","","","perceptual","","","2","49","","","","","153","bed","10","0","1",""
"","","","","","","","","","","","canvas-button-response","438","590831","0.0-438.0","965","10","","","","","","","","","","","","","","confidence","","","2","49","","","","","","","","","","30"
"","","","","","","","","","","","html-button-response","439","640996","0.0-439.0","50164","0","","","","","","","","","","","","","","<p style=""font-size:20px;color:#000000"">You got 30 out of 50 trials correct in this block.<br><br>You have completed 6% of the experiment.<br><br>Take a short break.<br><br>When you are ready, click Continue to proceed.","","","2","49","","","","","","","","","",""
"","","","","","","","","","","","html-keyboard-response","440","641999","0.0-440.0","null","null","","","","","","","","","","","","","","<p style=""font-size:32px;color:#000000""><br><br> RUN: &nbsp 1/4 <br><br> BLOCK: 2/4 ","","","2","49","","","","","","","","","",""
"","","","","","","","","","","","preload","441","642000","0.0-441.0","","","","","true","","","","","","","","","","","preload","","","2","50","false","[]","[]","[]","","","","","",""
"","","","","","","","","","","","canvas-keyboard-response","442","642304","0.0-442.0","null","null","","","","","","","","","","","","","","fixation","","","2","50","","","","","","","","","",""
"","","","","","","","","","","","canvas-keyboard-response","443","642607","0.0-443.0","null","null","","","","","","","","","","","","","","stimulus","","","2","50","","","","","","","","","",""
"","","","","","","","","","","","canvas-button-response","444","644114","0.0-444.0","1503","train","","","","","","","","","","","","","","perceptual","","","2","50","","","","","186","bridge","10","0","0",""
"","","","","","","","","","","","canvas-button-response","445","644796","0.0-445.0","679","6","","","","","","","","","","","","","","confidence","","","2","50","","","","","","","","","","0"
"","","","","","","","","","","","preload","446","644797","0.0-446.0","","","","","true","","","","","","","","","","","preload","","","2","51","false","[]","[]","[]","","","","","",""
"","","","","","","","","","","","canvas-keyboard-response","447","645099","0.0-447.0","null","null","","","","","","","","","","","","","","fixation","","","2","51","","","","","","","","","",""
"","","","","","","","","","","","canvas-keyboard-response","448","645403","0.0-448.0","null","null","","","","","","","","","","","","","","stimulus","","","2","51","","","","","","","","","",""
"","","","","","","","","","","","canvas-button-response","449","646763","0.0-449.0","1358","car","","","","","","","","","","","","","","perceptual","","","2","51","","","","","100","phone","10","0","0",""
"","","","","","","","","","","","canvas-button-response","450","647429","0.0-450.0","663","3","","","","","","","","","","","","","","confidence","","","2","51","","","","","","","","","","0"
"","","","","","","","","","","","preload","451","647430","0.0-451.0","","","","","true","","","","","","","","","","","preload","","","2","52","false","[]","[]","[]","","","","","",""
"","","","","","","","","","","","canvas-keyboard-response","452","647733","0.0-452.0","null","null","","","","","","","","","","","","","","fixation","","","2","52","","","","","","","","","",""
"","","","","","","","","","","","canvas-keyboard-response","453","648035","0.0-453.0","null","null","","","","","","","","","","","","","","stimulus","","","2","52","","","","","","","","","",""
"","","","","","","","","","","","canvas-button-response","454","649213","0.0-454.0","1175","elephant","","","","","","","","","","","","","","perceptual","","","2","52","","","","","331","elephant","6","0","1",""
"","","","","","","","","","","","canvas-button-response","455","649680","0.0-455.0","464","10","","","","","","","","","","","","","","confidence","","","2","52","","","","","","","","","","1"
"","","","","","","","","","","","preload","456","649681","0.0-456.0","","","","","true","","","","","","","","","","","preload","","","2","53","false","[]","[]","[]","","","","","",""
"","","","","","","","","","","","canvas-keyboard-response","457","649985","0.0-457.0","null","null","","","","","","","","","","","","","","fixation","","","2","53","","","","","","","","","",""
"","","","","","","","","","","","canvas-keyboard-response","458","650288","0.0-458.0","null","null","","","","","","","","","","","","","","stimulus","","","2","53","","","","","","","","","",""
"","","","","","","","","","","","canvas-button-response","459","652696","0.0-459.0","2406","train","","","","","","","","","","","","","","perceptual","","","2","53","","","","","176","bridge","6","0","0",""
"","","","","","","","","","","","canvas-button-response","460","653496","0.0-460.0","797","4","","","","","","","","","","","","","","confidence","","","2","53","","","","","","","","","","1"
"","","","","","","","","","","","preload","461","653498","0.0-461.0","","","","","true","","","","","","","","","","","preload","","","2","54","false","[]","[]","[]","","","","","",""
"","","","","","","","","","","","canvas-keyboard-response","462","653800","0.0-462.0","null","null","","","","","","","","","","","","","","fixation","","","2","54","","","","","","","","","",""
"","","","","","","","","","","","canvas-keyboard-response","463","654103","0.0-463.0","null","null","","","","","","","","","","","","","","stimulus","","","2","54","","","","","","","","","",""
"","","","","","","","","","","","canvas-button-response","464","655062","0.0-464.0","956","bed","","","","","","","","","","","","","","perceptual","","","2","54","","","","","142","bed","10","0","1",""
"","","","","","","","","","","","canvas-button-response","465","655913","0.0-465.0","848","5","","","","","","","","","","","","","","confidence","","","2","54","","","","","","","","","","2"
"","","","","","","","","","","","preload","466","655914","0.0-466.0","","","","","true","","","","","","","","","","","preload","","","2","55","false","[]","[]","[]","","","","","",""
"","","","","","","","","","","","canvas-keyboard-response","467","656217","0.0-467.0","null","null","","","","","","","","","","","","","","fixation","","","2","55","","","","","","","","","",""
"","","","","","","","","","","","canvas-keyboard-response","468","656520","0.0-468.0","null","null","","","","","","","","","","","","","","stimulus","","","2","55","","","","","","","","","",""
"","","","","","","","","","","","canvas-button-response","469","657129","0.0-469.0","606","car","","","","","","","","","","","","","","perceptual","","","2","55","","","","","66","car","10","0","1",""
"","","","","","","","","","","","canvas-button-response","470","657747","0.0-470.0","616","10","","","","","","","","","","","","","","confidence","","","2","55","","","","","","","","","","3"
"","","","","","","","","","","","preload","471","657748","0.0-471.0","","","","","true","","","","","","","","","","","preload","","","2","56","false","[]","[]","[]","","","","","",""
"","","","","","","","","","","","canvas-keyboard-response","472","658051","0.0-472.0","null","null","","","","","","","","","","","","","","fixation","","","2","56","","","","","","","","","",""
"","","","","","","","","","","","canvas-keyboard-response","473","658354","0.0-473.0","null","null","","","","","","","","","","","","","","stimulus","","","2","56","","","","","","","","","",""
"","","","","","","","","","","","canvas-button-response","474","663328","0.0-474.0","4972","bridge","","","","","","","","","","","","","","perceptual","","","2","56","","","","","275","train","10","0","0",""
"","","","","","","","","","","","canvas-button-response","475","664197","0.0-475.0","866","2","","","","","","","","","","","","","","confidence","","","2","56","","","","","","","","","","3"
"","","","","","","","","","","","preload","476","664198","0.0-476.0","","","","","true","","","","","","","","","","","preload","","","2","57","false","[]","[]","[]","","","","","",""
"","","","","","","","","","","","canvas-keyboard-response","477","664501","0.0-477.0","null","null","","","","","","","","","","","","","","fixation","","","2","57","","","","","","","","","",""
"","","","","","","","","","","","canvas-keyboard-response","478","664804","0.0-478.0","null","null","","","","","","","","","","","","","","stimulus","","","2","57","","","","","","","","","",""
"","","","","","","","","","","","canvas-button-response","479","665880","0.0-479.0","1073","elephant","","","","","","","","","","","","","","perceptual","","","2","57","","","","","330","elephant","6","0","1",""
"","","","","","","","","","","","canvas-button-response","480","666346","0.0-480.0","464","10","","","","","","","","","","","","","","confidence","","","2","57","","","","","","","","","","4"
"","","","","","","","","","","","preload","481","666348","0.0-481.0","","","","","true","","","","","","","","","","","preload","","","2","58","false","[]","[]","[]","","","","","",""
"","","","","","","","","","","","canvas-keyboard-response","482","666651","0.0-482.0","null","null","","","","","","","","","","","","","","fixation","","","2","58","","","","","","","","","",""
"","","","","","","","","","","","canvas-keyboard-response","483","666954","0.0-483.0","null","null","","","","","","","","","","","","","","stimulus","","","2","58","","","","","","","","","",""
"","","","","","","","","","","","canvas-button-response","484","668279","0.0-484.0","1322","train","","","","","","","","","","","","","","perceptual","","","2","58","","","","","256","train","6","0","1",""
"","","","","","","","","","","","canvas-button-response","485","669630","0.0-485.0","1348","10","","","","","","","","","","","","","","confidence","","","2","58","","","","","","","","","","5"
"","","","","","","","","","","","preload","486","669631","0.0-486.0","","","","","true","","","","","","","","","","","preload","","","2","59","false","[]","[]","[]","","","","","",""
"","","","","","","","","","","","canvas-keyboard-response","487","669933","0.0-487.0","null","null","","","","","","","","","","","","","","fixation","","","2","59","","","","","","","","","",""
"","","","","","","","","","","","canvas-keyboard-response","488","670236","0.0-488.0","null","null","","","","","","","","","","","","","","stimulus","","","2","59","","","","","","","","","",""
"","","","","","","","","","","","canvas-button-response","489","671064","0.0-489.0","824","elephant","","","","","","","","","","","","","","perceptual","","","2","59","","","","","323","elephant","6","0","1",""
"","","","","","","","","","","","canvas-button-response","490","671696","0.0-490.0","629","10","","","","","","","","","","","","","","confidence","","","2","59","","","","","","","","","","6"
"","","","","","","","","","","","preload","491","671697","0.0-491.0","","","","","true","","","","","","","","","","","preload","","","2","60","false","[]","[]","[]","","","","","",""
