"width","height","webaudio","browser","browser_version","mobile","os","fullscreen","vsync_rate","webcam","microphone","trial_type","trial_index","time_elapsed","internal_node_id","rt","response","accuracy","view_history","success","item_width_mm","item_height_mm","item_width_px","px2mm","view_dist_mm","item_width_deg","px2deg","scale_factor","win_width_deg","win_height_deg","stimulus","datetime","subjectID","curr_triallist","trial_no","timeout","failed_images","failed_audio","failed_video","image_index","category","blur","reps","correct","running_score"
"1470","798","true","chrome","140.0.0","false","Mac OS","true","60.72","true","true","browser-check","0","994","0.0-0.0","","","","","","","","","","","","","","","","","","","","","","","","","","","","","",""
"","","","","","","","","","","","survey","1","74870","0.0-1.0","73838","{""P0_Q0"":""904086053"",""P0_Q1"":""18"",""P1_Q0"":""Female"",""P1_Q1"":""Not Hispanic or Latino"",""P1_Q2"":""White"",""P1_Q3"":""Normal"",""P1_Q4"":""Right-Handed""}","[]","","","","","","","","","","","","","","","","","","","","","","","","","","",""
"","","","","","","","","","","","instructions","2","122270","0.0-2.0","47399","","","[{""page_index"":0,""viewing_time"":6497},{""page_index"":1,""viewing_time"":9418},{""page_index"":2,""viewing_time"":11417},{""page_index"":3,""viewing_time"":20067}]","","","","","","","","","","","","","","","","","","","","","","","","","",""
"","","","","","","","","","","","fullscreen","3","125554","0.0-3.0","2281","","","","true","","","","","","","","","","","","","","","","","","","","","","","","",""
"","","","","","","","","","","","virtual-chinrest","4","204488","0.0-4.0","78933","","","","","85.6","53.98","268.2148331029706","3.1312236249865144","547.46","8.940494436765686","30","1.6255625945661807","49","30.666666666666668","","","","","","","","","","","","","","",""
"","","","","","","","","","","","instructions","5","256388","0.0-5.0","51899","","","[{""page_index"":0,""viewing_time"":11766},{""page_index"":1,""viewing_time"":6888},{""page_index"":2,""viewing_time"":8120},{""page_index"":3,""viewing_time"":4480},{""page_index"":4,""viewing_time"":6719},{""page_index"":5,""viewing_time"":12249},{""page_index"":6,""viewing_time"":1678}]","","","","","","","","","","","","","","","","","","","","","","","","","",""
"","","","","","","","","","","","html-button-response","6","259435","0.0-6.0","3042","0","","","","","","","","","","","","","","start_practice","Tue Oct 21 2025 20:20:07 GMT-0400 (Eastern Daylight Time)","27133","","","","","","","","","","","",""
"","","","","","","","","","","","preload","7","259437","0.0-7.0","","","","","true","","","","","","","","","","","preload","","","0","0","false","[]","[]","[]","","","","","",""
"","","","","","","","","","","","canvas-keyboard-response","8","259742","0.0-8.0","null","null","","","","","","","","","","","","","","fixation","","","0","0","","","","","","","","","",""
"","","","","","","","","","","","canvas-keyboard-response","9","260046","0.0-9.0","null","null","","","","","","","","","","","","","","stimulus","","","0","0","","","","","","","","","",""
"","","","","","","","","","","","canvas-button-response","10","262033","0.0-10.0","1984","phone","","","","","","","","","","","","","","perceptual","","","0","0","","","","","22","phone","1","","1",""
"","","","","","","","","","","","canvas-button-response","11","263634","0.0-11.0","1599","7","","","","","","","","","","","","","","confidence","","","0","0","","","","","","","","","","1"
"","","","","","","","","","","","html-keyboard-response","12","264638","0.0-12.0","null","null","","","","","","","","","","","","","","feedback","Tue Oct 21 2025 20:20:14 GMT-0400 (Eastern Daylight Time)","27133","0","0","","","","","","","","","",""
"","","","","","","","","","","","preload","13","264640","0.0-13.0","","","","","true","","","","","","","","","","","preload","","","0","1","false","[]","[]","[]","","","","","",""
"","","","","","","","","","","","canvas-keyboard-response","14","264943","0.0-14.0","null","null","","","","","","","","","","","","","","fixation","","","0","1","","","","","","","","","",""
"","","","","","","","","","","","canvas-keyboard-response","15","265246","0.0-15.0","null","null","","","","","","","","","","","","","","stimulus","","","0","1","","","","","","","","","",""
"","","","","","","","","","","","canvas-button-response","16","266634","0.0-16.0","1386","bed","","","","","","","","","","","","","","perceptual","","","0","1","","","","","32","bed","1","","1",""
"","","","","","","","","","","","canvas-button-response","17","267667","0.0-17.0","1030","10","","","","","","","","","","","","","","confidence","","","0","1","","","","","","","","","","2"
"","","","","","","","","","","","html-keyboard-response","18","268670","0.0-18.0","null","null","","","","","","","","","","","","","","feedback","Tue Oct 21 2025 20:20:18 GMT-0400 (Eastern Daylight Time)","27133","0","1","","","","","","","","","",""
"","","","","","","","","","","","preload","19","268671","0.0-19.0","","","","","true","","","","","","","","","","","preload","","","0","2","false","[]","[]","[]","","","","","",""
"","","","","","","","","","","","canvas-keyboard-response","20","268975","0.0-20.0","null","null","","","","","","","","","","","","","","fixation","","","0","2","","","","","","","","","",""
"","","","","","","","","","","","canvas-keyboard-response","21","269278","0.0-21.0","null","null","","","","","","","","","","","","","","stimulus","","","0","2","","","","","","","","","",""
"","","","","","","","","","","","canvas-button-response","22","270584","0.0-22.0","1302","house","","","","","","","","","","","","","","perceptual","","","0","2","","","","","2","house","1","","1",""
"","","","","","","","","","","","canvas-button-response","23","271417","0.0-23.0","831","10","","","","","","","","","","","","","","confidence","","","0","2","","","","","","","","","","3"
"","","","","","","","","","","","html-keyboard-response","24","272421","0.0-24.0","null","null","","","","","","","","","","","","","","feedback","Tue Oct 21 2025 20:20:22 GMT-0400 (Eastern Daylight Time)","27133","0","2","","","","","","","","","",""
"","","","","","","","","","","","preload","25","272422","0.0-25.0","","","","","true","","","","","","","","","","","preload","","","0","3","false","[]","[]","[]","","","","","",""
"","","","","","","","","","","","canvas-keyboard-response","26","272725","0.0-26.0","null","null","","","","","","","","","","","","","","fixation","","","0","3","","","","","","","","","",""
"","","","","","","","","","","","canvas-keyboard-response","27","273028","0.0-27.0","null","null","","","","","","","","","","","","","","stimulus","","","0","3","","","","","","","","","",""
"","","","","","","","","","","","canvas-button-response","28","277250","0.0-28.0","4220","knife","","","","","","","","","","","","","","perceptual","","","0","3","","","","","92","knife","1","","1",""
"","","","","","","","","","","","canvas-button-response","29","279251","0.0-29.0","1997","8","","","","","","","","","","","","","","confidence","","","0","3","","","","","","","","","","4"
"","","","","","","","","","","","html-keyboard-response","30","280253","0.0-30.0","null","null","","","","","","","","","","","","","","feedback","Tue Oct 21 2025 20:20:29 GMT-0400 (Eastern Daylight Time)","27133","0","3","","","","","","","","","",""
"","","","","","","","","","","","preload","31","280255","0.0-31.0","","","","","true","","","","","","","","","","","preload","","","0","4","false","[]","[]","[]","","","","","",""
"","","","","","","","","","","","canvas-keyboard-response","32","280558","0.0-32.0","null","null","","","","","","","","","","","","","","fixation","","","0","4","","","","","","","","","",""
"","","","","","","","","","","","canvas-keyboard-response","33","280861","0.0-33.0","null","null","","","","","","","","","","","","","","stimulus","","","0","4","","","","","","","","","",""
"","","","","","","","","","","","canvas-button-response","34","281784","0.0-34.0","920","car","","","","","","","","","","","","","","perceptual","","","0","4","","","","","12","car","1","","1",""
"","","","","","","","","","","","canvas-button-response","35","282567","0.0-35.0","780","10","","","","","","","","","","","","","","confidence","","","0","4","","","","","","","","","","5"
"","","","","","","","","","","","html-keyboard-response","36","283570","0.0-36.0","null","null","","","","","","","","","","","","","","feedback","Tue Oct 21 2025 20:20:33 GMT-0400 (Eastern Daylight Time)","27133","0","4","","","","","","","","","",""
"","","","","","","","","","","","preload","37","283571","0.0-37.0","","","","","true","","","","","","","","","","","preload","","","0","5","false","[]","[]","[]","","","","","",""
"","","","","","","","","","","","canvas-keyboard-response","38","283874","0.0-38.0","null","null","","","","","","","","","","","","","","fixation","","","0","5","","","","","","","","","",""
"","","","","","","","","","","","canvas-keyboard-response","39","284177","0.0-39.0","null","null","","","","","","","","","","","","","","stimulus","","","0","5","","","","","","","","","",""
"","","","","","","","","","","","canvas-button-response","40","286950","0.0-40.0","2770","elephant","","","","","","","","","","","","","","perceptual","","","0","5","","","","","82","elephant","1","","1",""
"","","","","","","","","","","","canvas-button-response","41","288400","0.0-41.0","1448","5","","","","","","","","","","","","","","confidence","","","0","5","","","","","","","","","","6"
"","","","","","","","","","","","html-keyboard-response","42","289403","0.0-42.0","null","null","","","","","","","","","","","","","","feedback","Tue Oct 21 2025 20:20:39 GMT-0400 (Eastern Daylight Time)","27133","0","5","","","","","","","","","",""
"","","","","","","","","","","","preload","43","289405","0.0-43.0","","","","","true","","","","","","","","","","","preload","","","0","6","false","[]","[]","[]","","","","","",""
"","","","","","","","","","","","canvas-keyboard-response","44","289708","0.0-44.0","null","null","","","","","","","","","","","","","","fixation","","","0","6","","","","","","","","","",""
"","","","","","","","","","","","canvas-keyboard-response","45","290011","0.0-45.0","null","null","","","","","","","","","","","","","","stimulus","","","0","6","","","","","","","","","",""
"","","","","","","","","","","","canvas-button-response","46","290850","0.0-46.0","836","cat","","","","","","","","","","","","","","perceptual","","","0","6","","","","","72","cat","1","","1",""
"","","","","","","","","","","","canvas-button-response","47","291550","0.0-47.0","697","10","","","","","","","","","","","","","","confidence","","","0","6","","","","","","","","","","7"
"","","","","","","","","","","","html-keyboard-response","48","292554","0.0-48.0","null","null","","","","","","","","","","","","","","feedback","Tue Oct 21 2025 20:20:42 GMT-0400 (Eastern Daylight Time)","27133","0","6","","","","","","","","","",""
"","","","","","","","","","","","preload","49","292555","0.0-49.0","","","","","true","","","","","","","","","","","preload","","","0","7","false","[]","[]","[]","","","","","",""
"","","","","","","","","","","","canvas-keyboard-response","50","292858","0.0-50.0","null","null","","","","","","","","","","","","","","fixation","","","0","7","","","","","","","","","",""
"","","","","","","","","","","","canvas-keyboard-response","51","293161","0.0-51.0","null","null","","","","","","","","","","","","","","stimulus","","","0","7","","","","","","","","","",""
"","","","","","","","","","","","canvas-button-response","52","294250","0.0-52.0","1086","bridge","","","","","","","","","","","","","","perceptual","","","0","7","","","","","42","bridge","1","","1",""
"","","","","","","","","","","","canvas-button-response","53","294966","0.0-53.0","714","10","","","","","","","","","","","","","","confidence","","","0","7","","","","","","","","","","8"
"","","","","","","","","","","","html-keyboard-response","54","295969","0.0-54.0","null","null","","","","","","","","","","","","","","feedback","Tue Oct 21 2025 20:20:45 GMT-0400 (Eastern Daylight Time)","27133","0","7","","","","","","","","","",""
"","","","","","","","","","","","preload","55","295970","0.0-55.0","","","","","true","","","","","","","","","","","preload","","","0","8","false","[]","[]","[]","","","","","",""
"","","","","","","","","","","","canvas-keyboard-response","56","296273","0.0-56.0","null","null","","","","","","","","","","","","","","fixation","","","0","8","","","","","","","","","",""
"","","","","","","","","","","","canvas-keyboard-response","57","296576","0.0-57.0","null","null","","","","","","","","","","","","","","stimulus","","","0","8","","","","","","","","","",""
"","","","","","","","","","","","canvas-button-response","58","299216","0.0-58.0","2638","train","","","","","","","","","","","","","","perceptual","","","0","8","","","","","62","train","1","","1",""
"","","","","","","","","","","","canvas-button-response","59","299916","0.0-59.0","698","10","","","","","","","","","","","","","","confidence","","","0","8","","","","","","","","","","9"
"","","","","","","","","","","","html-keyboard-response","60","300922","0.0-60.0","null","null","","","","","","","","","","","","","","feedback","Tue Oct 21 2025 20:20:50 GMT-0400 (Eastern Daylight Time)","27133","0","8","","","","","","","","","",""
"","","","","","","","","","","","preload","61","300925","0.0-61.0","","","","","true","","","","","","","","","","","preload","","","0","9","false","[]","[]","[]","","","","","",""
"","","","","","","","","","","","canvas-keyboard-response","62","301229","0.0-62.0","null","null","","","","","","","","","","","","","","fixation","","","0","9","","","","","","","","","",""
"","","","","","","","","","","","canvas-keyboard-response","63","301532","0.0-63.0","null","null","","","","","","","","","","","","","","stimulus","","","0","9","","","","","","","","","",""
"","","","","","","","","","","","canvas-button-response","64","302633","0.0-64.0","1098","house","","","","","","","","","","","","","","perceptual","","","0","9","","","","","52","flower","1","","0",""
"","","","","","","","","","","","canvas-button-response","65","303334","0.0-65.0","698","10","","","","","","","","","","","","","","confidence","","","0","9","","","","","","","","","","9"
"","","","","","","","","","","","html-keyboard-response","66","304337","0.0-66.0","null","null","","","","","","","","","","","","","","feedback","Tue Oct 21 2025 20:20:53 GMT-0400 (Eastern Daylight Time)","27133","0","9","","","","","","","","","",""
"","","","","","","","","","","","html-button-response","67","313584","0.0-67.0","9243","0","","","","","","","","","","","","","","start_practice","Tue Oct 21 2025 20:20:54 GMT-0400 (Eastern Daylight Time)","27133","0","9","","","","","","","","","",""
"","","","","","","","","","","","preload","68","313585","0.0-68.0","","","","","true","","","","","","","","","","","preload","","","1","0","false","[]","[]","[]","","","","","",""
"","","","","","","","","","","","canvas-keyboard-response","69","313888","0.0-69.0","null","null","","","","","","","","","","","","","","fixation","","","1","0","","","","","","","","","",""
"","","","","","","","","","","","canvas-keyboard-response","70","314192","0.0-70.0","null","null","","","","","","","","","","","","","","stimulus","","","1","0","","","","","","","","","",""
"","","","","","","","","","","","canvas-button-response","71","316432","0.0-71.0","2237","knife","","","","","","","","","","","","","","perceptual","","","1","0","","","","","97","knife","10","","1",""
"","","","","","","","","","","","canvas-button-response","72","317333","0.0-72.0","899","3","","","","","","","","","","","","","","confidence","","","1","0","","","","","","","","","","1"
"","","","","","","","","","","","html-keyboard-response","73","318336","0.0-73.0","null","null","","","","","","","","","","","","","","feedback","Tue Oct 21 2025 20:21:07 GMT-0400 (Eastern Daylight Time)","27133","1","0","","","","","","","","","",""
"","","","","","","","","","","","preload","74","318337","0.0-74.0","","","","","true","","","","","","","","","","","preload","","","1","1","false","[]","[]","[]","","","","","",""
"","","","","","","","","","","","canvas-keyboard-response","75","318641","0.0-75.0","null","null","","","","","","","","","","","","","","fixation","","","1","1","","","","","","","","","",""
"","","","","","","","","","","","canvas-keyboard-response","76","318943","0.0-76.0","null","null","","","","","","","","","","","","","","stimulus","","","1","1","","","","","","","","","",""
"","","","","","","","","","","","canvas-button-response","77","319966","0.0-77.0","1020","cat","","","","","","","","","","","","","","perceptual","","","1","1","","","","","74","cat","6","","1",""
"","","","","","","","","","","","canvas-button-response","78","320983","0.0-78.0","1015","5","","","","","","","","","","","","","","confidence","","","1","1","","","","","","","","","","2"
"","","","","","","","","","","","html-keyboard-response","79","321987","0.0-79.0","null","null","","","","","","","","","","","","","","feedback","Tue Oct 21 2025 20:21:11 GMT-0400 (Eastern Daylight Time)","27133","1","1","","","","","","","","","",""
"","","","","","","","","","","","preload","80","321988","0.0-80.0","","","","","true","","","","","","","","","","","preload","","","1","2","false","[]","[]","[]","","","","","",""
"","","","","","","","","","","","canvas-keyboard-response","81","322291","0.0-81.0","null","null","","","","","","","","","","","","","","fixation","","","1","2","","","","","","","","","",""
"","","","","","","","","","","","canvas-keyboard-response","82","322594","0.0-82.0","null","null","","","","","","","","","","","","","","stimulus","","","1","2","","","","","","","","","",""
"","","","","","","","","","","","canvas-button-response","83","323798","0.0-83.0","1203","flower","","","","","","","","","","","","","","perceptual","","","1","2","","","","","57","flower","10","","1",""
"","","","","","","","","","","","canvas-button-response","84","325316","0.0-84.0","1516","7","","","","","","","","","","","","","","confidence","","","1","2","","","","","","","","","","3"
"","","","","","","","","","","","html-keyboard-response","85","326319","0.0-85.0","null","null","","","","","","","","","","","","","","feedback","Tue Oct 21 2025 20:21:15 GMT-0400 (Eastern Daylight Time)","27133","1","2","","","","","","","","","",""
"","","","","","","","","","","","preload","86","326320","0.0-86.0","","","","","true","","","","","","","","","","","preload","","","1","3","false","[]","[]","[]","","","","","",""
"","","","","","","","","","","","canvas-keyboard-response","87","326623","0.0-87.0","null","null","","","","","","","","","","","","","","fixation","","","1","3","","","","","","","","","",""
"","","","","","","","","","","","canvas-keyboard-response","88","326925","0.0-88.0","null","null","","","","","","","","","","","","","","stimulus","","","1","3","","","","","","","","","",""
"","","","","","","","","","","","canvas-button-response","89","328866","0.0-89.0","1938","train","","","","","","","","","","","","","","perceptual","","","1","3","","","","","67","train","10","","1",""
"","","","","","","","","","","","canvas-button-response","90","329666","0.0-90.0","798","8","","","","","","","","","","","","","","confidence","","","1","3","","","","","","","","","","4"
"","","","","","","","","","","","html-keyboard-response","91","330670","0.0-91.0","null","null","","","","","","","","","","","","","","feedback","Tue Oct 21 2025 20:21:20 GMT-0400 (Eastern Daylight Time)","27133","1","3","","","","","","","","","",""
"","","","","","","","","","","","preload","92","330671","0.0-92.0","","","","","true","","","","","","","","","","","preload","","","1","4","false","[]","[]","[]","","","","","",""
"","","","","","","","","","","","canvas-keyboard-response","93","330974","0.0-93.0","null","null","","","","","","","","","","","","","","fixation","","","1","4","","","","","","","","","",""
"","","","","","","","","","","","canvas-keyboard-response","94","331276","0.0-94.0","null","null","","","","","","","","","","","","","","stimulus","","","1","4","","","","","","","","","",""
"","","","","","","","","","","","canvas-button-response","95","332766","0.0-95.0","1487","bed","","","","","","","","","","","","","","perceptual","","","1","4","","","","","34","bed","6","","1",""
"","","","","","","","","","","","canvas-button-response","96","333833","0.0-96.0","1065","7","","","","","","","","","","","","","","confidence","","","1","4","","","","","","","","","","5"
"","","","","","","","","","","","html-keyboard-response","97","334836","0.0-97.0","null","null","","","","","","","","","","","","","","feedback","Tue Oct 21 2025 20:21:24 GMT-0400 (Eastern Daylight Time)","27133","1","4","","","","","","","","","",""
"","","","","","","","","","","","preload","98","334837","0.0-98.0","","","","","true","","","","","","","","","","","preload","","","1","5","false","[]","[]","[]","","","","","",""
"","","","","","","","","","","","canvas-keyboard-response","99","335139","0.0-99.0","null","null","","","","","","","","","","","","","","fixation","","","1","5","","","","","","","","","",""
"","","","","","","","","","","","canvas-keyboard-response","100","335442","0.0-100.0","null","null","","","","","","","","","","","","","","stimulus","","","1","5","","","","","","","","","",""
"","","","","","","","","","","","canvas-button-response","101","337266","0.0-101.0","1822","cat","","","","","","","","","","","","","","perceptual","","","1","5","","","","","77","cat","10","","1",""
"","","","","","","","","","","","canvas-button-response","102","338116","0.0-102.0","847","2","","","","","","","","","","","","","","confidence","","","1","5","","","","","","","","","","6"
"","","","","","","","","","","","html-keyboard-response","103","339120","0.0-103.0","null","null","","","","","","","","","","","","","","feedback","Tue Oct 21 2025 20:21:28 GMT-0400 (Eastern Daylight Time)","27133","1","5","","","","","","","","","",""
"","","","","","","","","","","","preload","104","339121","0.0-104.0","","","","","true","","","","","","","","","","","preload","","","1","6","false","[]","[]","[]","","","","","",""
"","","","","","","","","","","","canvas-keyboard-response","105","339424","0.0-105.0","null","null","","","","","","","","","","","","","","fixation","","","1","6","","","","","","","","","",""
"","","","","","","","","","","","canvas-keyboard-response","106","339727","0.0-106.0","null","null","","","","","","","","","","","","","","stimulus","","","1","6","","","","","","","","","",""
"","","","","","","","","","","","canvas-button-response","107","341050","0.0-107.0","1319","car","","","","","","","","","","","","","","perceptual","","","1","6","","","","","17","car","10","","1",""
"","","","","","","","","","","","canvas-button-response","108","341666","0.0-108.0","614","3","","","","","","","","","","","","","","confidence","","","1","6","","","","","","","","","","7"
"","","","","","","","","","","","html-keyboard-response","109","342669","0.0-109.0","null","null","","","","","","","","","","","","","","feedback","Tue Oct 21 2025 20:21:32 GMT-0400 (Eastern Daylight Time)","27133","1","6","","","","","","","","","",""
"","","","","","","","","","","","preload","110","342670","0.0-110.0","","","","","true","","","","","","","","","","","preload","","","1","7","false","[]","[]","[]","","","","","",""
"","","","","","","","","","","","canvas-keyboard-response","111","342973","0.0-111.0","null","null","","","","","","","","","","","","","","fixation","","","1","7","","","","","","","","","",""
"","","","","","","","","","","","canvas-keyboard-response","112","343276","0.0-112.0","null","null","","","","","","","","","","","","","","stimulus","","","1","7","","","","","","","","","",""
"","","","","","","","","","","","canvas-button-response","113","345199","0.0-113.0","1921","train","","","","","","","","","","","","","","perceptual","","","1","7","","","","","24","phone","6","","0",""
"","","","","","","","","","","","canvas-button-response","114","346150","0.0-114.0","948","6","","","","","","","","","","","","","","confidence","","","1","7","","","","","","","","","","7"
"","","","","","","","","","","","html-keyboard-response","115","347153","0.0-115.0","null","null","","","","","","","","","","","","","","feedback","Tue Oct 21 2025 20:21:36 GMT-0400 (Eastern Daylight Time)","27133","1","7","","","","","","","","","",""
"","","","","","","","","","","","preload","116","347155","0.0-116.0","","","","","true","","","","","","","","","","","preload","","","1","8","false","[]","[]","[]","","","","","",""
"","","","","","","","","","","","canvas-keyboard-response","117","347458","0.0-117.0","null","null","","","","","","","","","","","","","","fixation","","","1","8","","","","","","","","","",""
"","","","","","","","","","","","canvas-keyboard-response","118","347761","0.0-118.0","null","null","","","","","","","","","","","","","","stimulus","","","1","8","","","","","","","","","",""
"","","","","","","","","","","","canvas-button-response","119","352133","0.0-119.0","4369","bridge","","","","","","","","","","","","","","perceptual","","","1","8","","","","","87","elephant","10","","0",""
"","","","","","","","","","","","canvas-button-response","120","353264","0.0-120.0","1130","1","","","","","","","","","","","","","","confidence","","","1","8","","","","","","","","","","7"
"","","","","","","","","","","","html-keyboard-response","121","354268","0.0-121.0","null","null","","","","","","","","","","","","","","feedback","Tue Oct 21 2025 20:21:43 GMT-0400 (Eastern Daylight Time)","27133","1","8","","","","","","","","","",""
"","","","","","","","","","","","preload","122","354269","0.0-122.0","","","","","true","","","","","","","","","","","preload","","","1","9","false","[]","[]","[]","","","","","",""
"","","","","","","","","","","","canvas-keyboard-response","123","354572","0.0-123.0","null","null","","","","","","","","","","","","","","fixation","","","1","9","","","","","","","","","",""
"","","","","","","","","","","","canvas-keyboard-response","124","354875","0.0-124.0","null","null","","","","","","","","","","","","","","stimulus","","","1","9","","","","","","","","","",""
"","","","","","","","","","","","canvas-button-response","125","356916","0.0-125.0","2039","car","","","","","","","","","","","","","","perceptual","","","1","9","","","","","37","bed","10","","0",""
"","","","","","","","","","","","canvas-button-response","126","358265","0.0-126.0","1347","1","","","","","","","","","","","","","","confidence","","","1","9","","","","","","","","","","7"
"","","","","","","","","","","","html-keyboard-response","127","359268","0.0-127.0","null","null","","","","","","","","","","","","","","feedback","Tue Oct 21 2025 20:21:48 GMT-0400 (Eastern Daylight Time)","27133","1","9","","","","","","","","","",""
"","","","","","","","","","","","preload","128","359269","0.0-128.0","","","","","true","","","","","","","","","","","preload","","","1","10","false","[]","[]","[]","","","","","",""
"","","","","","","","","","","","canvas-keyboard-response","129","359572","0.0-129.0","null","null","","","","","","","","","","","","","","fixation","","","1","10","","","","","","","","","",""
"","","","","","","","","","","","canvas-keyboard-response","130","359876","0.0-130.0","null","null","","","","","","","","","","","","","","stimulus","","","1","10","","","","","","","","","",""
"","","","","","","","","","","","canvas-button-response","131","361498","0.0-131.0","1620","train","","","","","","","","","","","","","","perceptual","","","1","10","","","","","47","bridge","10","","0",""
"","","","","","","","","","","","canvas-button-response","132","362349","0.0-132.0","849","3","","","","","","","","","","","","","","confidence","","","1","10","","","","","","","","","","7"
"","","","","","","","","","","","html-keyboard-response","133","363352","0.0-133.0","null","null","","","","","","","","","","","","","","feedback","Tue Oct 21 2025 20:21:52 GMT-0400 (Eastern Daylight Time)","27133","1","10","","","","","","","","","",""
"","","","","","","","","","","","preload","134","363353","0.0-134.0","","","","","true","","","","","","","","","","","preload","","","1","11","false","[]","[]","[]","","","","","",""
"","","","","","","","","","","","canvas-keyboard-response","135","363656","0.0-135.0","null","null","","","","","","","","","","","","","","fixation","","","1","11","","","","","","","","","",""
"","","","","","","","","","","","canvas-keyboard-response","136","363959","0.0-136.0","null","null","","","","","","","","","","","","","","stimulus","","","1","11","","","","","","","","","",""
"","","","","","","","","","","","canvas-button-response","137","366115","0.0-137.0","2153","phone","","","","","","","","","","","","","","perceptual","","","1","11","","","","","94","knife","6","","0",""
"","","","","","","","","","","","canvas-button-response","138","366766","0.0-138.0","648","5","","","","","","","","","","","","","","confidence","","","1","11","","","","","","","","","","7"
"","","","","","","","","","","","html-keyboard-response","139","367769","0.0-139.0","null","null","","","","","","","","","","","","","","feedback","Tue Oct 21 2025 20:21:57 GMT-0400 (Eastern Daylight Time)","27133","1","11","","","","","","","","","",""
"","","","","","","","","","","","preload","140","367769","0.0-140.0","","","","","true","","","","","","","","","","","preload","","","1","12","false","[]","[]","[]","","","","","",""
"","","","","","","","","","","","canvas-keyboard-response","141","368072","0.0-141.0","null","null","","","","","","","","","","","","","","fixation","","","1","12","","","","","","","","","",""
"","","","","","","","","","","","canvas-keyboard-response","142","368376","0.0-142.0","null","null","","","","","","","","","","","","","","stimulus","","","1","12","","","","","","","","","",""
"","","","","","","","","","","","canvas-button-response","143","370182","0.0-143.0","1804","train","","","","","","","","","","","","","","perceptual","","","1","12","","","","","27","phone","10","","0",""
"","","","","","","","","","","","canvas-button-response","144","371132","0.0-144.0","947","3","","","","","","","","","","","","","","confidence","","","1","12","","","","","","","","","","7"
"","","","","","","","","","","","html-keyboard-response","145","372135","0.0-145.0","null","null","","","","","","","","","","","","","","feedback","Tue Oct 21 2025 20:22:01 GMT-0400 (Eastern Daylight Time)","27133","1","12","","","","","","","","","",""
"","","","","","","","","","","","preload","146","372136","0.0-146.0","","","","","true","","","","","","","","","","","preload","","","1","13","false","[]","[]","[]","","","","","",""
"","","","","","","","","","","","canvas-keyboard-response","147","372439","0.0-147.0","null","null","","","","","","","","","","","","","","fixation","","","1","13","","","","","","","","","",""
"","","","","","","","","","","","canvas-keyboard-response","148","372743","0.0-148.0","null","null","","","","","","","","","","","","","","stimulus","","","1","13","","","","","","","","","",""
"","","","","","","","","","","","canvas-button-response","149","373715","0.0-149.0","970","elephant","","","","","","","","","","","","","","perceptual","","","1","13","","","","","84","elephant","6","","1",""
"","","","","","","","","","","","canvas-button-response","150","374399","0.0-150.0","681","5","","","","","","","","","","","","","","confidence","","","1","13","","","","","","","","","","8"
"","","","","","","","","","","","html-keyboard-response","151","375402","0.0-151.0","null","null","","","","","","","","","","","","","","feedback","Tue Oct 21 2025 20:22:05 GMT-0400 (Eastern Daylight Time)","27133","1","13","","","","","","","","","",""
"","","","","","","","","","","","preload","152","375403","0.0-152.0","","","","","true","","","","","","","","","","","preload","","","1","14","false","[]","[]","[]","","","","","",""
"","","","","","","","","","","","canvas-keyboard-response","153","375706","0.0-153.0","null","null","","","","","","","","","","","","","","fixation","","","1","14","","","","","","","","","",""
"","","","","","","","","","","","canvas-keyboard-response","154","376010","0.0-154.0","null","null","","","","","","","","","","","","","","stimulus","","","1","14","","","","","","","","","",""
"","","","","","","","","","","","canvas-button-response","155","378681","0.0-155.0","2669","bed","","","","","","","","","","","","","","perceptual","","","1","14","","","","","14","car","6","","0",""
"","","","","","","","","","","","canvas-button-response","156","379381","0.0-156.0","697","6","","","","","","","","","","","","","","confidence","","","1","14","","","","","","","","","","8"
"","","","","","","","","","","","html-keyboard-response","157","380385","0.0-157.0","null","null","","","","","","","","","","","","","","feedback","Tue Oct 21 2025 20:22:09 GMT-0400 (Eastern Daylight Time)","27133","1","14","","","","","","","","","",""
"","","","","","","","","","","","preload","158","380386","0.0-158.0","","","","","true","","","","","","","","","","","preload","","","1","15","false","[]","[]","[]","","","","","",""
"","","","","","","","","","","","canvas-keyboard-response","159","380689","0.0-159.0","null","null","","","","","","","","","","","","","","fixation","","","1","15","","","","","","","","","",""
"","","","","","","","","","","","canvas-keyboard-response","160","380993","0.0-160.0","null","null","","","","","","","","","","","","","","stimulus","","","1","15","","","","","","","","","",""
"","","","","","","","","","","","canvas-button-response","161","382349","0.0-161.0","1353","bridge","","","","","","","","","","","","","","perceptual","","","1","15","","","","","44","bridge","6","","1",""
"","","","","","","","","","","","canvas-button-response","162","383016","0.0-162.0","665","3","","","","","","","","","","","","","","confidence","","","1","15","","","","","","","","","","9"
"","","","","","","","","","","","html-keyboard-response","163","384019","0.0-163.0","null","null","","","","","","","","","","","","","","feedback","Tue Oct 21 2025 20:22:13 GMT-0400 (Eastern Daylight Time)","27133","1","15","","","","","","","","","",""
"","","","","","","","","","","","preload","164","384020","0.0-164.0","","","","","true","","","","","","","","","","","preload","","","1","16","false","[]","[]","[]","","","","","",""
"","","","","","","","","","","","canvas-keyboard-response","165","384323","0.0-165.0","null","null","","","","","","","","","","","","","","fixation","","","1","16","","","","","","","","","",""
"","","","","","","","","","","","canvas-keyboard-response","166","384626","0.0-166.0","null","null","","","","","","","","","","","","","","stimulus","","","1","16","","","","","","","","","",""
"","","","","","","","","","","","canvas-button-response","167","386981","0.0-167.0","2352","house","","","","","","","","","","","","","","perceptual","","","1","16","","","","","4","house","6","","1",""
"","","","","","","","","","","","canvas-button-response","168","387815","0.0-168.0","832","8","","","","","","","","","","","","","","confidence","","","1","16","","","","","","","","","","10"
"","","","","","","","","","","","html-keyboard-response","169","388818","0.0-169.0","null","null","","","","","","","","","","","","","","feedback","Tue Oct 21 2025 20:22:18 GMT-0400 (Eastern Daylight Time)","27133","1","16","","","","","","","","","",""
"","","","","","","","","","","","preload","170","388820","0.0-170.0","","","","","true","","","","","","","","","","","preload","","","1","17","false","[]","[]","[]","","","","","",""
"","","","","","","","","","","","canvas-keyboard-response","171","389123","0.0-171.0","null","null","","","","","","","","","","","","","","fixation","","","1","17","","","","","","","","","",""
"","","","","","","","","","","","canvas-keyboard-response","172","389426","0.0-172.0","null","null","","","","","","","","","","","","","","stimulus","","","1","17","","","","","","","","","",""
"","","","","","","","","","","","canvas-button-response","173","390498","0.0-173.0","1070","flower","","","","","","","","","","","","","","perceptual","","","1","17","","","","","54","flower","6","","1",""
"","","","","","","","","","","","canvas-button-response","174","391149","0.0-174.0","648","7","","","","","","","","","","","","","","confidence","","","1","17","","","","","","","","","","11"
"","","","","","","","","","","","html-keyboard-response","175","392152","0.0-175.0","null","null","","","","","","","","","","","","","","feedback","Tue Oct 21 2025 20:22:21 GMT-0400 (Eastern Daylight Time)","27133","1","17","","","","","","","","","",""
"","","","","","","","","","","","preload","176","392153","0.0-176.0","","","","","true","","","","","","","","","","","preload","","","1","18","false","[]","[]","[]","","","","","",""
"","","","","","","","","","","","canvas-keyboard-response","177","392456","0.0-177.0","null","null","","","","","","","","","","","","","","fixation","","","1","18","","","","","","","","","",""
"","","","","","","","","","","","canvas-keyboard-response","178","392759","0.0-178.0","null","null","","","","","","","","","","","","","","stimulus","","","1","18","","","","","","","","","",""
"","","","","","","","","","","","canvas-button-response","179","394415","0.0-179.0","1653","train","","","","","","","","","","","","","","perceptual","","","1","18","","","","","64","train","6","","1",""
"","","","","","","","","","","","canvas-button-response","180","395132","0.0-180.0","715","6","","","","","","","","","","","","","","confidence","","","1","18","","","","","","","","","","12"
"","","","","","","","","","","","html-keyboard-response","181","396134","0.0-181.0","null","null","","","","","","","","","","","","","","feedback","Tue Oct 21 2025 20:22:25 GMT-0400 (Eastern Daylight Time)","27133","1","18","","","","","","","","","",""
"","","","","","","","","","","","preload","182","396136","0.0-182.0","","","","","true","","","","","","","","","","","preload","","","1","19","false","[]","[]","[]","","","","","",""
"","","","","","","","","","","","canvas-keyboard-response","183","396438","0.0-183.0","null","null","","","","","","","","","","","","","","fixation","","","1","19","","","","","","","","","",""
"","","","","","","","","","","","canvas-keyboard-response","184","396741","0.0-184.0","null","null","","","","","","","","","","","","","","stimulus","","","1","19","","","","","","","","","",""
"","","","","","","","","","","","canvas-button-response","185","397747","0.0-185.0","1004","house","","","","","","","","","","","","","","perceptual","","","1","19","","","","","7","house","10","","1",""
"","","","","","","","","","","","canvas-button-response","186","398480","0.0-186.0","732","7","","","","","","","","","","","","","","confidence","","","1","19","","","","","","","","","","13"
"","","","","","","","","","","","html-keyboard-response","187","399483","0.0-187.0","null","null","","","","","","","","","","","","","","feedback","Tue Oct 21 2025 20:22:29 GMT-0400 (Eastern Daylight Time)","27133","1","19","","","","","","","","","",""
"","","","","","","","","","","","html-button-response","188","420781","0.0-188.0","21296","0","","","","","","","","","","","","","","start experiment","Tue Oct 21 2025 20:22:30 GMT-0400 (Eastern Daylight Time)","27133","1","19","","","","","","","","","",""
"","","","","","","","","","","","preload","189","420783","0.0-189.0","","","","","true","","","","","","","","","","","preload","","","2","0","false","[]","[]","[]","","","","","",""
"","","","","","","","","","","","canvas-keyboard-response","190","421085","0.0-190.0","null","null","","","","","","","","","","","","","","fixation","","","2","0","","","","","","","","","",""
"","","","","","","","","","","","canvas-keyboard-response","191","421387","0.0-191.0","null","null","","","","","","","","","","","","","","stimulus","","","2","0","","","","","","","","","",""
"","","","","","","","","","","","canvas-button-response","192","422599","0.0-192.0","1209","elephant","","","","","","","","","","","","","","perceptual","","","2","0","","","","","352","elephant","10","0","1",""
"","","","","","","","","","","","canvas-button-response","193","423714","0.0-193.0","1113","5","","","","","","","","","","","","","","confidence","","","2","0","","","","","","","","","","1"
"","","","","","","","","","","","preload","194","423715","0.0-194.0","","","","","true","","","","","","","","","","","preload","","","2","1","false","[]","[]","[]","","","","","",""
"","","","","","","","","","","","canvas-keyboard-response","195","424018","0.0-195.0","null","null","","","","","","","","","","","","","","fixation","","","2","1","","","","","","","","","",""
"","","","","","","","","","","","canvas-keyboard-response","196","424321","0.0-196.0","null","null","","","","","","","","","","","","","","stimulus","","","2","1","","","","","","","","","",""
"","","","","","","","","","","","canvas-button-response","197","427165","0.0-197.0","2841","house","","","","","","","","","","","","","","perceptual","","","2","1","","","","","13","house","6","0","1",""
"","","","","","","","","","","","canvas-button-response","198","428498","0.0-198.0","1331","6","","","","","","","","","","","","","","confidence","","","2","1","","","","","","","","","","2"
"","","","","","","","","","","","preload","199","428499","0.0-199.0","","","","","true","","","","","","","","","","","preload","","","2","2","false","[]","[]","[]","","","","","",""
"","","","","","","","","","","","canvas-keyboard-response","200","428802","0.0-200.0","null","null","","","","","","","","","","","","","","fixation","","","2","2","","","","","","","","","",""
"","","","","","","","","","","","canvas-keyboard-response","201","429104","0.0-201.0","null","null","","","","","","","","","","","","","","stimulus","","","2","2","","","","","","","","","",""
"","","","","","","","","","","","canvas-button-response","202","431098","0.0-202.0","1991","car","","","","","","","","","","","","","","perceptual","","","2","2","","","","","196","bridge","10","0","0",""
"","","","","","","","","","","","canvas-button-response","203","432131","0.0-203.0","1030","1","","","","","","","","","","","","","","confidence","","","2","2","","","","","","","","","","2"
"","","","","","","","","","","","preload","204","432133","0.0-204.0","","","","","true","","","","","","","","","","","preload","","","2","3","false","[]","[]","[]","","","","","",""
"","","","","","","","","","","","canvas-keyboard-response","205","432436","0.0-205.0","null","null","","","","","","","","","","","","","","fixation","","","2","3","","","","","","","","","",""
"","","","","","","","","","","","canvas-keyboard-response","206","432739","0.0-206.0","null","null","","","","","","","","","","","","","","stimulus","","","2","3","","","","","","","","","",""
"","","","","","","","","","","","canvas-button-response","207","434415","0.0-207.0","1673","house","","","","","","","","","","","","","","perceptual","","","2","3","","","","","38","house","10","0","1",""
"","","","","","","","","","","","canvas-button-response","208","435465","0.0-208.0","1048","3","","","","","","","","","","","","","","confidence","","","2","3","","","","","","","","","","3"
"","","","","","","","","","","","preload","209","435466","0.0-209.0","","","","","true","","","","","","","","","","","preload","","","2","4","false","[]","[]","[]","","","","","",""
"","","","","","","","","","","","canvas-keyboard-response","210","435768","0.0-210.0","null","null","","","","","","","","","","","","","","fixation","","","2","4","","","","","","","","","",""
"","","","","","","","","","","","canvas-keyboard-response","211","436071","0.0-211.0","null","null","","","","","","","","","","","","","","stimulus","","","2","4","","","","","","","","","",""
"","","","","","","","","","","","canvas-button-response","212","437748","0.0-212.0","1674","flower","","","","","","","","","","","","","","perceptual","","","2","4","","","","","147","bed","10","0","0",""
"","","","","","","","","","","","canvas-button-response","213","439114","0.0-213.0","1364","4","","","","","","","","","","","","","","confidence","","","2","4","","","","","","","","","","3"
"","","","","","","","","","","","preload","214","439115","0.0-214.0","","","","","true","","","","","","","","","","","preload","","","2","5","false","[]","[]","[]","","","","","",""
"","","","","","","","","","","","canvas-keyboard-response","215","439417","0.0-215.0","null","null","","","","","","","","","","","","","","fixation","","","2","5","","","","","","","","","",""
"","","","","","","","","","","","canvas-keyboard-response","216","439720","0.0-216.0","null","null","","","","","","","","","","","","","","stimulus","","","2","5","","","","","","","","","",""
"","","","","","","","","","","","canvas-button-response","217","441046","0.0-217.0","1323","car","","","","","","","","","","","","","","perceptual","","","2","5","","","","","268","train","10","0","0",""
"","","","","","","","","","","","canvas-button-response","218","442013","0.0-218.0","965","1","","","","","","","","","","","","","","confidence","","","2","5","","","","","","","","","","3"
"","","","","","","","","","","","preload","219","442014","0.0-219.0","","","","","true","","","","","","","","","","","preload","","","2","6","false","[]","[]","[]","","","","","",""
"","","","","","","","","","","","canvas-keyboard-response","220","442317","0.0-220.0","null","null","","","","","","","","","","","","","","fixation","","","2","6","","","","","","","","","",""
"","","","","","","","","","","","canvas-keyboard-response","221","442620","0.0-221.0","null","null","","","","","","","","","","","","","","stimulus","","","2","6","","","","","","","","","",""
"","","","","","","","","","","","canvas-button-response","222","445164","0.0-222.0","2542","bridge","","","","","","","","","","","","","","perceptual","","","2","6","","","","","391","knife","10","0","0",""
"","","","","","","","","","","","canvas-button-response","223","446548","0.0-223.0","1381","2","","","","","","","","","","","","","","confidence","","","2","6","","","","","","","","","","3"
"","","","","","","","","","","","preload","224","446549","0.0-224.0","","","","","true","","","","","","","","","","","preload","","","2","7","false","[]","[]","[]","","","","","",""
"","","","","","","","","","","","canvas-keyboard-response","225","446851","0.0-225.0","null","null","","","","","","","","","","","","","","fixation","","","2","7","","","","","","","","","",""
"","","","","","","","","","","","canvas-keyboard-response","226","447154","0.0-226.0","null","null","","","","","","","","","","","","","","stimulus","","","2","7","","","","","","","","","",""
"","","","","","","","","","","","canvas-button-response","227","449131","0.0-227.0","1974","car","","","","","","","","","","","","","","perceptual","","","2","7","","","","","180","bridge","10","0","0",""
"","","","","","","","","","","","canvas-button-response","228","449847","0.0-228.0","715","2","","","","","","","","","","","","","","confidence","","","2","7","","","","","","","","","","3"
"","","","","","","","","","","","preload","229","449848","0.0-229.0","","","","","true","","","","","","","","","","","preload","","","2","8","false","[]","[]","[]","","","","","",""
"","","","","","","","","","","","canvas-keyboard-response","230","450151","0.0-230.0","null","null","","","","","","","","","","","","","","fixation","","","2","8","","","","","","","","","",""
"","","","","","","","","","","","canvas-keyboard-response","231","450454","0.0-231.0","null","null","","","","","","","","","","","","","","stimulus","","","2","8","","","","","","","","","",""
"","","","","","","","","","","","canvas-button-response","232","452714","0.0-232.0","2258","car","","","","","","","","","","","","","","perceptual","","","2","8","","","","","194","bridge","10","0","0",""
"","","","","","","","","","","","canvas-button-response","233","453447","0.0-233.0","731","3","","","","","","","","","","","","","","confidence","","","2","8","","","","","","","","","","3"
"","","","","","","","","","","","preload","234","453449","0.0-234.0","","","","","true","","","","","","","","","","","preload","","","2","9","false","[]","[]","[]","","","","","",""
"","","","","","","","","","","","canvas-keyboard-response","235","453751","0.0-235.0","null","null","","","","","","","","","","","","","","fixation","","","2","9","","","","","","","","","",""
"","","","","","","","","","","","canvas-keyboard-response","236","454054","0.0-236.0","null","null","","","","","","","","","","","","","","stimulus","","","2","9","","","","","","","","","",""
"","","","","","","","","","","","canvas-button-response","237","455398","0.0-237.0","1341","knife","","","","","","","","","","","","","","perceptual","","","2","9","","","","","393","knife","10","0","1",""
"","","","","","","","","","","","canvas-button-response","238","456181","0.0-238.0","780","8","","","","","","","","","","","","","","confidence","","","2","9","","","","","","","","","","4"
"","","","","","","","","","","","preload","239","456182","0.0-239.0","","","","","true","","","","","","","","","","","preload","","","2","10","false","[]","[]","[]","","","","","",""
"","","","","","","","","","","","canvas-keyboard-response","240","456485","0.0-240.0","null","null","","","","","","","","","","","","","","fixation","","","2","10","","","","","","","","","",""
"","","","","","","","","","","","canvas-keyboard-response","241","456788","0.0-241.0","null","null","","","","","","","","","","","","","","stimulus","","","2","10","","","","","","","","","",""
"","","","","","","","","","","","canvas-button-response","242","460198","0.0-242.0","3407","bed","","","","","","","","","","","","","","perceptual","","","2","10","","","","","152","bed","10","0","1",""
"","","","","","","","","","","","canvas-button-response","243","461914","0.0-243.0","1714","6","","","","","","","","","","","","","","confidence","","","2","10","","","","","","","","","","5"
"","","","","","","","","","","","preload","244","461915","0.0-244.0","","","","","true","","","","","","","","","","","preload","","","2","11","false","[]","[]","[]","","","","","",""
"","","","","","","","","","","","canvas-keyboard-response","245","462217","0.0-245.0","null","null","","","","","","","","","","","","","","fixation","","","2","11","","","","","","","","","",""
"","","","","","","","","","","","canvas-keyboard-response","246","462520","0.0-246.0","null","null","","","","","","","","","","","","","","stimulus","","","2","11","","","","","","","","","",""
"","","","","","","","","","","","canvas-button-response","247","463931","0.0-247.0","1408","train","","","","","","","","","","","","","","perceptual","","","2","11","","","","","256","train","6","0","1",""
"","","","","","","","","","","","canvas-button-response","248","464780","0.0-248.0","847","5","","","","","","","","","","","","","","confidence","","","2","11","","","","","","","","","","6"
"","","","","","","","","","","","preload","249","464782","0.0-249.0","","","","","true","","","","","","","","","","","preload","","","2","12","false","[]","[]","[]","","","","","",""
"","","","","","","","","","","","canvas-keyboard-response","250","465084","0.0-250.0","null","null","","","","","","","","","","","","","","fixation","","","2","12","","","","","","","","","",""
"","","","","","","","","","","","canvas-keyboard-response","251","465387","0.0-251.0","null","null","","","","","","","","","","","","","","stimulus","","","2","12","","","","","","","","","",""
"","","","","","","","","","","","canvas-button-response","252","468346","0.0-252.0","2957","house","","","","","","","","","","","","","","perceptual","","","2","12","","","","","29","house","10","0","1",""
"","","","","","","","","","","","canvas-button-response","253","468964","0.0-253.0","616","3","","","","","","","","","","","","","","confidence","","","2","12","","","","","","","","","","7"
"","","","","","","","","","","","preload","254","468965","0.0-254.0","","","","","true","","","","","","","","","","","preload","","","2","13","false","[]","[]","[]","","","","","",""
"","","","","","","","","","","","canvas-keyboard-response","255","469268","0.0-255.0","null","null","","","","","","","","","","","","","","fixation","","","2","13","","","","","","","","","",""
"","","","","","","","","","","","canvas-keyboard-response","256","469571","0.0-256.0","null","null","","","","","","","","","","","","","","stimulus","","","2","13","","","","","","","","","",""
"","","","","","","","","","","","canvas-button-response","257","470746","0.0-257.0","1173","phone","","","","","","","","","","","","","","perceptual","","","2","13","","","","","365","knife","6","0","0",""
"","","","","","","","","","","","canvas-button-response","258","471814","0.0-258.0","1065","7","","","","","","","","","","","","","","confidence","","","2","13","","","","","","","","","","7"
"","","","","","","","","","","","preload","259","471815","0.0-259.0","","","","","true","","","","","","","","","","","preload","","","2","14","false","[]","[]","[]","","","","","",""
"","","","","","","","","","","","canvas-keyboard-response","260","472118","0.0-260.0","null","null","","","","","","","","","","","","","","fixation","","","2","14","","","","","","","","","",""
"","","","","","","","","","","","canvas-keyboard-response","261","472421","0.0-261.0","null","null","","","","","","","","","","","","","","stimulus","","","2","14","","","","","","","","","",""
"","","","","","","","","","","","canvas-button-response","262","473931","0.0-262.0","1507","train","","","","","","","","","","","","","","perceptual","","","2","14","","","","","276","train","10","0","1",""
"","","","","","","","","","","","canvas-button-response","263","474697","0.0-263.0","763","6","","","","","","","","","","","","","","confidence","","","2","14","","","","","","","","","","8"
"","","","","","","","","","","","preload","264","474699","0.0-264.0","","","","","true","","","","","","","","","","","preload","","","2","15","false","[]","[]","[]","","","","","",""
"","","","","","","","","","","","canvas-keyboard-response","265","475001","0.0-265.0","null","null","","","","","","","","","","","","","","fixation","","","2","15","","","","","","","","","",""
"","","","","","","","","","","","canvas-keyboard-response","266","475304","0.0-266.0","null","null","","","","","","","","","","","","","","stimulus","","","2","15","","","","","","","","","",""
"","","","","","","","","","","","canvas-button-response","267","476497","0.0-267.0","1191","house","","","","","","","","","","","","","","perceptual","","","2","15","","","","","11","house","6","0","1",""
"","","","","","","","","","","","canvas-button-response","268","477347","0.0-268.0","847","10","","","","","","","","","","","","","","confidence","","","2","15","","","","","","","","","","9"
"","","","","","","","","","","","preload","269","477349","0.0-269.0","","","","","true","","","","","","","","","","","preload","","","2","16","false","[]","[]","[]","","","","","",""
"","","","","","","","","","","","canvas-keyboard-response","270","477652","0.0-270.0","null","null","","","","","","","","","","","","","","fixation","","","2","16","","","","","","","","","",""
"","","","","","","","","","","","canvas-keyboard-response","271","477955","0.0-271.0","null","null","","","","","","","","","","","","","","stimulus","","","2","16","","","","","","","","","",""
"","","","","","","","","","","","canvas-button-response","272","480114","0.0-272.0","2156","phone","","","","","","","","","","","","","","perceptual","","","2","16","","","","","123","bed","6","0","0",""
"","","","","","","","","","","","canvas-button-response","273","480947","0.0-273.0","831","3","","","","","","","","","","","","","","confidence","","","2","16","","","","","","","","","","9"
"","","","","","","","","","","","preload","274","480948","0.0-274.0","","","","","true","","","","","","","","","","","preload","","","2","17","false","[]","[]","[]","","","","","",""
"","","","","","","","","","","","canvas-keyboard-response","275","481251","0.0-275.0","null","null","","","","","","","","","","","","","","fixation","","","2","17","","","","","","","","","",""
"","","","","","","","","","","","canvas-keyboard-response","276","481554","0.0-276.0","null","null","","","","","","","","","","","","","","stimulus","","","2","17","","","","","","","","","",""
"","","","","","","","","","","","canvas-button-response","277","486730","0.0-277.0","5173","house","","","","","","","","","","","","","","perceptual","","","2","17","","","","","40","car","6","0","0",""
"","","","","","","","","","","","canvas-button-response","278","487695","0.0-278.0","963","3","","","","","","","","","","","","","","confidence","","","2","17","","","","","","","","","","9"
"","","","","","","","","","","","preload","279","487696","0.0-279.0","","","","","true","","","","","","","","","","","preload","","","2","18","false","[]","[]","[]","","","","","",""
"","","","","","","","","","","","canvas-keyboard-response","280","487998","0.0-280.0","null","null","","","","","","","","","","","","","","fixation","","","2","18","","","","","","","","","",""
"","","","","","","","","","","","canvas-keyboard-response","281","488300","0.0-281.0","null","null","","","","","","","","","","","","","","stimulus","","","2","18","","","","","","","","","",""
"","","","","","","","","","","","canvas-button-response","282","492030","0.0-282.0","3728","train","","","","","","","","","","","","","","perceptual","","","2","18","","","","","243","train","6","0","1",""
"","","","","","","","","","","","canvas-button-response","283","495146","0.0-283.0","3114","8","","","","","","","","","","","","","","confidence","","","2","18","","","","","","","","","","10"
"","","","","","","","","","","","preload","284","495147","0.0-284.0","","","","","true","","","","","","","","","","","preload","","","2","19","false","[]","[]","[]","","","","","",""
"","","","","","","","","","","","canvas-keyboard-response","285","495450","0.0-285.0","null","null","","","","","","","","","","","","","","fixation","","","2","19","","","","","","","","","",""
"","","","","","","","","","","","canvas-keyboard-response","286","495753","0.0-286.0","null","null","","","","","","","","","","","","","","stimulus","","","2","19","","","","","","","","","",""
"","","","","","","","","","","","canvas-button-response","287","498247","0.0-287.0","2491","house","","","","","","","","","","","","","","perceptual","","","2","19","","","","","0","house","6","0","1",""
"","","","","","","","","","","","canvas-button-response","288","499547","0.0-288.0","1298","6","","","","","","","","","","","","","","confidence","","","2","19","","","","","","","","","","11"
"","","","","","","","","","","","preload","289","499548","0.0-289.0","","","","","true","","","","","","","","","","","preload","","","2","20","false","[]","[]","[]","","","","","",""
"","","","","","","","","","","","canvas-keyboard-response","290","499851","0.0-290.0","null","null","","","","","","","","","","","","","","fixation","","","2","20","","","","","","","","","",""
"","","","","","","","","","","","canvas-keyboard-response","291","500155","0.0-291.0","null","null","","","","","","","","","","","","","","stimulus","","","2","20","","","","","","","","","",""
"","","","","","","","","","","","canvas-button-response","292","507113","0.0-292.0","6956","cat","","","","","","","","","","","","","","perceptual","","","2","20","","","","","151","bed","10","0","0",""
"","","","","","","","","","","","canvas-button-response","293","507863","0.0-293.0","747","3","","","","","","","","","","","","","","confidence","","","2","20","","","","","","","","","","11"
"","","","","","","","","","","","preload","294","507864","0.0-294.0","","","","","true","","","","","","","","","","","preload","","","2","21","false","[]","[]","[]","","","","","",""
"","","","","","","","","","","","canvas-keyboard-response","295","508167","0.0-295.0","null","null","","","","","","","","","","","","","","fixation","","","2","21","","","","","","","","","",""
"","","","","","","","","","","","canvas-keyboard-response","296","508469","0.0-296.0","null","null","","","","","","","","","","","","","","stimulus","","","2","21","","","","","","","","","",""
"","","","","","","","","","","","canvas-button-response","297","510530","0.0-297.0","2058","phone","","","","","","","","","","","","","","perceptual","","","2","21","","","","","129","bed","6","0","0",""
"","","","","","","","","","","","canvas-button-response","298","511246","0.0-298.0","715","3","","","","","","","","","","","","","","confidence","","","2","21","","","","","","","","","","11"
"","","","","","","","","","","","preload","299","511247","0.0-299.0","","","","","true","","","","","","","","","","","preload","","","2","22","false","[]","[]","[]","","","","","",""
"","","","","","","","","","","","canvas-keyboard-response","300","511550","0.0-300.0","null","null","","","","","","","","","","","","","","fixation","","","2","22","","","","","","","","","",""
"","","","","","","","","","","","canvas-keyboard-response","301","511854","0.0-301.0","null","null","","","","","","","","","","","","","","stimulus","","","2","22","","","","","","","","","",""
"","","","","","","","","","","","canvas-button-response","302","513012","0.0-302.0","1156","bed","","","","","","","","","","","","","","perceptual","","","2","22","","","","","41","car","6","0","0",""
"","","","","","","","","","","","canvas-button-response","303","514397","0.0-303.0","1383","7","","","","","","","","","","","","","","confidence","","","2","22","","","","","","","","","","11"
"","","","","","","","","","","","preload","304","514398","0.0-304.0","","","","","true","","","","","","","","","","","preload","","","2","23","false","[]","[]","[]","","","","","",""
"","","","","","","","","","","","canvas-keyboard-response","305","514701","0.0-305.0","null","null","","","","","","","","","","","","","","fixation","","","2","23","","","","","","","","","",""
"","","","","","","","","","","","canvas-keyboard-response","306","515003","0.0-306.0","null","null","","","","","","","","","","","","","","stimulus","","","2","23","","","","","","","","","",""
"","","","","","","","","","","","canvas-button-response","307","516163","0.0-307.0","1157","knife","","","","","","","","","","","","","","perceptual","","","2","23","","","","","367","knife","6","0","1",""
"","","","","","","","","","","","canvas-button-response","308","517163","0.0-308.0","998","8","","","","","","","","","","","","","","confidence","","","2","23","","","","","","","","","","12"
"","","","","","","","","","","","preload","309","517165","0.0-309.0","","","","","true","","","","","","","","","","","preload","","","2","24","false","[]","[]","[]","","","","","",""
"","","","","","","","","","","","canvas-keyboard-response","310","517467","0.0-310.0","null","null","","","","","","","","","","","","","","fixation","","","2","24","","","","","","","","","",""
"","","","","","","","","","","","canvas-keyboard-response","311","517770","0.0-311.0","null","null","","","","","","","","","","","","","","stimulus","","","2","24","","","","","","","","","",""
"","","","","","","","","","","","canvas-button-response","312","520063","0.0-312.0","2291","bed","","","","","","","","","","","","","","perceptual","","","2","24","","","","","133","bed","6","0","1",""
"","","","","","","","","","","","canvas-button-response","313","522213","0.0-313.0","2148","4","","","","","","","","","","","","","","confidence","","","2","24","","","","","","","","","","13"
"","","","","","","","","","","","preload","314","522214","0.0-314.0","","","","","true","","","","","","","","","","","preload","","","2","25","false","[]","[]","[]","","","","","",""
"","","","","","","","","","","","canvas-keyboard-response","315","522517","0.0-315.0","null","null","","","","","","","","","","","","","","fixation","","","2","25","","","","","","","","","",""
"","","","","","","","","","","","canvas-keyboard-response","316","522819","0.0-316.0","null","null","","","","","","","","","","","","","","stimulus","","","2","25","","","","","","","","","",""
"","","","","","","","","","","","canvas-button-response","317","526096","0.0-317.0","3275","car","","","","","","","","","","","","","","perceptual","","","2","25","","","","","19","house","6","0","0",""
"","","","","","","","","","","","canvas-button-response","318","526779","0.0-318.0","680","3","","","","","","","","","","","","","","confidence","","","2","25","","","","","","","","","","13"
"","","","","","","","","","","","preload","319","526780","0.0-319.0","","","","","true","","","","","","","","","","","preload","","","2","26","false","[]","[]","[]","","","","","",""
"","","","","","","","","","","","canvas-keyboard-response","320","527083","0.0-320.0","null","null","","","","","","","","","","","","","","fixation","","","2","26","","","","","","","","","",""
"","","","","","","","","","","","canvas-keyboard-response","321","527386","0.0-321.0","null","null","","","","","","","","","","","","","","stimulus","","","2","26","","","","","","","","","",""
"","","","","","","","","","","","canvas-button-response","322","528612","0.0-322.0","1223","flower","","","","","","","","","","","","","","perceptual","","","2","26","","","","","73","car","10","0","0",""
"","","","","","","","","","","","canvas-button-response","323","529663","0.0-323.0","1049","5","","","","","","","","","","","","","","confidence","","","2","26","","","","","","","","","","13"
"","","","","","","","","","","","preload","324","529664","0.0-324.0","","","","","true","","","","","","","","","","","preload","","","2","27","false","[]","[]","[]","","","","","",""
"","","","","","","","","","","","canvas-keyboard-response","325","529967","0.0-325.0","null","null","","","","","","","","","","","","","","fixation","","","2","27","","","","","","","","","",""
"","","","","","","","","","","","canvas-keyboard-response","326","530270","0.0-326.0","null","null","","","","","","","","","","","","","","stimulus","","","2","27","","","","","","","","","",""
"","","","","","","","","","","","canvas-button-response","327","531097","0.0-327.0","824","phone","","","","","","","","","","","","","","perceptual","","","2","27","","","","","115","phone","10","0","1",""
"","","","","","","","","","","","canvas-button-response","328","531830","0.0-328.0","730","8","","","","","","","","","","","","","","confidence","","","2","27","","","","","","","","","","14"
"","","","","","","","","","","","preload","329","531831","0.0-329.0","","","","","true","","","","","","","","","","","preload","","","2","28","false","[]","[]","[]","","","","","",""
"","","","","","","","","","","","canvas-keyboard-response","330","532133","0.0-330.0","null","null","","","","","","","","","","","","","","fixation","","","2","28","","","","","","","","","",""
"","","","","","","","","","","","canvas-keyboard-response","331","532436","0.0-331.0","null","null","","","","","","","","","","","","","","stimulus","","","2","28","","","","","","","","","",""
"","","","","","","","","","","","canvas-button-response","332","533895","0.0-332.0","1456","train","","","","","","","","","","","","","","perceptual","","","2","28","","","","","241","train","6","0","1",""
"","","","","","","","","","","","canvas-button-response","333","534613","0.0-333.0","716","8","","","","","","","","","","","","","","confidence","","","2","28","","","","","","","","","","15"
"","","","","","","","","","","","preload","334","534614","0.0-334.0","","","","","true","","","","","","","","","","","preload","","","2","29","false","[]","[]","[]","","","","","",""
"","","","","","","","","","","","canvas-keyboard-response","335","534917","0.0-335.0","null","null","","","","","","","","","","","","","","fixation","","","2","29","","","","","","","","","",""
"","","","","","","","","","","","canvas-keyboard-response","336","535220","0.0-336.0","null","null","","","","","","","","","","","","","","stimulus","","","2","29","","","","","","","","","",""
"","","","","","","","","","","","canvas-button-response","337","536529","0.0-337.0","1306","phone","","","","","","","","","","","","","","perceptual","","","2","29","","","","","118","phone","10","0","1",""
"","","","","","","","","","","","canvas-button-response","338","537863","0.0-338.0","1332","5","","","","","","","","","","","","","","confidence","","","2","29","","","","","","","","","","16"
"","","","","","","","","","","","preload","339","537864","0.0-339.0","","","","","true","","","","","","","","","","","preload","","","2","30","false","[]","[]","[]","","","","","",""
"","","","","","","","","","","","canvas-keyboard-response","340","538167","0.0-340.0","null","null","","","","","","","","","","","","","","fixation","","","2","30","","","","","","","","","",""
"","","","","","","","","","","","canvas-keyboard-response","341","538470","0.0-341.0","null","null","","","","","","","","","","","","","","stimulus","","","2","30","","","","","","","","","",""
"","","","","","","","","","","","canvas-button-response","342","539179","0.0-342.0","706","car","","","","","","","","","","","","","","perceptual","","","2","30","","","","","49","car","6","0","1",""
"","","","","","","","","","","","canvas-button-response","343","540279","0.0-343.0","1098","10","","","","","","","","","","","","","","confidence","","","2","30","","","","","","","","","","17"
"","","","","","","","","","","","preload","344","540279","0.0-344.0","","","","","true","","","","","","","","","","","preload","","","2","31","false","[]","[]","[]","","","","","",""
"","","","","","","","","","","","canvas-keyboard-response","345","540581","0.0-345.0","null","null","","","","","","","","","","","","","","fixation","","","2","31","","","","","","","","","",""
"","","","","","","","","","","","canvas-keyboard-response","346","540884","0.0-346.0","null","null","","","","","","","","","","","","","","stimulus","","","2","31","","","","","","","","","",""
"","","","","","","","","","","","canvas-button-response","347","542012","0.0-347.0","1126","flower","","","","","","","","","","","","","","perceptual","","","2","31","","","","","280","cat","6","0","0",""
"","","","","","","","","","","","canvas-button-response","348","543013","0.0-348.0","998","6","","","","","","","","","","","","","","confidence","","","2","31","","","","","","","","","","17"
"","","","","","","","","","","","preload","349","543014","0.0-349.0","","","","","true","","","","","","","","","","","preload","","","2","32","false","[]","[]","[]","","","","","",""
"","","","","","","","","","","","canvas-keyboard-response","350","543316","0.0-350.0","null","null","","","","","","","","","","","","","","fixation","","","2","32","","","","","","","","","",""
"","","","","","","","","","","","canvas-keyboard-response","351","543619","0.0-351.0","null","null","","","","","","","","","","","","","","stimulus","","","2","32","","","","","","","","","",""
"","","","","","","","","","","","canvas-button-response","352","545228","0.0-352.0","1607","house","","","","","","","","","","","","","","perceptual","","","2","32","","","","","170","bridge","6","0","0",""
"","","","","","","","","","","","canvas-button-response","353","546347","0.0-353.0","1116","7","","","","","","","","","","","","","","confidence","","","2","32","","","","","","","","","","17"
"","","","","","","","","","","","preload","354","546348","0.0-354.0","","","","","true","","","","","","","","","","","preload","","","2","33","false","[]","[]","[]","","","","","",""
"","","","","","","","","","","","canvas-keyboard-response","355","546651","0.0-355.0","null","null","","","","","","","","","","","","","","fixation","","","2","33","","","","","","","","","",""
"","","","","","","","","","","","canvas-keyboard-response","356","546954","0.0-356.0","null","null","","","","","","","","","","","","","","stimulus","","","2","33","","","","","","","","","",""
"","","","","","","","","","","","canvas-button-response","357","548762","0.0-357.0","1805","phone","","","","","","","","","","","","","","perceptual","","","2","33","","","","","88","phone","6","0","1",""
"","","","","","","","","","","","canvas-button-response","358","549730","0.0-358.0","965","10","","","","","","","","","","","","","","confidence","","","2","33","","","","","","","","","","18"
"","","","","","","","","","","","preload","359","549731","0.0-359.0","","","","","true","","","","","","","","","","","preload","","","2","34","false","[]","[]","[]","","","","","",""
"","","","","","","","","","","","canvas-keyboard-response","360","550034","0.0-360.0","null","null","","","","","","","","","","","","","","fixation","","","2","34","","","","","","","","","",""
"","","","","","","","","","","","canvas-keyboard-response","361","550337","0.0-361.0","null","null","","","","","","","","","","","","","","stimulus","","","2","34","","","","","","","","","",""
"","","","","","","","","","","","canvas-button-response","362","552580","0.0-362.0","2239","train","","","","","","","","","","","","","","perceptual","","","2","34","","","","","255","train","6","0","1",""
"","","","","","","","","","","","canvas-button-response","363","553146","0.0-363.0","564","10","","","","","","","","","","","","","","confidence","","","2","34","","","","","","","","","","19"
"","","","","","","","","","","","preload","364","553148","0.0-364.0","","","","","true","","","","","","","","","","","preload","","","2","35","false","[]","[]","[]","","","","","",""
"","","","","","","","","","","","canvas-keyboard-response","365","553450","0.0-365.0","null","null","","","","","","","","","","","","","","fixation","","","2","35","","","","","","","","","",""
"","","","","","","","","","","","canvas-keyboard-response","366","553754","0.0-366.0","null","null","","","","","","","","","","","","","","stimulus","","","2","35","","","","","","","","","",""
"","","","","","","","","","","","canvas-button-response","367","554446","0.0-367.0","690","car","","","","","","","","","","","","","","perceptual","","","2","35","","","","","56","car","6","0","1",""
"","","","","","","","","","","","canvas-button-response","368","555079","0.0-368.0","631","10","","","","","","","","","","","","","","confidence","","","2","35","","","","","","","","","","20"
"","","","","","","","","","","","preload","369","555080","0.0-369.0","","","","","true","","","","","","","","","","","preload","","","2","36","false","[]","[]","[]","","","","","",""
"","","","","","","","","","","","canvas-keyboard-response","370","555383","0.0-370.0","null","null","","","","","","","","","","","","","","fixation","","","2","36","","","","","","","","","",""
"","","","","","","","","","","","canvas-keyboard-response","371","555686","0.0-371.0","null","null","","","","","","","","","","","","","","stimulus","","","2","36","","","","","","","","","",""
"","","","","","","","","","","","canvas-button-response","372","557929","0.0-372.0","2240","bridge","","","","","","","","","","","","","","perceptual","","","2","36","","","","","310","cat","10","0","0",""
"","","","","","","","","","","","canvas-button-response","373","559428","0.0-373.0","1497","2","","","","","","","","","","","","","","confidence","","","2","36","","","","","","","","","","20"
"","","","","","","","","","","","preload","374","559429","0.0-374.0","","","","","true","","","","","","","","","","","preload","","","2","37","false","[]","[]","[]","","","","","",""
"","","","","","","","","","","","canvas-keyboard-response","375","559732","0.0-375.0","null","null","","","","","","","","","","","","","","fixation","","","2","37","","","","","","","","","",""
"","","","","","","","","","","","canvas-keyboard-response","376","560035","0.0-376.0","null","null","","","","","","","","","","","","","","stimulus","","","2","37","","","","","","","","","",""
"","","","","","","","","","","","canvas-button-response","377","560963","0.0-377.0","925","car","","","","","","","","","","","","","","perceptual","","","2","37","","","","","191","bridge","10","0","0",""
"","","","","","","","","","","","canvas-button-response","378","561679","0.0-378.0","714","9","","","","","","","","","","","","","","confidence","","","2","37","","","","","","","","","","20"
"","","","","","","","","","","","preload","379","561680","0.0-379.0","","","","","true","","","","","","","","","","","preload","","","2","38","false","[]","[]","[]","","","","","",""
"","","","","","","","","","","","canvas-keyboard-response","380","561983","0.0-380.0","null","null","","","","","","","","","","","","","","fixation","","","2","38","","","","","","","","","",""
"","","","","","","","","","","","canvas-keyboard-response","381","562285","0.0-381.0","null","null","","","","","","","","","","","","","","stimulus","","","2","38","","","","","","","","","",""
"","","","","","","","","","","","canvas-button-response","382","564746","0.0-382.0","2458","house","","","","","","","","","","","","","","perceptual","","","2","38","","","","","104","phone","10","0","0",""
"","","","","","","","","","","","canvas-button-response","383","565545","0.0-383.0","797","2","","","","","","","","","","","","","","confidence","","","2","38","","","","","","","","","","20"
"","","","","","","","","","","","preload","384","565547","0.0-384.0","","","","","true","","","","","","","","","","","preload","","","2","39","false","[]","[]","[]","","","","","",""
"","","","","","","","","","","","canvas-keyboard-response","385","565849","0.0-385.0","null","null","","","","","","","","","","","","","","fixation","","","2","39","","","","","","","","","",""
"","","","","","","","","","","","canvas-keyboard-response","386","566152","0.0-386.0","null","null","","","","","","","","","","","","","","stimulus","","","2","39","","","","","","","","","",""
"","","","","","","","","","","","canvas-button-response","387","567479","0.0-387.0","1324","house","","","","","","","","","","","","","","perceptual","","","2","39","","","","","21","house","10","0","1",""
"","","","","","","","","","","","canvas-button-response","388","568312","0.0-388.0","831","7","","","","","","","","","","","","","","confidence","","","2","39","","","","","","","","","","21"
"","","","","","","","","","","","preload","389","568313","0.0-389.0","","","","","true","","","","","","","","","","","preload","","","2","40","false","[]","[]","[]","","","","","",""
"","","","","","","","","","","","canvas-keyboard-response","390","568616","0.0-390.0","null","null","","","","","","","","","","","","","","fixation","","","2","40","","","","","","","","","",""
"","","","","","","","","","","","canvas-keyboard-response","391","568919","0.0-391.0","null","null","","","","","","","","","","","","","","stimulus","","","2","40","","","","","","","","","",""
"","","","","","","","","","","","canvas-button-response","392","569695","0.0-392.0","773","knife","","","","","","","","","","","","","","perceptual","","","2","40","","","","","394","knife","10","0","1",""
"","","","","","","","","","","","canvas-button-response","393","570262","0.0-393.0","564","10","","","","","","","","","","","","","","confidence","","","2","40","","","","","","","","","","22"
"","","","","","","","","","","","preload","394","570263","0.0-394.0","","","","","true","","","","","","","","","","","preload","","","2","41","false","[]","[]","[]","","","","","",""
"","","","","","","","","","","","canvas-keyboard-response","395","570564","0.0-395.0","null","null","","","","","","","","","","","","","","fixation","","","2","41","","","","","","","","","",""
"","","","","","","","","","","","canvas-keyboard-response","396","570867","0.0-396.0","null","null","","","","","","","","","","","","","","stimulus","","","2","41","","","","","","","","","",""
"","","","","","","","","","","","canvas-button-response","397","574378","0.0-397.0","3508","elephant","","","","","","","","","","","","","","perceptual","","","2","41","","","","","357","elephant","10","0","1",""
"","","","","","","","","","","","canvas-button-response","398","575695","0.0-398.0","1315","3","","","","","","","","","","","","","","confidence","","","2","41","","","","","","","","","","23"
"","","","","","","","","","","","preload","399","575696","0.0-399.0","","","","","true","","","","","","","","","","","preload","","","2","42","false","[]","[]","[]","","","","","",""
"","","","","","","","","","","","canvas-keyboard-response","400","575999","0.0-400.0","null","null","","","","","","","","","","","","","","fixation","","","2","42","","","","","","","","","",""
"","","","","","","","","","","","canvas-keyboard-response","401","576302","0.0-401.0","null","null","","","","","","","","","","","","","","stimulus","","","2","42","","","","","","","","","",""
"","","","","","","","","","","","canvas-button-response","402","577479","0.0-402.0","1174","bridge","","","","","","","","","","","","","","perceptual","","","2","42","","","","","177","bridge","6","0","1",""
"","","","","","","","","","","","canvas-button-response","403","578512","0.0-403.0","1031","4","","","","","","","","","","","","","","confidence","","","2","42","","","","","","","","","","24"
"","","","","","","","","","","","preload","404","578514","0.0-404.0","","","","","true","","","","","","","","","","","preload","","","2","43","false","[]","[]","[]","","","","","",""
"","","","","","","","","","","","canvas-keyboard-response","405","578817","0.0-405.0","null","null","","","","","","","","","","","","","","fixation","","","2","43","","","","","","","","","",""
"","","","","","","","","","","","canvas-keyboard-response","406","579119","0.0-406.0","null","null","","","","","","","","","","","","","","stimulus","","","2","43","","","","","","","","","",""
"","","","","","","","","","","","canvas-button-response","407","580062","0.0-407.0","940","elephant","","","","","","","","","","","","","","perceptual","","","2","43","","","","","344","elephant","10","0","1",""
"","","","","","","","","","","","canvas-button-response","408","580728","0.0-408.0","663","7","","","","","","","","","","","","","","confidence","","","2","43","","","","","","","","","","25"
"","","","","","","","","","","","preload","409","580729","0.0-409.0","","","","","true","","","","","","","","","","","preload","","","2","44","false","[]","[]","[]","","","","","",""
"","","","","","","","","","","","canvas-keyboard-response","410","581031","0.0-410.0","null","null","","","","","","","","","","","","","","fixation","","","2","44","","","","","","","","","",""
"","","","","","","","","","","","canvas-keyboard-response","411","581334","0.0-411.0","null","null","","","","","","","","","","","","","","stimulus","","","2","44","","","","","","","","","",""
"","","","","","","","","","","","canvas-button-response","412","582245","0.0-412.0","908","flower","","","","","","","","","","","","","","perceptual","","","2","44","","","","","208","flower","6","0","1",""
"","","","","","","","","","","","canvas-button-response","413","583112","0.0-413.0","864","8","","","","","","","","","","","","","","confidence","","","2","44","","","","","","","","","","26"
"","","","","","","","","","","","preload","414","583113","0.0-414.0","","","","","true","","","","","","","","","","","preload","","","2","45","false","[]","[]","[]","","","","","",""
"","","","","","","","","","","","canvas-keyboard-response","415","583416","0.0-415.0","null","null","","","","","","","","","","","","","","fixation","","","2","45","","","","","","","","","",""
"","","","","","","","","","","","canvas-keyboard-response","416","583718","0.0-416.0","null","null","","","","","","","","","","","","","","stimulus","","","2","45","","","","","","","","","",""
"","","","","","","","","","","","canvas-button-response","417","584395","0.0-417.0","674","elephant","","","","","","","","","","","","","","perceptual","","","2","45","","","","","351","elephant","10","0","1",""
"","","","","","","","","","","","canvas-button-response","418","584962","0.0-418.0","564","10","","","","","","","","","","","","","","confidence","","","2","45","","","","","","","","","","27"
"","","","","","","","","","","","preload","419","584964","0.0-419.0","","","","","true","","","","","","","","","","","preload","","","2","46","false","[]","[]","[]","","","","","",""
"","","","","","","","","","","","canvas-keyboard-response","420","585266","0.0-420.0","null","null","","","","","","","","","","","","","","fixation","","","2","46","","","","","","","","","",""
"","","","","","","","","","","","canvas-keyboard-response","421","585569","0.0-421.0","null","null","","","","","","","","","","","","","","stimulus","","","2","46","","","","","","","","","",""
"","","","","","","","","","","","canvas-button-response","422","586829","0.0-422.0","1257","cat","","","","","","","","","","","","","","perceptual","","","2","46","","","","","295","cat","6","0","1",""
"","","","","","","","","","","","canvas-button-response","423","587612","0.0-423.0","781","9","","","","","","","","","","","","","","confidence","","","2","46","","","","","","","","","","28"
"","","","","","","","","","","","preload","424","587613","0.0-424.0","","","","","true","","","","","","","","","","","preload","","","2","47","false","[]","[]","[]","","","","","",""
"","","","","","","","","","","","canvas-keyboard-response","425","587916","0.0-425.0","null","null","","","","","","","","","","","","","","fixation","","","2","47","","","","","","","","","",""
"","","","","","","","","","","","canvas-keyboard-response","426","588219","0.0-426.0","null","null","","","","","","","","","","","","","","stimulus","","","2","47","","","","","","","","","",""
"","","","","","","","","","","","canvas-button-response","427","589045","0.0-427.0","824","car","","","","","","","","","","","","","","perceptual","","","2","47","","","","","55","car","6","0","1",""
"","","","","","","","","","","","canvas-button-response","428","589579","0.0-428.0","531","8","","","","","","","","","","","","","","confidence","","","2","47","","","","","","","","","","29"
"","","","","","","","","","","","preload","429","589580","0.0-429.0","","","","","true","","","","","","","","","","","preload","","","2","48","false","[]","[]","[]","","","","","",""
"","","","","","","","","","","","canvas-keyboard-response","430","589882","0.0-430.0","null","null","","","","","","","","","","","","","","fixation","","","2","48","","","","","","","","","",""
"","","","","","","","","","","","canvas-keyboard-response","431","590185","0.0-431.0","null","null","","","","","","","","","","","","","","stimulus","","","2","48","","","","","","","","","",""
"","","","","","","","","","","","canvas-button-response","432","591645","0.0-432.0","1458","cat","","","","","","","","","","","","","","perceptual","","","2","48","","","","","328","elephant","6","0","0",""
"","","","","","","","","","","","canvas-button-response","433","592412","0.0-433.0","764","8","","","","","","","","","","","","","","confidence","","","2","48","","","","","","","","","","29"
"","","","","","","","","","","","preload","434","592413","0.0-434.0","","","","","true","","","","","","","","","","","preload","","","2","49","false","[]","[]","[]","","","","","",""
"","","","","","","","","","","","canvas-keyboard-response","435","592716","0.0-435.0","null","null","","","","","","","","","","","","","","fixation","","","2","49","","","","","","","","","",""
"","","","","","","","","","","","canvas-keyboard-response","436","593018","0.0-436.0","null","null","","","","","","","","","","","","","","stimulus","","","2","49","","","","","","","","","",""
"","","","","","","","","","","","canvas-button-response","437","594044","0.0-437.0","1024","phone","","","","","","","","","","","","","","perceptual","","","2","49","","","","","86","phone","6","0","1",""
"","","","","","","","","","","","canvas-button-response","438","594912","0.0-438.0","866","10","","","","","","","","","","","","","","confidence","","","2","49","","","","","","","","","","30"
"","","","","","","","","","","","html-button-response","439","629862","0.0-439.0","34947","0","","","","","","","","","","","","","","<p style=""font-size:20px;color:#000000"">You got 30 out of 50 trials correct in this block.<br><br>You have completed 6% of the experiment.<br><br>Take a short break.<br><br>When you are ready, click Continue to proceed.","","","2","49","","","","","","","","","",""
"","","","","","","","","","","","html-keyboard-response","440","630866","0.0-440.0","null","null","","","","","","","","","","","","","","<p style=""font-size:32px;color:#000000""><br><br> RUN: &nbsp 1/4 <br><br> BLOCK: 2/4 ","","","2","49","","","","","","","","","",""
"","","","","","","","","","","","preload","441","630867","0.0-441.0","","","","","true","","","","","","","","","","","preload","","","2","50","false","[]","[]","[]","","","","","",""
"","","","","","","","","","","","canvas-keyboard-response","442","631171","0.0-442.0","null","null","","","","","","","","","","","","","","fixation","","","2","50","","","","","","","","","",""
"","","","","","","","","","","","canvas-keyboard-response","443","631474","0.0-443.0","null","null","","","","","","","","","","","","","","stimulus","","","2","50","","","","","","","","","",""
"","","","","","","","","","","","canvas-button-response","444","632744","0.0-444.0","1268","house","","","","","","","","","","","","","","perceptual","","","2","50","","","","","35","house","10","0","1",""
"","","","","","","","","","","","canvas-button-response","445","633511","0.0-445.0","765","7","","","","","","","","","","","","","","confidence","","","2","50","","","","","","","","","","1"
"","","","","","","","","","","","preload","446","633512","0.0-446.0","","","","","true","","","","","","","","","","","preload","","","2","51","false","[]","[]","[]","","","","","",""
"","","","","","","","","","","","canvas-keyboard-response","447","633815","0.0-447.0","null","null","","","","","","","","","","","","","","fixation","","","2","51","","","","","","","","","",""
"","","","","","","","","","","","canvas-keyboard-response","448","634118","0.0-448.0","null","null","","","","","","","","","","","","","","stimulus","","","2","51","","","","","","","","","",""
"","","","","","","","","","","","canvas-button-response","449","635845","0.0-449.0","1724","train","","","","","","","","","","","","","","perceptual","","","2","51","","","","","242","train","6","0","1",""
"","","","","","","","","","","","canvas-button-response","450","636478","0.0-450.0","631","8","","","","","","","","","","","","","","confidence","","","2","51","","","","","","","","","","2"
"","","","","","","","","","","","preload","451","636479","0.0-451.0","","","","","true","","","","","","","","","","","preload","","","2","52","false","[]","[]","[]","","","","","",""
"","","","","","","","","","","","canvas-keyboard-response","452","636781","0.0-452.0","null","null","","","","","","","","","","","","","","fixation","","","2","52","","","","","","","","","",""
"","","","","","","","","","","","canvas-keyboard-response","453","637084","0.0-453.0","null","null","","","","","","","","","","","","","","stimulus","","","2","52","","","","","","","","","",""
"","","","","","","","","","","","canvas-button-response","454","637761","0.0-454.0","674","elephant","","","","","","","","","","","","","","perceptual","","","2","52","","","","","335","elephant","6","0","1",""
"","","","","","","","","","","","canvas-button-response","455","638261","0.0-455.0","499","8","","","","","","","","","","","","","","confidence","","","2","52","","","","","","","","","","3"
"","","","","","","","","","","","preload","456","638262","0.0-456.0","","","","","true","","","","","","","","","","","preload","","","2","53","false","[]","[]","[]","","","","","",""
"","","","","","","","","","","","canvas-keyboard-response","457","638565","0.0-457.0","null","null","","","","","","","","","","","","","","fixation","","","2","53","","","","","","","","","",""
"","","","","","","","","","","","canvas-keyboard-response","458","638868","0.0-458.0","null","null","","","","","","","","","","","","","","stimulus","","","2","53","","","","","","","","","",""
"","","","","","","","","","","","canvas-button-response","459","639978","0.0-459.0","1108","flower","","","","","","","","","","","","","","perceptual","","","2","53","","","","","233","flower","10","0","1",""
"","","","","","","","","","","","canvas-button-response","460","640677","0.0-460.0","698","4","","","","","","","","","","","","","","confidence","","","2","53","","","","","","","","","","4"
"","","","","","","","","","","","preload","461","640678","0.0-461.0","","","","","true","","","","","","","","","","","preload","","","2","54","false","[]","[]","[]","","","","","",""
"","","","","","","","","","","","canvas-keyboard-response","462","640981","0.0-462.0","null","null","","","","","","","","","","","","","","fixation","","","2","54","","","","","","","","","",""
"","","","","","","","","","","","canvas-keyboard-response","463","641284","0.0-463.0","null","null","","","","","","","","","","","","","","stimulus","","","2","54","","","","","","","","","",""
"","","","","","","","","","","","canvas-button-response","464","644195","0.0-464.0","2908","phone","","","","","","","","","","","","","","perceptual","","","2","54","","","","","80","phone","6","0","1",""
"","","","","","","","","","","","canvas-button-response","465","644994","0.0-465.0","797","3","","","","","","","","","","","","","","confidence","","","2","54","","","","","","","","","","5"
"","","","","","","","","","","","preload","466","644995","0.0-466.0","","","","","true","","","","","","","","","","","preload","","","2","55","false","[]","[]","[]","","","","","",""
"","","","","","","","","","","","canvas-keyboard-response","467","645298","0.0-467.0","null","null","","","","","","","","","","","","","","fixation","","","2","55","","","","","","","","","",""
"","","","","","","","","","","","canvas-keyboard-response","468","645601","0.0-468.0","null","null","","","","","","","","","","","","","","stimulus","","","2","55","","","","","","","","","",""
"","","","","","","","","","","","canvas-button-response","469","646511","0.0-469.0","907","cat","","","","","","","","","","","","","","perceptual","","","2","55","","","","","297","cat","6","0","1",""
"","","","","","","","","","","","canvas-button-response","470","647177","0.0-470.0","664","9","","","","","","","","","","","","","","confidence","","","2","55","","","","","","","","","","6"
"","","","","","","","","","","","preload","471","647178","0.0-471.0","","","","","true","","","","","","","","","","","preload","","","2","56","false","[]","[]","[]","","","","","",""
"","","","","","","","","","","","canvas-keyboard-response","472","647480","0.0-472.0","null","null","","","","","","","","","","","","","","fixation","","","2","56","","","","","","","","","",""
"","","","","","","","","","","","canvas-keyboard-response","473","647783","0.0-473.0","null","null","","","","","","","","","","","","","","stimulus","","","2","56","","","","","","","","","",""
"","","","","","","","","","","","canvas-button-response","474","651561","0.0-474.0","3776","flower","","","","","","","","","","","","","","perceptual","","","2","56","","","","","222","flower","10","0","1",""
"","","","","","","","","","","","canvas-button-response","475","652278","0.0-475.0","714","3","","","","","","","","","","","","","","confidence","","","2","56","","","","","","","","","","7"
"","","","","","","","","","","","preload","476","652279","0.0-476.0","","","","","true","","","","","","","","","","","preload","","","2","57","false","[]","[]","[]","","","","","",""
"","","","","","","","","","","","canvas-keyboard-response","477","652581","0.0-477.0","null","null","","","","","","","","","","","","","","fixation","","","2","57","","","","","","","","","",""
"","","","","","","","","","","","canvas-keyboard-response","478","652883","0.0-478.0","null","null","","","","","","","","","","","","","","stimulus","","","2","57","","","","","","","","","",""
"","","","","","","","","","","","canvas-button-response","479","655394","0.0-479.0","2509","cat","","","","","","","","","","","","","","perceptual","","","2","57","","","","","354","elephant","10","0","0",""
"","","","","","","","","","","","canvas-button-response","480","656178","0.0-480.0","782","6","","","","","","","","","","","","","","confidence","","","2","57","","","","","","","","","","7"
"","","","","","","","","","","","preload","481","656179","0.0-481.0","","","","","true","","","","","","","","","","","preload","","","2","58","false","[]","[]","[]","","","","","",""
"","","","","","","","","","","","canvas-keyboard-response","482","656482","0.0-482.0","null","null","","","","","","","","","","","","","","fixation","","","2","58","","","","","","","","","",""
"","","","","","","","","","","","canvas-keyboard-response","483","656785","0.0-483.0","null","null","","","","","","","","","","","","","","stimulus","","","2","58","","","","","","","","","",""
"","","","","","","","","","","","canvas-button-response","484","658044","0.0-484.0","1257","car","","","","","","","","","","","","","","perceptual","","","2","58","","","","","79","car","10","0","1",""
"","","","","","","","","","","","canvas-button-response","485","658661","0.0-485.0","614","5","","","","","","","","","","","","","","confidence","","","2","58","","","","","","","","","","8"
"","","","","","","","","","","","preload","486","658662","0.0-486.0","","","","","true","","","","","","","","","","","preload","","","2","59","false","[]","[]","[]","","","","","",""
"","","","","","","","","","","","canvas-keyboard-response","487","658965","0.0-487.0","null","null","","","","","","","","","","","","","","fixation","","","2","59","","","","","","","","","",""
"","","","","","","","","","","","canvas-keyboard-response","488","659268","0.0-488.0","null","null","","","","","","","","","","","","","","stimulus","","","2","59","","","","","","","","","",""
"","","","","","","","","","","","canvas-button-response","489","662611","0.0-489.0","3340","bed","","","","","","","","","","","","","","perceptual","","","2","59","","","","","373","knife","6","0","0",""
"","","","","","","","","","","","canvas-button-response","490","663661","0.0-490.0","1047","3","","","","","","","","","","","","","","confidence","","","2","59","","","","","","","","","","8"
"","","","","","","","","","","","preload","491","663662","0.0-491.0","","","","","true","","","","","","","","","","","preload","","","2","60","false","[]","[]","[]","","","","","",""
"","","","","","","","","","","","canvas-keyboard-response","492","663964","0.0-492.0","null","null","","","","","","","","","","","","","","fixation","","","2","60","","","","","","","","","",""
