"width","height","webaudio","browser","browser_version","mobile","os","fullscreen","vsync_rate","webcam","microphone","trial_type","trial_index","time_elapsed","internal_node_id","rt","response","accuracy","view_history","success","item_width_mm","item_height_mm","item_width_px","px2mm","view_dist_mm","item_width_deg","px2deg","scale_factor","win_width_deg","win_height_deg","stimulus","datetime","subjectID","curr_triallist","trial_no","timeout","failed_images","failed_audio","failed_video","image_index","category","blur","reps","correct","running_score"
"1920","917","true","chrome","141.0.0","false","Windows 10","true","100.08","true","true","browser-check","0","611","0.0-0.0","","","","","","","","","","","","","","","","","","","","","","","","","","","","","",""
"","","","","","","","","","","","survey","1","171870","0.0-1.0","171132","{""P0_Q0"":""904094068"",""P0_Q1"":""18"",""P1_Q0"":""Male"",""P1_Q1"":""Not Hispanic or Latino"",""P1_Q2"":""Asian"",""P1_Q3"":""Corrected-to-Normal (using glasses/contacts)"",""P1_Q4"":""Right-Handed""}","[]","","","","","","","","","","","","","","","","","","","","","","","","","","",""
"","","","","","","","","","","","instructions","2","341661","0.0-2.0","169790","","","[{""page_index"":0,""viewing_time"":5256},{""page_index"":1,""viewing_time"":146545},{""page_index"":2,""viewing_time"":10748},{""page_index"":3,""viewing_time"":7242}]","","","","","","","","","","","","","","","","","","","","","","","","","",""
"","","","","","","","","","","","fullscreen","3","344115","0.0-3.0","1435","","","","true","","","","","","","","","","","","","","","","","","","","","","","","",""
"","","","","","","","","","","","virtual-chinrest","4","458247","0.0-4.0","114129","","","","","85.6","53.98","265.390381892089","3.0996366997049","553.31","8.846346063069634","30","1.9518416466600708","64","36","","","","","","","","","","","","","","",""
"","","","","","","","","","","","instructions","5","540905","0.0-5.0","82655","","","[{""page_index"":0,""viewing_time"":6604},{""page_index"":1,""viewing_time"":4430},{""page_index"":2,""viewing_time"":7586},{""page_index"":3,""viewing_time"":5227},{""page_index"":4,""viewing_time"":14856},{""page_index"":5,""viewing_time"":40163},{""page_index"":6,""viewing_time"":3790}]","","","","","","","","","","","","","","","","","","","","","","","","","",""
"","","","","","","","","","","","html-button-response","6","547099","0.0-6.0","6188","0","","","","","","","","","","","","","","start_practice","Thu Oct 09 2025 13:35:47 GMT-0400 (Eastern Daylight Time)","27773","","","","","","","","","","","",""
"","","","","","","","","","","","preload","7","547103","0.0-7.0","","","","","true","","","","","","","","","","","preload","","","0","0","false","[]","[]","[]","","","","","",""
"","","","","","","","","","","","canvas-keyboard-response","8","547413","0.0-8.0","null","null","","","","","","","","","","","","","","fixation","","","0","0","","","","","","","","","",""
"","","","","","","","","","","","canvas-keyboard-response","9","547725","0.0-9.0","null","null","","","","","","","","","","","","","","stimulus","","","0","0","","","","","","","","","",""
"","","","","","","","","","","","canvas-button-response","10","549394","0.0-10.0","1660","bridge","","","","","","","","","","","","","","perceptual","","","0","0","","","","","42","bridge","1","","1",""
"","","","","","","","","","","","canvas-button-response","11","551507","0.0-11.0","2107","10","","","","","","","","","","","","","","confidence","","","0","0","","","","","","","","","","1"
"","","","","","","","","","","","html-keyboard-response","12","552516","0.0-12.0","null","null","","","","","","","","","","","","","","feedback","Thu Oct 09 2025 13:35:58 GMT-0400 (Eastern Daylight Time)","27773","0","0","","","","","","","","","",""
"","","","","","","","","","","","preload","13","552517","0.0-13.0","","","","","true","","","","","","","","","","","preload","","","0","1","false","[]","[]","[]","","","","","",""
"","","","","","","","","","","","canvas-keyboard-response","14","552831","0.0-14.0","null","null","","","","","","","","","","","","","","fixation","","","0","1","","","","","","","","","",""
"","","","","","","","","","","","canvas-keyboard-response","15","553144","0.0-15.0","null","null","","","","","","","","","","","","","","stimulus","","","0","1","","","","","","","","","",""
"","","","","","","","","","","","canvas-button-response","16","555448","0.0-16.0","2300","cat","","","","","","","","","","","","","","perceptual","","","0","1","","","","","72","cat","1","","1",""
"","","","","","","","","","","","canvas-button-response","17","557412","0.0-17.0","1959","10","","","","","","","","","","","","","","confidence","","","0","1","","","","","","","","","","2"
"","","","","","","","","","","","html-keyboard-response","18","558422","0.0-18.0","null","null","","","","","","","","","","","","","","feedback","Thu Oct 09 2025 13:36:03 GMT-0400 (Eastern Daylight Time)","27773","0","1","","","","","","","","","",""
"","","","","","","","","","","","preload","19","558423","0.0-19.0","","","","","true","","","","","","","","","","","preload","","","0","2","false","[]","[]","[]","","","","","",""
"","","","","","","","","","","","canvas-keyboard-response","20","558737","0.0-20.0","null","null","","","","","","","","","","","","","","fixation","","","0","2","","","","","","","","","",""
"","","","","","","","","","","","canvas-keyboard-response","21","559051","0.0-21.0","null","null","","","","","","","","","","","","","","stimulus","","","0","2","","","","","","","","","",""
"","","","","","","","","","","","canvas-button-response","22","560479","0.0-22.0","1425","bed","","","","","","","","","","","","","","perceptual","","","0","2","","","","","32","bed","1","","1",""
"","","","","","","","","","","","canvas-button-response","23","561773","0.0-23.0","1291","10","","","","","","","","","","","","","","confidence","","","0","2","","","","","","","","","","3"
"","","","","","","","","","","","html-keyboard-response","24","562783","0.0-24.0","null","null","","","","","","","","","","","","","","feedback","Thu Oct 09 2025 13:36:08 GMT-0400 (Eastern Daylight Time)","27773","0","2","","","","","","","","","",""
"","","","","","","","","","","","preload","25","562785","0.0-25.0","","","","","true","","","","","","","","","","","preload","","","0","3","false","[]","[]","[]","","","","","",""
"","","","","","","","","","","","canvas-keyboard-response","26","563101","0.0-26.0","null","null","","","","","","","","","","","","","","fixation","","","0","3","","","","","","","","","",""
"","","","","","","","","","","","canvas-keyboard-response","27","563417","0.0-27.0","null","null","","","","","","","","","","","","","","stimulus","","","0","3","","","","","","","","","",""
"","","","","","","","","","","","canvas-button-response","28","564478","0.0-28.0","1058","phone","","","","","","","","","","","","","","perceptual","","","0","3","","","","","22","phone","1","","1",""
"","","","","","","","","","","","canvas-button-response","29","565450","0.0-29.0","968","10","","","","","","","","","","","","","","confidence","","","0","3","","","","","","","","","","4"
"","","","","","","","","","","","html-keyboard-response","30","566457","0.0-30.0","null","null","","","","","","","","","","","","","","feedback","Thu Oct 09 2025 13:36:11 GMT-0400 (Eastern Daylight Time)","27773","0","3","","","","","","","","","",""
"","","","","","","","","","","","preload","31","566458","0.0-31.0","","","","","true","","","","","","","","","","","preload","","","0","4","false","[]","[]","[]","","","","","",""
"","","","","","","","","","","","canvas-keyboard-response","32","566765","0.0-32.0","null","null","","","","","","","","","","","","","","fixation","","","0","4","","","","","","","","","",""
"","","","","","","","","","","","canvas-keyboard-response","33","567072","0.0-33.0","null","null","","","","","","","","","","","","","","stimulus","","","0","4","","","","","","","","","",""
"","","","","","","","","","","","canvas-button-response","34","567960","0.0-34.0","885","car","","","","","","","","","","","","","","perceptual","","","0","4","","","","","12","car","1","","1",""
"","","","","","","","","","","","canvas-button-response","35","568974","0.0-35.0","1009","10","","","","","","","","","","","","","","confidence","","","0","4","","","","","","","","","","5"
"","","","","","","","","","","","html-keyboard-response","36","569993","0.0-36.0","null","null","","","","","","","","","","","","","","feedback","Thu Oct 09 2025 13:36:15 GMT-0400 (Eastern Daylight Time)","27773","0","4","","","","","","","","","",""
"","","","","","","","","","","","preload","37","569994","0.0-37.0","","","","","true","","","","","","","","","","","preload","","","0","5","false","[]","[]","[]","","","","","",""
"","","","","","","","","","","","canvas-keyboard-response","38","570309","0.0-38.0","null","null","","","","","","","","","","","","","","fixation","","","0","5","","","","","","","","","",""
"","","","","","","","","","","","canvas-keyboard-response","39","570620","0.0-39.0","null","null","","","","","","","","","","","","","","stimulus","","","0","5","","","","","","","","","",""
"","","","","","","","","","","","canvas-button-response","40","571505","0.0-40.0","881","house","","","","","","","","","","","","","","perceptual","","","0","5","","","","","2","house","1","","1",""
"","","","","","","","","","","","canvas-button-response","41","572536","0.0-41.0","1028","10","","","","","","","","","","","","","","confidence","","","0","5","","","","","","","","","","6"
"","","","","","","","","","","","html-keyboard-response","42","573551","0.0-42.0","null","null","","","","","","","","","","","","","","feedback","Thu Oct 09 2025 13:36:19 GMT-0400 (Eastern Daylight Time)","27773","0","5","","","","","","","","","",""
"","","","","","","","","","","","preload","43","573553","0.0-43.0","","","","","true","","","","","","","","","","","preload","","","0","6","false","[]","[]","[]","","","","","",""
"","","","","","","","","","","","canvas-keyboard-response","44","573862","0.0-44.0","null","null","","","","","","","","","","","","","","fixation","","","0","6","","","","","","","","","",""
"","","","","","","","","","","","canvas-keyboard-response","45","574175","0.0-45.0","null","null","","","","","","","","","","","","","","stimulus","","","0","6","","","","","","","","","",""
"","","","","","","","","","","","canvas-button-response","46","586867","0.0-46.0","12689","cat","","","","","","","","","","","","","","perceptual","","","0","6","","","","","82","elephant","1","","0",""
"","","","","","","","","","","","canvas-button-response","47","587747","0.0-47.0","878","1","","","","","","","","","","","","","","confidence","","","0","6","","","","","","","","","","6"
"","","","","","","","","","","","html-keyboard-response","48","588764","0.0-48.0","null","null","","","","","","","","","","","","","","feedback","Thu Oct 09 2025 13:36:34 GMT-0400 (Eastern Daylight Time)","27773","0","6","","","","","","","","","",""
"","","","","","","","","","","","preload","49","588766","0.0-49.0","","","","","true","","","","","","","","","","","preload","","","0","7","false","[]","[]","[]","","","","","",""
"","","","","","","","","","","","canvas-keyboard-response","50","589082","0.0-50.0","null","null","","","","","","","","","","","","","","fixation","","","0","7","","","","","","","","","",""
"","","","","","","","","","","","canvas-keyboard-response","51","589388","0.0-51.0","null","null","","","","","","","","","","","","","","stimulus","","","0","7","","","","","","","","","",""
"","","","","","","","","","","","canvas-button-response","52","592164","0.0-52.0","2773","flower","","","","","","","","","","","","","","perceptual","","","0","7","","","","","52","flower","1","","1",""
"","","","","","","","","","","","canvas-button-response","53","593226","0.0-53.0","1059","1","","","","","","","","","","","","","","confidence","","","0","7","","","","","","","","","","7"
"","","","","","","","","","","","html-keyboard-response","54","594230","0.0-54.0","null","null","","","","","","","","","","","","","","feedback","Thu Oct 09 2025 13:36:39 GMT-0400 (Eastern Daylight Time)","27773","0","7","","","","","","","","","",""
"","","","","","","","","","","","preload","55","594231","0.0-55.0","","","","","true","","","","","","","","","","","preload","","","0","8","false","[]","[]","[]","","","","","",""
"","","","","","","","","","","","canvas-keyboard-response","56","594534","0.0-56.0","null","null","","","","","","","","","","","","","","fixation","","","0","8","","","","","","","","","",""
"","","","","","","","","","","","canvas-keyboard-response","57","594842","0.0-57.0","null","null","","","","","","","","","","","","","","stimulus","","","0","8","","","","","","","","","",""
"","","","","","","","","","","","canvas-button-response","58","602803","0.0-58.0","7958","knife","","","","","","","","","","","","","","perceptual","","","0","8","","","","","92","knife","1","","1",""
"","","","","","","","","","","","canvas-button-response","59","603631","0.0-59.0","825","0","","","","","","","","","","","","","","confidence","","","0","8","","","","","","","","","","8"
"","","","","","","","","","","","html-keyboard-response","60","604644","0.0-60.0","null","null","","","","","","","","","","","","","","feedback","Thu Oct 09 2025 13:36:50 GMT-0400 (Eastern Daylight Time)","27773","0","8","","","","","","","","","",""
"","","","","","","","","","","","preload","61","604645","0.0-61.0","","","","","true","","","","","","","","","","","preload","","","0","9","false","[]","[]","[]","","","","","",""
"","","","","","","","","","","","canvas-keyboard-response","62","604957","0.0-62.0","null","null","","","","","","","","","","","","","","fixation","","","0","9","","","","","","","","","",""
"","","","","","","","","","","","canvas-keyboard-response","63","605270","0.0-63.0","null","null","","","","","","","","","","","","","","stimulus","","","0","9","","","","","","","","","",""
"","","","","","","","","","","","canvas-button-response","64","606124","0.0-64.0","850","train","","","","","","","","","","","","","","perceptual","","","0","9","","","","","62","train","1","","1",""
"","","","","","","","","","","","canvas-button-response","65","607213","0.0-65.0","1085","10","","","","","","","","","","","","","","confidence","","","0","9","","","","","","","","","","9"
"","","","","","","","","","","","html-keyboard-response","66","608231","0.0-66.0","null","null","","","","","","","","","","","","","","feedback","Thu Oct 09 2025 13:36:53 GMT-0400 (Eastern Daylight Time)","27773","0","9","","","","","","","","","",""
"","","","","","","","","","","","html-button-response","67","616524","0.0-67.0","8284","0","","","","","","","","","","","","","","start_practice","Thu Oct 09 2025 13:36:54 GMT-0400 (Eastern Daylight Time)","27773","0","9","","","","","","","","","",""
"","","","","","","","","","","","preload","68","616526","0.0-68.0","","","","","true","","","","","","","","","","","preload","","","1","0","false","[]","[]","[]","","","","","",""
"","","","","","","","","","","","canvas-keyboard-response","69","616835","0.0-69.0","null","null","","","","","","","","","","","","","","fixation","","","1","0","","","","","","","","","",""
"","","","","","","","","","","","canvas-keyboard-response","70","617146","0.0-70.0","null","null","","","","","","","","","","","","","","stimulus","","","1","0","","","","","","","","","",""
"","","","","","","","","","","","canvas-button-response","71","619013","0.0-71.0","1865","car","","","","","","","","","","","","","","perceptual","","","1","0","","","","","17","car","10","","1",""
"","","","","","","","","","","","canvas-button-response","72","620595","0.0-72.0","1579","2","","","","","","","","","","","","","","confidence","","","1","0","","","","","","","","","","1"
"","","","","","","","","","","","html-keyboard-response","73","621613","0.0-73.0","null","null","","","","","","","","","","","","","","feedback","Thu Oct 09 2025 13:37:07 GMT-0400 (Eastern Daylight Time)","27773","1","0","","","","","","","","","",""
"","","","","","","","","","","","preload","74","621614","0.0-74.0","","","","","true","","","","","","","","","","","preload","","","1","1","false","[]","[]","[]","","","","","",""
"","","","","","","","","","","","canvas-keyboard-response","75","621927","0.0-75.0","null","null","","","","","","","","","","","","","","fixation","","","1","1","","","","","","","","","",""
"","","","","","","","","","","","canvas-keyboard-response","76","622244","0.0-76.0","null","null","","","","","","","","","","","","","","stimulus","","","1","1","","","","","","","","","",""
"","","","","","","","","","","","canvas-button-response","77","623187","0.0-77.0","941","bed","","","","","","","","","","","","","","perceptual","","","1","1","","","","","34","bed","6","","1",""
"","","","","","","","","","","","canvas-button-response","78","624163","0.0-78.0","974","10","","","","","","","","","","","","","","confidence","","","1","1","","","","","","","","","","2"
"","","","","","","","","","","","html-keyboard-response","79","625177","0.0-79.0","null","null","","","","","","","","","","","","","","feedback","Thu Oct 09 2025 13:37:10 GMT-0400 (Eastern Daylight Time)","27773","1","1","","","","","","","","","",""
"","","","","","","","","","","","preload","80","625178","0.0-80.0","","","","","true","","","","","","","","","","","preload","","","1","2","false","[]","[]","[]","","","","","",""
"","","","","","","","","","","","canvas-keyboard-response","81","625491","0.0-81.0","null","null","","","","","","","","","","","","","","fixation","","","1","2","","","","","","","","","",""
"","","","","","","","","","","","canvas-keyboard-response","82","625801","0.0-82.0","null","null","","","","","","","","","","","","","","stimulus","","","1","2","","","","","","","","","",""
"","","","","","","","","","","","canvas-button-response","83","626967","0.0-83.0","1163","flower","","","","","","","","","","","","","","perceptual","","","1","2","","","","","57","flower","10","","1",""
"","","","","","","","","","","","canvas-button-response","84","628086","0.0-84.0","1117","2","","","","","","","","","","","","","","confidence","","","1","2","","","","","","","","","","3"
"","","","","","","","","","","","html-keyboard-response","85","629102","0.0-85.0","null","null","","","","","","","","","","","","","","feedback","Thu Oct 09 2025 13:37:14 GMT-0400 (Eastern Daylight Time)","27773","1","2","","","","","","","","","",""
"","","","","","","","","","","","preload","86","629104","0.0-86.0","","","","","true","","","","","","","","","","","preload","","","1","3","false","[]","[]","[]","","","","","",""
"","","","","","","","","","","","canvas-keyboard-response","87","629420","0.0-87.0","null","null","","","","","","","","","","","","","","fixation","","","1","3","","","","","","","","","",""
"","","","","","","","","","","","canvas-keyboard-response","88","629731","0.0-88.0","null","null","","","","","","","","","","","","","","stimulus","","","1","3","","","","","","","","","",""
"","","","","","","","","","","","canvas-button-response","89","642352","0.0-89.0","12618","phone","","","","","","","","","","","","","","perceptual","","","1","3","","","","","24","phone","6","","1",""
"","","","","","","","","","","","canvas-button-response","90","642937","0.0-90.0","583","0","","","","","","","","","","","","","","confidence","","","1","3","","","","","","","","","","4"
"","","","","","","","","","","","html-keyboard-response","91","643951","0.0-91.0","null","null","","","","","","","","","","","","","","feedback","Thu Oct 09 2025 13:37:29 GMT-0400 (Eastern Daylight Time)","27773","1","3","","","","","","","","","",""
"","","","","","","","","","","","preload","92","643952","0.0-92.0","","","","","true","","","","","","","","","","","preload","","","1","4","false","[]","[]","[]","","","","","",""
"","","","","","","","","","","","canvas-keyboard-response","93","644270","0.0-93.0","null","null","","","","","","","","","","","","","","fixation","","","1","4","","","","","","","","","",""
"","","","","","","","","","","","canvas-keyboard-response","94","644576","0.0-94.0","null","null","","","","","","","","","","","","","","stimulus","","","1","4","","","","","","","","","",""
"","","","","","","","","","","","canvas-button-response","95","645455","0.0-95.0","875","train","","","","","","","","","","","","","","perceptual","","","1","4","","","","","64","train","6","","1",""
"","","","","","","","","","","","canvas-button-response","96","646230","0.0-96.0","772","10","","","","","","","","","","","","","","confidence","","","1","4","","","","","","","","","","5"
"","","","","","","","","","","","html-keyboard-response","97","647237","0.0-97.0","null","null","","","","","","","","","","","","","","feedback","Thu Oct 09 2025 13:37:32 GMT-0400 (Eastern Daylight Time)","27773","1","4","","","","","","","","","",""
"","","","","","","","","","","","preload","98","647238","0.0-98.0","","","","","true","","","","","","","","","","","preload","","","1","5","false","[]","[]","[]","","","","","",""
"","","","","","","","","","","","canvas-keyboard-response","99","647551","0.0-99.0","null","null","","","","","","","","","","","","","","fixation","","","1","5","","","","","","","","","",""
"","","","","","","","","","","","canvas-keyboard-response","100","647866","0.0-100.0","null","null","","","","","","","","","","","","","","stimulus","","","1","5","","","","","","","","","",""
"","","","","","","","","","","","canvas-button-response","101","648697","0.0-101.0","828","knife","","","","","","","","","","","","","","perceptual","","","1","5","","","","","97","knife","10","","1",""
"","","","","","","","","","","","canvas-button-response","102","649428","0.0-102.0","728","10","","","","","","","","","","","","","","confidence","","","1","5","","","","","","","","","","6"
"","","","","","","","","","","","html-keyboard-response","103","650437","0.0-103.0","null","null","","","","","","","","","","","","","","feedback","Thu Oct 09 2025 13:37:35 GMT-0400 (Eastern Daylight Time)","27773","1","5","","","","","","","","","",""
"","","","","","","","","","","","preload","104","650438","0.0-104.0","","","","","true","","","","","","","","","","","preload","","","1","6","false","[]","[]","[]","","","","","",""
"","","","","","","","","","","","canvas-keyboard-response","105","650745","0.0-105.0","null","null","","","","","","","","","","","","","","fixation","","","1","6","","","","","","","","","",""
"","","","","","","","","","","","canvas-keyboard-response","106","651053","0.0-106.0","null","null","","","","","","","","","","","","","","stimulus","","","1","6","","","","","","","","","",""
"","","","","","","","","","","","canvas-button-response","107","657736","0.0-107.0","6679","bed","","","","","","","","","","","","","","perceptual","","","1","6","","","","","94","knife","6","","0",""
"","","","","","","","","","","","canvas-button-response","108","658465","0.0-108.0","727","2","","","","","","","","","","","","","","confidence","","","1","6","","","","","","","","","","6"
"","","","","","","","","","","","html-keyboard-response","109","659477","0.0-109.0","null","null","","","","","","","","","","","","","","feedback","Thu Oct 09 2025 13:37:44 GMT-0400 (Eastern Daylight Time)","27773","1","6","","","","","","","","","",""
"","","","","","","","","","","","preload","110","659478","0.0-110.0","","","","","true","","","","","","","","","","","preload","","","1","7","false","[]","[]","[]","","","","","",""
"","","","","","","","","","","","canvas-keyboard-response","111","659792","0.0-111.0","null","null","","","","","","","","","","","","","","fixation","","","1","7","","","","","","","","","",""
"","","","","","","","","","","","canvas-keyboard-response","112","660107","0.0-112.0","null","null","","","","","","","","","","","","","","stimulus","","","1","7","","","","","","","","","",""
"","","","","","","","","","","","canvas-button-response","113","661347","0.0-113.0","1238","car","","","","","","","","","","","","","","perceptual","","","1","7","","","","","27","phone","10","","0",""
"","","","","","","","","","","","canvas-button-response","114","662436","0.0-114.0","1085","5","","","","","","","","","","","","","","confidence","","","1","7","","","","","","","","","","6"
"","","","","","","","","","","","html-keyboard-response","115","663450","0.0-115.0","null","null","","","","","","","","","","","","","","feedback","Thu Oct 09 2025 13:37:48 GMT-0400 (Eastern Daylight Time)","27773","1","7","","","","","","","","","",""
"","","","","","","","","","","","preload","116","663451","0.0-116.0","","","","","true","","","","","","","","","","","preload","","","1","8","false","[]","[]","[]","","","","","",""
"","","","","","","","","","","","canvas-keyboard-response","117","663764","0.0-117.0","null","null","","","","","","","","","","","","","","fixation","","","1","8","","","","","","","","","",""
"","","","","","","","","","","","canvas-keyboard-response","118","664075","0.0-118.0","null","null","","","","","","","","","","","","","","stimulus","","","1","8","","","","","","","","","",""
"","","","","","","","","","","","canvas-button-response","119","666101","0.0-119.0","2023","bridge","","","","","","","","","","","","","","perceptual","","","1","8","","","","","44","bridge","6","","1",""
"","","","","","","","","","","","canvas-button-response","120","666921","0.0-120.0","817","3","","","","","","","","","","","","","","confidence","","","1","8","","","","","","","","","","7"
"","","","","","","","","","","","html-keyboard-response","121","667923","0.0-121.0","null","null","","","","","","","","","","","","","","feedback","Thu Oct 09 2025 13:37:53 GMT-0400 (Eastern Daylight Time)","27773","1","8","","","","","","","","","",""
"","","","","","","","","","","","preload","122","667925","0.0-122.0","","","","","true","","","","","","","","","","","preload","","","1","9","false","[]","[]","[]","","","","","",""
"","","","","","","","","","","","canvas-keyboard-response","123","668233","0.0-123.0","null","null","","","","","","","","","","","","","","fixation","","","1","9","","","","","","","","","",""
"","","","","","","","","","","","canvas-keyboard-response","124","668547","0.0-124.0","null","null","","","","","","","","","","","","","","stimulus","","","1","9","","","","","","","","","",""
"","","","","","","","","","","","canvas-button-response","125","670734","0.0-125.0","2184","phone","","","","","","","","","","","","","","perceptual","","","1","9","","","","","54","flower","6","","0",""
"","","","","","","","","","","","canvas-button-response","126","671333","0.0-126.0","595","0","","","","","","","","","","","","","","confidence","","","1","9","","","","","","","","","","7"
"","","","","","","","","","","","html-keyboard-response","127","672341","0.0-127.0","null","null","","","","","","","","","","","","","","feedback","Thu Oct 09 2025 13:37:57 GMT-0400 (Eastern Daylight Time)","27773","1","9","","","","","","","","","",""
"","","","","","","","","","","","preload","128","672342","0.0-128.0","","","","","true","","","","","","","","","","","preload","","","1","10","false","[]","[]","[]","","","","","",""
"","","","","","","","","","","","canvas-keyboard-response","129","672649","0.0-129.0","null","null","","","","","","","","","","","","","","fixation","","","1","10","","","","","","","","","",""
"","","","","","","","","","","","canvas-keyboard-response","130","672955","0.0-130.0","null","null","","","","","","","","","","","","","","stimulus","","","1","10","","","","","","","","","",""
"","","","","","","","","","","","canvas-button-response","131","674396","0.0-131.0","1438","car","","","","","","","","","","","","","","perceptual","","","1","10","","","","","14","car","6","","1",""
"","","","","","","","","","","","canvas-button-response","132","675317","0.0-132.0","919","3","","","","","","","","","","","","","","confidence","","","1","10","","","","","","","","","","8"
"","","","","","","","","","","","html-keyboard-response","133","676321","0.0-133.0","null","null","","","","","","","","","","","","","","feedback","Thu Oct 09 2025 13:38:01 GMT-0400 (Eastern Daylight Time)","27773","1","10","","","","","","","","","",""
"","","","","","","","","","","","preload","134","676322","0.0-134.0","","","","","true","","","","","","","","","","","preload","","","1","11","false","[]","[]","[]","","","","","",""
"","","","","","","","","","","","canvas-keyboard-response","135","676632","0.0-135.0","null","null","","","","","","","","","","","","","","fixation","","","1","11","","","","","","","","","",""
"","","","","","","","","","","","canvas-keyboard-response","136","676940","0.0-136.0","null","null","","","","","","","","","","","","","","stimulus","","","1","11","","","","","","","","","",""
"","","","","","","","","","","","canvas-button-response","137","677949","0.0-137.0","1006","house","","","","","","","","","","","","","","perceptual","","","1","11","","","","","7","house","10","","1",""
"","","","","","","","","","","","canvas-button-response","138","679690","0.0-138.0","1739","9","","","","","","","","","","","","","","confidence","","","1","11","","","","","","","","","","9"
"","","","","","","","","","","","html-keyboard-response","139","680697","0.0-139.0","null","null","","","","","","","","","","","","","","feedback","Thu Oct 09 2025 13:38:06 GMT-0400 (Eastern Daylight Time)","27773","1","11","","","","","","","","","",""
"","","","","","","","","","","","preload","140","680699","0.0-140.0","","","","","true","","","","","","","","","","","preload","","","1","12","false","[]","[]","[]","","","","","",""
"","","","","","","","","","","","canvas-keyboard-response","141","681013","0.0-141.0","null","null","","","","","","","","","","","","","","fixation","","","1","12","","","","","","","","","",""
"","","","","","","","","","","","canvas-keyboard-response","142","681330","0.0-142.0","null","null","","","","","","","","","","","","","","stimulus","","","1","12","","","","","","","","","",""
"","","","","","","","","","","","canvas-button-response","143","682352","0.0-143.0","1019","cat","","","","","","","","","","","","","","perceptual","","","1","12","","","","","74","cat","6","","1",""
"","","","","","","","","","","","canvas-button-response","144","683173","0.0-144.0","819","5","","","","","","","","","","","","","","confidence","","","1","12","","","","","","","","","","10"
"","","","","","","","","","","","html-keyboard-response","145","684181","0.0-145.0","null","null","","","","","","","","","","","","","","feedback","Thu Oct 09 2025 13:38:09 GMT-0400 (Eastern Daylight Time)","27773","1","12","","","","","","","","","",""
"","","","","","","","","","","","preload","146","684182","0.0-146.0","","","","","true","","","","","","","","","","","preload","","","1","13","false","[]","[]","[]","","","","","",""
"","","","","","","","","","","","canvas-keyboard-response","147","684493","0.0-147.0","null","null","","","","","","","","","","","","","","fixation","","","1","13","","","","","","","","","",""
"","","","","","","","","","","","canvas-keyboard-response","148","684803","0.0-148.0","null","null","","","","","","","","","","","","","","stimulus","","","1","13","","","","","","","","","",""
"","","","","","","","","","","","canvas-button-response","149","686609","0.0-149.0","1803","elephant","","","","","","","","","","","","","","perceptual","","","1","13","","","","","87","elephant","10","","1",""
"","","","","","","","","","","","canvas-button-response","150","687539","0.0-150.0","929","2","","","","","","","","","","","","","","confidence","","","1","13","","","","","","","","","","11"
"","","","","","","","","","","","html-keyboard-response","151","688551","0.0-151.0","null","null","","","","","","","","","","","","","","feedback","Thu Oct 09 2025 13:38:14 GMT-0400 (Eastern Daylight Time)","27773","1","13","","","","","","","","","",""
"","","","","","","","","","","","preload","152","688552","0.0-152.0","","","","","true","","","","","","","","","","","preload","","","1","14","false","[]","[]","[]","","","","","",""
"","","","","","","","","","","","canvas-keyboard-response","153","688863","0.0-153.0","null","null","","","","","","","","","","","","","","fixation","","","1","14","","","","","","","","","",""
"","","","","","","","","","","","canvas-keyboard-response","154","689181","0.0-154.0","null","null","","","","","","","","","","","","","","stimulus","","","1","14","","","","","","","","","",""
"","","","","","","","","","","","canvas-button-response","155","690225","0.0-155.0","1042","cat","","","","","","","","","","","","","","perceptual","","","1","14","","","","","77","cat","10","","1",""
"","","","","","","","","","","","canvas-button-response","156","690946","0.0-156.0","718","5","","","","","","","","","","","","","","confidence","","","1","14","","","","","","","","","","12"
"","","","","","","","","","","","html-keyboard-response","157","691963","0.0-157.0","null","null","","","","","","","","","","","","","","feedback","Thu Oct 09 2025 13:38:17 GMT-0400 (Eastern Daylight Time)","27773","1","14","","","","","","","","","",""
"","","","","","","","","","","","preload","158","691964","0.0-158.0","","","","","true","","","","","","","","","","","preload","","","1","15","false","[]","[]","[]","","","","","",""
"","","","","","","","","","","","canvas-keyboard-response","159","692281","0.0-159.0","null","null","","","","","","","","","","","","","","fixation","","","1","15","","","","","","","","","",""
"","","","","","","","","","","","canvas-keyboard-response","160","692594","0.0-160.0","null","null","","","","","","","","","","","","","","stimulus","","","1","15","","","","","","","","","",""
"","","","","","","","","","","","canvas-button-response","161","694017","0.0-161.0","1420","knife","","","","","","","","","","","","","","perceptual","","","1","15","","","","","37","bed","10","","0",""
"","","","","","","","","","","","canvas-button-response","162","694639","0.0-162.0","620","3","","","","","","","","","","","","","","confidence","","","1","15","","","","","","","","","","12"
"","","","","","","","","","","","html-keyboard-response","163","695651","0.0-163.0","null","null","","","","","","","","","","","","","","feedback","Thu Oct 09 2025 13:38:21 GMT-0400 (Eastern Daylight Time)","27773","1","15","","","","","","","","","",""
"","","","","","","","","","","","preload","164","695652","0.0-164.0","","","","","true","","","","","","","","","","","preload","","","1","16","false","[]","[]","[]","","","","","",""
"","","","","","","","","","","","canvas-keyboard-response","165","695963","0.0-165.0","null","null","","","","","","","","","","","","","","fixation","","","1","16","","","","","","","","","",""
"","","","","","","","","","","","canvas-keyboard-response","166","696279","0.0-166.0","null","null","","","","","","","","","","","","","","stimulus","","","1","16","","","","","","","","","",""
"","","","","","","","","","","","canvas-button-response","167","698238","0.0-167.0","1955","elephant","","","","","","","","","","","","","","perceptual","","","1","16","","","","","84","elephant","6","","1",""
"","","","","","","","","","","","canvas-button-response","168","698972","0.0-168.0","730","5","","","","","","","","","","","","","","confidence","","","1","16","","","","","","","","","","13"
"","","","","","","","","","","","html-keyboard-response","169","699976","0.0-169.0","null","null","","","","","","","","","","","","","","feedback","Thu Oct 09 2025 13:38:25 GMT-0400 (Eastern Daylight Time)","27773","1","16","","","","","","","","","",""
"","","","","","","","","","","","preload","170","699977","0.0-170.0","","","","","true","","","","","","","","","","","preload","","","1","17","false","[]","[]","[]","","","","","",""
"","","","","","","","","","","","canvas-keyboard-response","171","700283","0.0-171.0","null","null","","","","","","","","","","","","","","fixation","","","1","17","","","","","","","","","",""
"","","","","","","","","","","","canvas-keyboard-response","172","700590","0.0-172.0","null","null","","","","","","","","","","","","","","stimulus","","","1","17","","","","","","","","","",""
"","","","","","","","","","","","canvas-button-response","173","701469","0.0-173.0","876","train","","","","","","","","","","","","","","perceptual","","","1","17","","","","","67","train","10","","1",""
"","","","","","","","","","","","canvas-button-response","174","702398","0.0-174.0","926","7","","","","","","","","","","","","","","confidence","","","1","17","","","","","","","","","","14"
"","","","","","","","","","","","html-keyboard-response","175","703410","0.0-175.0","null","null","","","","","","","","","","","","","","feedback","Thu Oct 09 2025 13:38:28 GMT-0400 (Eastern Daylight Time)","27773","1","17","","","","","","","","","",""
"","","","","","","","","","","","preload","176","703411","0.0-176.0","","","","","true","","","","","","","","","","","preload","","","1","18","false","[]","[]","[]","","","","","",""
"","","","","","","","","","","","canvas-keyboard-response","177","703717","0.0-177.0","null","null","","","","","","","","","","","","","","fixation","","","1","18","","","","","","","","","",""
"","","","","","","","","","","","canvas-keyboard-response","178","704023","0.0-178.0","null","null","","","","","","","","","","","","","","stimulus","","","1","18","","","","","","","","","",""
"","","","","","","","","","","","canvas-button-response","179","705104","0.0-179.0","1079","car","","","","","","","","","","","","","","perceptual","","","1","18","","","","","47","bridge","10","","0",""
"","","","","","","","","","","","canvas-button-response","180","705749","0.0-180.0","642","6","","","","","","","","","","","","","","confidence","","","1","18","","","","","","","","","","14"
"","","","","","","","","","","","html-keyboard-response","181","706768","0.0-181.0","null","null","","","","","","","","","","","","","","feedback","Thu Oct 09 2025 13:38:32 GMT-0400 (Eastern Daylight Time)","27773","1","18","","","","","","","","","",""
"","","","","","","","","","","","preload","182","706769","0.0-182.0","","","","","true","","","","","","","","","","","preload","","","1","19","false","[]","[]","[]","","","","","",""
"","","","","","","","","","","","canvas-keyboard-response","183","707080","0.0-183.0","null","null","","","","","","","","","","","","","","fixation","","","1","19","","","","","","","","","",""
"","","","","","","","","","","","canvas-keyboard-response","184","707390","0.0-184.0","null","null","","","","","","","","","","","","","","stimulus","","","1","19","","","","","","","","","",""
"","","","","","","","","","","","canvas-button-response","185","708288","0.0-185.0","896","house","","","","","","","","","","","","","","perceptual","","","1","19","","","","","4","house","6","","1",""
"","","","","","","","","","","","canvas-button-response","186","708963","0.0-186.0","671","7","","","","","","","","","","","","","","confidence","","","1","19","","","","","","","","","","15"
"","","","","","","","","","","","html-keyboard-response","187","709968","0.0-187.0","null","null","","","","","","","","","","","","","","feedback","Thu Oct 09 2025 13:38:35 GMT-0400 (Eastern Daylight Time)","27773","1","19","","","","","","","","","",""
"","","","","","","","","","","","html-button-response","188","722363","0.0-188.0","12392","0","","","","","","","","","","","","","","start experiment","Thu Oct 09 2025 13:38:36 GMT-0400 (Eastern Daylight Time)","27773","1","19","","","","","","","","","",""
"","","","","","","","","","","","preload","189","722365","0.0-189.0","","","","","true","","","","","","","","","","","preload","","","2","0","false","[]","[]","[]","","","","","",""
"","","","","","","","","","","","canvas-keyboard-response","190","722680","0.0-190.0","null","null","","","","","","","","","","","","","","fixation","","","2","0","","","","","","","","","",""
"","","","","","","","","","","","canvas-keyboard-response","191","722989","0.0-191.0","null","null","","","","","","","","","","","","","","stimulus","","","2","0","","","","","","","","","",""
"","","","","","","","","","","","canvas-button-response","192","724112","0.0-192.0","1120","house","","","","","","","","","","","","","","perceptual","","","2","0","","","","","7","house","6","0","1",""
"","","","","","","","","","","","canvas-button-response","193","725141","0.0-193.0","1028","9","","","","","","","","","","","","","","confidence","","","2","0","","","","","","","","","","1"
"","","","","","","","","","","","preload","194","725142","0.0-194.0","","","","","true","","","","","","","","","","","preload","","","2","1","false","[]","[]","[]","","","","","",""
"","","","","","","","","","","","canvas-keyboard-response","195","725458","0.0-195.0","null","null","","","","","","","","","","","","","","fixation","","","2","1","","","","","","","","","",""
"","","","","","","","","","","","canvas-keyboard-response","196","725775","0.0-196.0","null","null","","","","","","","","","","","","","","stimulus","","","2","1","","","","","","","","","",""
"","","","","","","","","","","","canvas-button-response","197","726707","0.0-197.0","930","bed","","","","","","","","","","","","","","perceptual","","","2","1","","","","","155","bed","10","0","1",""
"","","","","","","","","","","","canvas-button-response","198","727902","0.0-198.0","1192","8","","","","","","","","","","","","","","confidence","","","2","1","","","","","","","","","","2"
"","","","","","","","","","","","preload","199","727903","0.0-199.0","","","","","true","","","","","","","","","","","preload","","","2","2","false","[]","[]","[]","","","","","",""
"","","","","","","","","","","","canvas-keyboard-response","200","728207","0.0-200.0","null","null","","","","","","","","","","","","","","fixation","","","2","2","","","","","","","","","",""
"","","","","","","","","","","","canvas-keyboard-response","201","728513","0.0-201.0","null","null","","","","","","","","","","","","","","stimulus","","","2","2","","","","","","","","","",""
"","","","","","","","","","","","canvas-button-response","202","729267","0.0-202.0","752","bed","","","","","","","","","","","","","","perceptual","","","2","2","","","","","154","bed","10","0","1",""
"","","","","","","","","","","","canvas-button-response","203","729980","0.0-203.0","711","9","","","","","","","","","","","","","","confidence","","","2","2","","","","","","","","","","3"
"","","","","","","","","","","","preload","204","729981","0.0-204.0","","","","","true","","","","","","","","","","","preload","","","2","3","false","[]","[]","[]","","","","","",""
"","","","","","","","","","","","canvas-keyboard-response","205","730284","0.0-205.0","null","null","","","","","","","","","","","","","","fixation","","","2","3","","","","","","","","","",""
"","","","","","","","","","","","canvas-keyboard-response","206","730599","0.0-206.0","null","null","","","","","","","","","","","","","","stimulus","","","2","3","","","","","","","","","",""
"","","","","","","","","","","","canvas-button-response","207","731247","0.0-207.0","645","phone","","","","","","","","","","","","","","perceptual","","","2","3","","","","","97","phone","6","0","1",""
"","","","","","","","","","","","canvas-button-response","208","731880","0.0-208.0","631","9","","","","","","","","","","","","","","confidence","","","2","3","","","","","","","","","","4"
"","","","","","","","","","","","preload","209","731881","0.0-209.0","","","","","true","","","","","","","","","","","preload","","","2","4","false","[]","[]","[]","","","","","",""
"","","","","","","","","","","","canvas-keyboard-response","210","732185","0.0-210.0","null","null","","","","","","","","","","","","","","fixation","","","2","4","","","","","","","","","",""
"","","","","","","","","","","","canvas-keyboard-response","211","732499","0.0-211.0","null","null","","","","","","","","","","","","","","stimulus","","","2","4","","","","","","","","","",""
"","","","","","","","","","","","canvas-button-response","212","733156","0.0-212.0","654","knife","","","","","","","","","","","","","","perceptual","","","2","4","","","","","367","knife","6","0","1",""
"","","","","","","","","","","","canvas-button-response","213","734109","0.0-213.0","951","7","","","","","","","","","","","","","","confidence","","","2","4","","","","","","","","","","5"
"","","","","","","","","","","","preload","214","734111","0.0-214.0","","","","","true","","","","","","","","","","","preload","","","2","5","false","[]","[]","[]","","","","","",""
"","","","","","","","","","","","canvas-keyboard-response","215","734415","0.0-215.0","null","null","","","","","","","","","","","","","","fixation","","","2","5","","","","","","","","","",""
"","","","","","","","","","","","canvas-keyboard-response","216","734721","0.0-216.0","null","null","","","","","","","","","","","","","","stimulus","","","2","5","","","","","","","","","",""
"","","","","","","","","","","","canvas-button-response","217","735760","0.0-217.0","1035","car","","","","","","","","","","","","","","perceptual","","","2","5","","","","","268","train","10","0","0",""
"","","","","","","","","","","","canvas-button-response","218","736462","0.0-218.0","699","3","","","","","","","","","","","","","","confidence","","","2","5","","","","","","","","","","5"
"","","","","","","","","","","","preload","219","736463","0.0-219.0","","","","","true","","","","","","","","","","","preload","","","2","6","false","[]","[]","[]","","","","","",""
"","","","","","","","","","","","canvas-keyboard-response","220","736766","0.0-220.0","null","null","","","","","","","","","","","","","","fixation","","","2","6","","","","","","","","","",""
"","","","","","","","","","","","canvas-keyboard-response","221","737071","0.0-221.0","null","null","","","","","","","","","","","","","","stimulus","","","2","6","","","","","","","","","",""
"","","","","","","","","","","","canvas-button-response","222","738362","0.0-222.0","1288","flower","","","","","","","","","","","","","","perceptual","","","2","6","","","","","225","flower","10","0","1",""
"","","","","","","","","","","","canvas-button-response","223","738939","0.0-223.0","574","6","","","","","","","","","","","","","","confidence","","","2","6","","","","","","","","","","6"
"","","","","","","","","","","","preload","224","738941","0.0-224.0","","","","","true","","","","","","","","","","","preload","","","2","7","false","[]","[]","[]","","","","","",""
"","","","","","","","","","","","canvas-keyboard-response","225","739249","0.0-225.0","null","null","","","","","","","","","","","","","","fixation","","","2","7","","","","","","","","","",""
"","","","","","","","","","","","canvas-keyboard-response","226","739563","0.0-226.0","null","null","","","","","","","","","","","","","","stimulus","","","2","7","","","","","","","","","",""
"","","","","","","","","","","","canvas-button-response","227","740310","0.0-227.0","744","knife","","","","","","","","","","","","","","perceptual","","","2","7","","","","","374","knife","6","0","1",""
"","","","","","","","","","","","canvas-button-response","228","741270","0.0-228.0","958","6","","","","","","","","","","","","","","confidence","","","2","7","","","","","","","","","","7"
"","","","","","","","","","","","preload","229","741270","0.0-229.0","","","","","true","","","","","","","","","","","preload","","","2","8","false","[]","[]","[]","","","","","",""
"","","","","","","","","","","","canvas-keyboard-response","230","741584","0.0-230.0","null","null","","","","","","","","","","","","","","fixation","","","2","8","","","","","","","","","",""
"","","","","","","","","","","","canvas-keyboard-response","231","741897","0.0-231.0","null","null","","","","","","","","","","","","","","stimulus","","","2","8","","","","","","","","","",""
"","","","","","","","","","","","canvas-button-response","232","743218","0.0-232.0","1319","car","","","","","","","","","","","","","","perceptual","","","2","8","","","","","53","car","6","0","1",""
"","","","","","","","","","","","canvas-button-response","233","743789","0.0-233.0","567","10","","","","","","","","","","","","","","confidence","","","2","8","","","","","","","","","","8"
"","","","","","","","","","","","preload","234","743791","0.0-234.0","","","","","true","","","","","","","","","","","preload","","","2","9","false","[]","[]","[]","","","","","",""
"","","","","","","","","","","","canvas-keyboard-response","235","744103","0.0-235.0","null","null","","","","","","","","","","","","","","fixation","","","2","9","","","","","","","","","",""
"","","","","","","","","","","","canvas-keyboard-response","236","744411","0.0-236.0","null","null","","","","","","","","","","","","","","stimulus","","","2","9","","","","","","","","","",""
"","","","","","","","","","","","canvas-button-response","237","745064","0.0-237.0","649","train","","","","","","","","","","","","","","perceptual","","","2","9","","","","","243","train","6","0","1",""
"","","","","","","","","","","","canvas-button-response","238","746072","0.0-238.0","1005","10","","","","","","","","","","","","","","confidence","","","2","9","","","","","","","","","","9"
"","","","","","","","","","","","preload","239","746073","0.0-239.0","","","","","true","","","","","","","","","","","preload","","","2","10","false","[]","[]","[]","","","","","",""
"","","","","","","","","","","","canvas-keyboard-response","240","746385","0.0-240.0","null","null","","","","","","","","","","","","","","fixation","","","2","10","","","","","","","","","",""
"","","","","","","","","","","","canvas-keyboard-response","241","746692","0.0-241.0","null","null","","","","","","","","","","","","","","stimulus","","","2","10","","","","","","","","","",""
"","","","","","","","","","","","canvas-button-response","242","748285","0.0-242.0","1590","knife","","","","","","","","","","","","","","perceptual","","","2","10","","","","","396","knife","10","0","1",""
"","","","","","","","","","","","canvas-button-response","243","749038","0.0-243.0","751","5","","","","","","","","","","","","","","confidence","","","2","10","","","","","","","","","","10"
"","","","","","","","","","","","preload","244","749038","0.0-244.0","","","","","true","","","","","","","","","","","preload","","","2","11","false","[]","[]","[]","","","","","",""
"","","","","","","","","","","","canvas-keyboard-response","245","749344","0.0-245.0","null","null","","","","","","","","","","","","","","fixation","","","2","11","","","","","","","","","",""
"","","","","","","","","","","","canvas-keyboard-response","246","749659","0.0-246.0","null","null","","","","","","","","","","","","","","stimulus","","","2","11","","","","","","","","","",""
"","","","","","","","","","","","canvas-button-response","247","750473","0.0-247.0","811","house","","","","","","","","","","","","","","perceptual","","","2","11","","","","","5","house","6","0","1",""
"","","","","","","","","","","","canvas-button-response","248","751121","0.0-248.0","644","10","","","","","","","","","","","","","","confidence","","","2","11","","","","","","","","","","11"
"","","","","","","","","","","","preload","249","751123","0.0-249.0","","","","","true","","","","","","","","","","","preload","","","2","12","false","[]","[]","[]","","","","","",""
"","","","","","","","","","","","canvas-keyboard-response","250","751428","0.0-250.0","null","null","","","","","","","","","","","","","","fixation","","","2","12","","","","","","","","","",""
"","","","","","","","","","","","canvas-keyboard-response","251","751741","0.0-251.0","null","null","","","","","","","","","","","","","","stimulus","","","2","12","","","","","","","","","",""
"","","","","","","","","","","","canvas-button-response","252","752612","0.0-252.0","867","phone","","","","","","","","","","","","","","perceptual","","","2","12","","","","","85","phone","6","0","1",""
"","","","","","","","","","","","canvas-button-response","253","753467","0.0-253.0","852","5","","","","","","","","","","","","","","confidence","","","2","12","","","","","","","","","","12"
"","","","","","","","","","","","preload","254","753468","0.0-254.0","","","","","true","","","","","","","","","","","preload","","","2","13","false","[]","[]","[]","","","","","",""
"","","","","","","","","","","","canvas-keyboard-response","255","753775","0.0-255.0","null","null","","","","","","","","","","","","","","fixation","","","2","13","","","","","","","","","",""
"","","","","","","","","","","","canvas-keyboard-response","256","754090","0.0-256.0","null","null","","","","","","","","","","","","","","stimulus","","","2","13","","","","","","","","","",""
"","","","","","","","","","","","canvas-button-response","257","754884","0.0-257.0","791","bed","","","","","","","","","","","","","","perceptual","","","2","13","","","","","144","bed","10","0","1",""
"","","","","","","","","","","","canvas-button-response","258","755884","0.0-258.0","998","9","","","","","","","","","","","","","","confidence","","","2","13","","","","","","","","","","13"
"","","","","","","","","","","","preload","259","755886","0.0-259.0","","","","","true","","","","","","","","","","","preload","","","2","14","false","[]","[]","[]","","","","","",""
"","","","","","","","","","","","canvas-keyboard-response","260","756193","0.0-260.0","null","null","","","","","","","","","","","","","","fixation","","","2","14","","","","","","","","","",""
"","","","","","","","","","","","canvas-keyboard-response","261","756500","0.0-261.0","null","null","","","","","","","","","","","","","","stimulus","","","2","14","","","","","","","","","",""
"","","","","","","","","","","","canvas-button-response","262","757129","0.0-262.0","626","car","","","","","","","","","","","","","","perceptual","","","2","14","","","","","48","car","6","0","1",""
"","","","","","","","","","","","canvas-button-response","263","757661","0.0-263.0","528","10","","","","","","","","","","","","","","confidence","","","2","14","","","","","","","","","","14"
"","","","","","","","","","","","preload","264","757663","0.0-264.0","","","","","true","","","","","","","","","","","preload","","","2","15","false","[]","[]","[]","","","","","",""
"","","","","","","","","","","","canvas-keyboard-response","265","757971","0.0-265.0","null","null","","","","","","","","","","","","","","fixation","","","2","15","","","","","","","","","",""
"","","","","","","","","","","","canvas-keyboard-response","266","758290","0.0-266.0","null","null","","","","","","","","","","","","","","stimulus","","","2","15","","","","","","","","","",""
"","","","","","","","","","","","canvas-button-response","267","759158","0.0-267.0","865","flower","","","","","","","","","","","","","","perceptual","","","2","15","","","","","230","flower","10","0","1",""
"","","","","","","","","","","","canvas-button-response","268","760039","0.0-268.0","879","7","","","","","","","","","","","","","","confidence","","","2","15","","","","","","","","","","15"
"","","","","","","","","","","","preload","269","760040","0.0-269.0","","","","","true","","","","","","","","","","","preload","","","2","16","false","[]","[]","[]","","","","","",""
"","","","","","","","","","","","canvas-keyboard-response","270","760357","0.0-270.0","null","null","","","","","","","","","","","","","","fixation","","","2","16","","","","","","","","","",""
"","","","","","","","","","","","canvas-keyboard-response","271","760662","0.0-271.0","null","null","","","","","","","","","","","","","","stimulus","","","2","16","","","","","","","","","",""
"","","","","","","","","","","","canvas-button-response","272","761375","0.0-272.0","710","flower","","","","","","","","","","","","","","perceptual","","","2","16","","","","","205","flower","6","0","1",""
"","","","","","","","","","","","canvas-button-response","273","761911","0.0-273.0","534","7","","","","","","","","","","","","","","confidence","","","2","16","","","","","","","","","","16"
"","","","","","","","","","","","preload","274","761912","0.0-274.0","","","","","true","","","","","","","","","","","preload","","","2","17","false","[]","[]","[]","","","","","",""
"","","","","","","","","","","","canvas-keyboard-response","275","762222","0.0-275.0","null","null","","","","","","","","","","","","","","fixation","","","2","17","","","","","","","","","",""
"","","","","","","","","","","","canvas-keyboard-response","276","762539","0.0-276.0","null","null","","","","","","","","","","","","","","stimulus","","","2","17","","","","","","","","","",""
"","","","","","","","","","","","canvas-button-response","277","763533","0.0-277.0","991","bridge","","","","","","","","","","","","","","perceptual","","","2","17","","","","","168","bridge","6","0","1",""
"","","","","","","","","","","","canvas-button-response","278","764893","0.0-278.0","1357","10","","","","","","","","","","","","","","confidence","","","2","17","","","","","","","","","","17"
"","","","","","","","","","","","preload","279","764894","0.0-279.0","","","","","true","","","","","","","","","","","preload","","","2","18","false","[]","[]","[]","","","","","",""
"","","","","","","","","","","","canvas-keyboard-response","280","765203","0.0-280.0","null","null","","","","","","","","","","","","","","fixation","","","2","18","","","","","","","","","",""
"","","","","","","","","","","","canvas-keyboard-response","281","765510","0.0-281.0","null","null","","","","","","","","","","","","","","stimulus","","","2","18","","","","","","","","","",""
"","","","","","","","","","","","canvas-button-response","282","766375","0.0-282.0","861","house","","","","","","","","","","","","","","perceptual","","","2","18","","","","","8","house","6","0","1",""
"","","","","","","","","","","","canvas-button-response","283","767152","0.0-283.0","774","10","","","","","","","","","","","","","","confidence","","","2","18","","","","","","","","","","18"
"","","","","","","","","","","","preload","284","767152","0.0-284.0","","","","","true","","","","","","","","","","","preload","","","2","19","false","[]","[]","[]","","","","","",""
"","","","","","","","","","","","canvas-keyboard-response","285","767470","0.0-285.0","null","null","","","","","","","","","","","","","","fixation","","","2","19","","","","","","","","","",""
"","","","","","","","","","","","canvas-keyboard-response","286","767788","0.0-286.0","null","null","","","","","","","","","","","","","","stimulus","","","2","19","","","","","","","","","",""
"","","","","","","","","","","","canvas-button-response","287","770004","0.0-287.0","2214","bed","","","","","","","","","","","","","","perceptual","","","2","19","","","","","292","cat","6","0","0",""
"","","","","","","","","","","","canvas-button-response","288","770637","0.0-288.0","631","8","","","","","","","","","","","","","","confidence","","","2","19","","","","","","","","","","18"
"","","","","","","","","","","","preload","289","770638","0.0-289.0","","","","","true","","","","","","","","","","","preload","","","2","20","false","[]","[]","[]","","","","","",""
"","","","","","","","","","","","canvas-keyboard-response","290","770952","0.0-290.0","null","null","","","","","","","","","","","","","","fixation","","","2","20","","","","","","","","","",""
"","","","","","","","","","","","canvas-keyboard-response","291","771259","0.0-291.0","null","null","","","","","","","","","","","","","","stimulus","","","2","20","","","","","","","","","",""
"","","","","","","","","","","","canvas-button-response","292","772131","0.0-292.0","869","house","","","","","","","","","","","","","","perceptual","","","2","20","","","","","26","house","10","0","1",""
"","","","","","","","","","","","canvas-button-response","293","773744","0.0-293.0","1612","8","","","","","","","","","","","","","","confidence","","","2","20","","","","","","","","","","19"
"","","","","","","","","","","","preload","294","773745","0.0-294.0","","","","","true","","","","","","","","","","","preload","","","2","21","false","[]","[]","[]","","","","","",""
"","","","","","","","","","","","canvas-keyboard-response","295","774059","0.0-295.0","null","null","","","","","","","","","","","","","","fixation","","","2","21","","","","","","","","","",""
"","","","","","","","","","","","canvas-keyboard-response","296","774373","0.0-296.0","null","null","","","","","","","","","","","","","","stimulus","","","2","21","","","","","","","","","",""
"","","","","","","","","","","","canvas-button-response","297","774981","0.0-297.0","605","flower","","","","","","","","","","","","","","perceptual","","","2","21","","","","","217","flower","6","0","1",""
"","","","","","","","","","","","canvas-button-response","298","775507","0.0-298.0","523","9","","","","","","","","","","","","","","confidence","","","2","21","","","","","","","","","","20"
"","","","","","","","","","","","preload","299","775507","0.0-299.0","","","","","true","","","","","","","","","","","preload","","","2","22","false","[]","[]","[]","","","","","",""
"","","","","","","","","","","","canvas-keyboard-response","300","775813","0.0-300.0","null","null","","","","","","","","","","","","","","fixation","","","2","22","","","","","","","","","",""
"","","","","","","","","","","","canvas-keyboard-response","301","776125","0.0-301.0","null","null","","","","","","","","","","","","","","stimulus","","","2","22","","","","","","","","","",""
"","","","","","","","","","","","canvas-button-response","302","776950","0.0-302.0","823","bed","","","","","","","","","","","","","","perceptual","","","2","22","","","","","131","bed","6","0","1",""
"","","","","","","","","","","","canvas-button-response","303","777474","0.0-303.0","522","10","","","","","","","","","","","","","","confidence","","","2","22","","","","","","","","","","21"
"","","","","","","","","","","","preload","304","777475","0.0-304.0","","","","","true","","","","","","","","","","","preload","","","2","23","false","[]","[]","[]","","","","","",""
"","","","","","","","","","","","canvas-keyboard-response","305","777788","0.0-305.0","null","null","","","","","","","","","","","","","","fixation","","","2","23","","","","","","","","","",""
"","","","","","","","","","","","canvas-keyboard-response","306","778106","0.0-306.0","null","null","","","","","","","","","","","","","","stimulus","","","2","23","","","","","","","","","",""
"","","","","","","","","","","","canvas-button-response","307","778691","0.0-307.0","582","house","","","","","","","","","","","","","","perceptual","","","2","23","","","","","11","house","6","0","1",""
"","","","","","","","","","","","canvas-button-response","308","779414","0.0-308.0","721","10","","","","","","","","","","","","","","confidence","","","2","23","","","","","","","","","","22"
"","","","","","","","","","","","preload","309","779415","0.0-309.0","","","","","true","","","","","","","","","","","preload","","","2","24","false","[]","[]","[]","","","","","",""
"","","","","","","","","","","","canvas-keyboard-response","310","779731","0.0-310.0","null","null","","","","","","","","","","","","","","fixation","","","2","24","","","","","","","","","",""
"","","","","","","","","","","","canvas-keyboard-response","311","780049","0.0-311.0","null","null","","","","","","","","","","","","","","stimulus","","","2","24","","","","","","","","","",""
"","","","","","","","","","","","canvas-button-response","312","781474","0.0-312.0","1422","bridge","","","","","","","","","","","","","","perceptual","","","2","24","","","","","180","bridge","10","0","1",""
"","","","","","","","","","","","canvas-button-response","313","782105","0.0-313.0","629","3","","","","","","","","","","","","","","confidence","","","2","24","","","","","","","","","","23"
"","","","","","","","","","","","preload","314","782106","0.0-314.0","","","","","true","","","","","","","","","","","preload","","","2","25","false","[]","[]","[]","","","","","",""
"","","","","","","","","","","","canvas-keyboard-response","315","782419","0.0-315.0","null","null","","","","","","","","","","","","","","fixation","","","2","25","","","","","","","","","",""
"","","","","","","","","","","","canvas-keyboard-response","316","782732","0.0-316.0","null","null","","","","","","","","","","","","","","stimulus","","","2","25","","","","","","","","","",""
"","","","","","","","","","","","canvas-button-response","317","783619","0.0-317.0","884","car","","","","","","","","","","","","","","perceptual","","","2","25","","","","","262","train","10","0","0",""
"","","","","","","","","","","","canvas-button-response","318","784258","0.0-318.0","636","10","","","","","","","","","","","","","","confidence","","","2","25","","","","","","","","","","23"
"","","","","","","","","","","","preload","319","784260","0.0-319.0","","","","","true","","","","","","","","","","","preload","","","2","26","false","[]","[]","[]","","","","","",""
"","","","","","","","","","","","canvas-keyboard-response","320","784563","0.0-320.0","null","null","","","","","","","","","","","","","","fixation","","","2","26","","","","","","","","","",""
"","","","","","","","","","","","canvas-keyboard-response","321","784878","0.0-321.0","null","null","","","","","","","","","","","","","","stimulus","","","2","26","","","","","","","","","",""
"","","","","","","","","","","","canvas-button-response","322","785525","0.0-322.0","645","elephant","","","","","","","","","","","","","","perceptual","","","2","26","","","","","351","elephant","10","0","1",""
"","","","","","","","","","","","canvas-button-response","323","786011","0.0-323.0","484","10","","","","","","","","","","","","","","confidence","","","2","26","","","","","","","","","","24"
"","","","","","","","","","","","preload","324","786012","0.0-324.0","","","","","true","","","","","","","","","","","preload","","","2","27","false","[]","[]","[]","","","","","",""
"","","","","","","","","","","","canvas-keyboard-response","325","786316","0.0-325.0","null","null","","","","","","","","","","","","","","fixation","","","2","27","","","","","","","","","",""
"","","","","","","","","","","","canvas-keyboard-response","326","786632","0.0-326.0","null","null","","","","","","","","","","","","","","stimulus","","","2","27","","","","","","","","","",""
"","","","","","","","","","","","canvas-button-response","327","787254","0.0-327.0","618","train","","","","","","","","","","","","","","perceptual","","","2","27","","","","","250","train","6","0","1",""
"","","","","","","","","","","","canvas-button-response","328","787715","0.0-328.0","458","10","","","","","","","","","","","","","","confidence","","","2","27","","","","","","","","","","25"
"","","","","","","","","","","","preload","329","787715","0.0-329.0","","","","","true","","","","","","","","","","","preload","","","2","28","false","[]","[]","[]","","","","","",""
"","","","","","","","","","","","canvas-keyboard-response","330","788022","0.0-330.0","null","null","","","","","","","","","","","","","","fixation","","","2","28","","","","","","","","","",""
"","","","","","","","","","","","canvas-keyboard-response","331","788332","0.0-331.0","null","null","","","","","","","","","","","","","","stimulus","","","2","28","","","","","","","","","",""
"","","","","","","","","","","","canvas-button-response","332","790579","0.0-332.0","2244","house","","","","","","","","","","","","","","perceptual","","","2","28","","","","","322","elephant","6","0","0",""
"","","","","","","","","","","","canvas-button-response","333","791145","0.0-333.0","564","8","","","","","","","","","","","","","","confidence","","","2","28","","","","","","","","","","25"
"","","","","","","","","","","","preload","334","791146","0.0-334.0","","","","","true","","","","","","","","","","","preload","","","2","29","false","[]","[]","[]","","","","","",""
"","","","","","","","","","","","canvas-keyboard-response","335","791454","0.0-335.0","null","null","","","","","","","","","","","","","","fixation","","","2","29","","","","","","","","","",""
"","","","","","","","","","","","canvas-keyboard-response","336","791764","0.0-336.0","null","null","","","","","","","","","","","","","","stimulus","","","2","29","","","","","","","","","",""
"","","","","","","","","","","","canvas-button-response","337","792882","0.0-337.0","1115","phone","","","","","","","","","","","","","","perceptual","","","2","29","","","","","98","phone","6","0","1",""
"","","","","","","","","","","","canvas-button-response","338","793377","0.0-338.0","493","9","","","","","","","","","","","","","","confidence","","","2","29","","","","","","","","","","26"
"","","","","","","","","","","","preload","339","793378","0.0-339.0","","","","","true","","","","","","","","","","","preload","","","2","30","false","[]","[]","[]","","","","","",""
"","","","","","","","","","","","canvas-keyboard-response","340","793690","0.0-340.0","null","null","","","","","","","","","","","","","","fixation","","","2","30","","","","","","","","","",""
"","","","","","","","","","","","canvas-keyboard-response","341","794001","0.0-341.0","null","null","","","","","","","","","","","","","","stimulus","","","2","30","","","","","","","","","",""
"","","","","","","","","","","","canvas-button-response","342","795397","0.0-342.0","1393","cat","","","","","","","","","","","","","","perceptual","","","2","30","","","","","321","elephant","6","0","0",""
"","","","","","","","","","","","canvas-button-response","343","796572","0.0-343.0","1174","2","","","","","","","","","","","","","","confidence","","","2","30","","","","","","","","","","26"
"","","","","","","","","","","","preload","344","796573","0.0-344.0","","","","","true","","","","","","","","","","","preload","","","2","31","false","[]","[]","[]","","","","","",""
"","","","","","","","","","","","canvas-keyboard-response","345","796881","0.0-345.0","null","null","","","","","","","","","","","","","","fixation","","","2","31","","","","","","","","","",""
"","","","","","","","","","","","canvas-keyboard-response","346","797184","0.0-346.0","null","null","","","","","","","","","","","","","","stimulus","","","2","31","","","","","","","","","",""
"","","","","","","","","","","","canvas-button-response","347","798086","0.0-347.0","900","bed","","","","","","","","","","","","","","perceptual","","","2","31","","","","","153","bed","10","0","1",""
"","","","","","","","","","","","canvas-button-response","348","798689","0.0-348.0","601","9","","","","","","","","","","","","","","confidence","","","2","31","","","","","","","","","","27"
"","","","","","","","","","","","preload","349","798690","0.0-349.0","","","","","true","","","","","","","","","","","preload","","","2","32","false","[]","[]","[]","","","","","",""
"","","","","","","","","","","","canvas-keyboard-response","350","799001","0.0-350.0","null","null","","","","","","","","","","","","","","fixation","","","2","32","","","","","","","","","",""
"","","","","","","","","","","","canvas-keyboard-response","351","799303","0.0-351.0","null","null","","","","","","","","","","","","","","stimulus","","","2","32","","","","","","","","","",""
"","","","","","","","","","","","canvas-button-response","352","801483","0.0-352.0","2176","bed","","","","","","","","","","","","","","perceptual","","","2","32","","","","","27","house","10","0","0",""
"","","","","","","","","","","","canvas-button-response","353","803290","0.0-353.0","1805","1","","","","","","","","","","","","","","confidence","","","2","32","","","","","","","","","","27"
"","","","","","","","","","","","preload","354","803291","0.0-354.0","","","","","true","","","","","","","","","","","preload","","","2","33","false","[]","[]","[]","","","","","",""
"","","","","","","","","","","","canvas-keyboard-response","355","803593","0.0-355.0","null","null","","","","","","","","","","","","","","fixation","","","2","33","","","","","","","","","",""
"","","","","","","","","","","","canvas-keyboard-response","356","803907","0.0-356.0","null","null","","","","","","","","","","","","","","stimulus","","","2","33","","","","","","","","","",""
"","","","","","","","","","","","canvas-button-response","357","807063","0.0-357.0","3153","elephant","","","","","","","","","","","","","","perceptual","","","2","33","","","","","336","elephant","6","0","1",""
"","","","","","","","","","","","canvas-button-response","358","807944","0.0-358.0","880","4","","","","","","","","","","","","","","confidence","","","2","33","","","","","","","","","","28"
"","","","","","","","","","","","preload","359","807945","0.0-359.0","","","","","true","","","","","","","","","","","preload","","","2","34","false","[]","[]","[]","","","","","",""
"","","","","","","","","","","","canvas-keyboard-response","360","808257","0.0-360.0","null","null","","","","","","","","","","","","","","fixation","","","2","34","","","","","","","","","",""
"","","","","","","","","","","","canvas-keyboard-response","361","808563","0.0-361.0","null","null","","","","","","","","","","","","","","stimulus","","","2","34","","","","","","","","","",""
"","","","","","","","","","","","canvas-button-response","362","809690","0.0-362.0","1123","train","","","","","","","","","","","","","","perceptual","","","2","34","","","","","186","bridge","10","0","0",""
"","","","","","","","","","","","canvas-button-response","363","810779","0.0-363.0","1085","4","","","","","","","","","","","","","","confidence","","","2","34","","","","","","","","","","28"
"","","","","","","","","","","","preload","364","810781","0.0-364.0","","","","","true","","","","","","","","","","","preload","","","2","35","false","[]","[]","[]","","","","","",""
"","","","","","","","","","","","canvas-keyboard-response","365","811093","0.0-365.0","null","null","","","","","","","","","","","","","","fixation","","","2","35","","","","","","","","","",""
"","","","","","","","","","","","canvas-keyboard-response","366","811409","0.0-366.0","null","null","","","","","","","","","","","","","","stimulus","","","2","35","","","","","","","","","",""
"","","","","","","","","","","","canvas-button-response","367","812168","0.0-367.0","756","cat","","","","","","","","","","","","","","perceptual","","","2","35","","","","","399","knife","10","0","0",""
"","","","","","","","","","","","canvas-button-response","368","812710","0.0-368.0","538","10","","","","","","","","","","","","","","confidence","","","2","35","","","","","","","","","","28"
"","","","","","","","","","","","preload","369","812711","0.0-369.0","","","","","true","","","","","","","","","","","preload","","","2","36","false","[]","[]","[]","","","","","",""
"","","","","","","","","","","","canvas-keyboard-response","370","813020","0.0-370.0","null","null","","","","","","","","","","","","","","fixation","","","2","36","","","","","","","","","",""
"","","","","","","","","","","","canvas-keyboard-response","371","813326","0.0-371.0","null","null","","","","","","","","","","","","","","stimulus","","","2","36","","","","","","","","","",""
"","","","","","","","","","","","canvas-button-response","372","814032","0.0-372.0","703","car","","","","","","","","","","","","","","perceptual","","","2","36","","","","","61","car","10","0","1",""
"","","","","","","","","","","","canvas-button-response","373","814600","0.0-373.0","563","10","","","","","","","","","","","","","","confidence","","","2","36","","","","","","","","","","29"
"","","","","","","","","","","","preload","374","814602","0.0-374.0","","","","","true","","","","","","","","","","","preload","","","2","37","false","[]","[]","[]","","","","","",""
"","","","","","","","","","","","canvas-keyboard-response","375","814913","0.0-375.0","null","null","","","","","","","","","","","","","","fixation","","","2","37","","","","","","","","","",""
"","","","","","","","","","","","canvas-keyboard-response","376","815219","0.0-376.0","null","null","","","","","","","","","","","","","","stimulus","","","2","37","","","","","","","","","",""
"","","","","","","","","","","","canvas-button-response","377","817438","0.0-377.0","2216","house","","","","","","","","","","","","","","perceptual","","","2","37","","","","","35","house","10","0","1",""
"","","","","","","","","","","","canvas-button-response","378","818094","0.0-378.0","654","8","","","","","","","","","","","","","","confidence","","","2","37","","","","","","","","","","30"
"","","","","","","","","","","","preload","379","818095","0.0-379.0","","","","","true","","","","","","","","","","","preload","","","2","38","false","[]","[]","[]","","","","","",""
"","","","","","","","","","","","canvas-keyboard-response","380","818404","0.0-380.0","null","null","","","","","","","","","","","","","","fixation","","","2","38","","","","","","","","","",""
"","","","","","","","","","","","canvas-keyboard-response","381","818711","0.0-381.0","null","null","","","","","","","","","","","","","","stimulus","","","2","38","","","","","","","","","",""
"","","","","","","","","","","","canvas-button-response","382","819394","0.0-382.0","680","train","","","","","","","","","","","","","","perceptual","","","2","38","","","","","246","train","6","0","1",""
"","","","","","","","","","","","canvas-button-response","383","819792","0.0-383.0","395","10","","","","","","","","","","","","","","confidence","","","2","38","","","","","","","","","","31"
"","","","","","","","","","","","preload","384","819793","0.0-384.0","","","","","true","","","","","","","","","","","preload","","","2","39","false","[]","[]","[]","","","","","",""
"","","","","","","","","","","","canvas-keyboard-response","385","820102","0.0-385.0","null","null","","","","","","","","","","","","","","fixation","","","2","39","","","","","","","","","",""
"","","","","","","","","","","","canvas-keyboard-response","386","820405","0.0-386.0","null","null","","","","","","","","","","","","","","stimulus","","","2","39","","","","","","","","","",""
"","","","","","","","","","","","canvas-button-response","387","821306","0.0-387.0","897","elephant","","","","","","","","","","","","","","perceptual","","","2","39","","","","","192","bridge","10","0","0",""
"","","","","","","","","","","","canvas-button-response","388","822219","0.0-388.0","910","3","","","","","","","","","","","","","","confidence","","","2","39","","","","","","","","","","31"
"","","","","","","","","","","","preload","389","822220","0.0-389.0","","","","","true","","","","","","","","","","","preload","","","2","40","false","[]","[]","[]","","","","","",""
"","","","","","","","","","","","canvas-keyboard-response","390","822524","0.0-390.0","null","null","","","","","","","","","","","","","","fixation","","","2","40","","","","","","","","","",""
"","","","","","","","","","","","canvas-keyboard-response","391","822834","0.0-391.0","null","null","","","","","","","","","","","","","","stimulus","","","2","40","","","","","","","","","",""
"","","","","","","","","","","","canvas-button-response","392","823655","0.0-392.0","818","car","","","","","","","","","","","","","","perceptual","","","2","40","","","","","381","knife","10","0","0",""
"","","","","","","","","","","","canvas-button-response","393","824414","0.0-393.0","757","3","","","","","","","","","","","","","","confidence","","","2","40","","","","","","","","","","31"
"","","","","","","","","","","","preload","394","824416","0.0-394.0","","","","","true","","","","","","","","","","","preload","","","2","41","false","[]","[]","[]","","","","","",""
"","","","","","","","","","","","canvas-keyboard-response","395","824722","0.0-395.0","null","null","","","","","","","","","","","","","","fixation","","","2","41","","","","","","","","","",""
"","","","","","","","","","","","canvas-keyboard-response","396","825031","0.0-396.0","null","null","","","","","","","","","","","","","","stimulus","","","2","41","","","","","","","","","",""
"","","","","","","","","","","","canvas-button-response","397","830073","0.0-397.0","5039","phone","","","","","","","","","","","","","","perceptual","","","2","41","","","","","305","cat","10","0","0",""
"","","","","","","","","","","","canvas-button-response","398","831626","0.0-398.0","1552","1","","","","","","","","","","","","","","confidence","","","2","41","","","","","","","","","","31"
"","","","","","","","","","","","preload","399","831627","0.0-399.0","","","","","true","","","","","","","","","","","preload","","","2","42","false","[]","[]","[]","","","","","",""
"","","","","","","","","","","","canvas-keyboard-response","400","831938","0.0-400.0","null","null","","","","","","","","","","","","","","fixation","","","2","42","","","","","","","","","",""
"","","","","","","","","","","","canvas-keyboard-response","401","832253","0.0-401.0","null","null","","","","","","","","","","","","","","stimulus","","","2","42","","","","","","","","","",""
"","","","","","","","","","","","canvas-button-response","402","833159","0.0-402.0","904","cat","","","","","","","","","","","","","","perceptual","","","2","42","","","","","303","cat","10","0","1",""
"","","","","","","","","","","","canvas-button-response","403","833942","0.0-403.0","780","7","","","","","","","","","","","","","","confidence","","","2","42","","","","","","","","","","32"
"","","","","","","","","","","","preload","404","833943","0.0-404.0","","","","","true","","","","","","","","","","","preload","","","2","43","false","[]","[]","[]","","","","","",""
"","","","","","","","","","","","canvas-keyboard-response","405","834260","0.0-405.0","null","null","","","","","","","","","","","","","","fixation","","","2","43","","","","","","","","","",""
"","","","","","","","","","","","canvas-keyboard-response","406","834578","0.0-406.0","null","null","","","","","","","","","","","","","","stimulus","","","2","43","","","","","","","","","",""
"","","","","","","","","","","","canvas-button-response","407","835207","0.0-407.0","627","elephant","","","","","","","","","","","","","","perceptual","","","2","43","","","","","345","elephant","10","0","1",""
"","","","","","","","","","","","canvas-button-response","408","835802","0.0-408.0","592","8","","","","","","","","","","","","","","confidence","","","2","43","","","","","","","","","","33"
"","","","","","","","","","","","preload","409","835803","0.0-409.0","","","","","true","","","","","","","","","","","preload","","","2","44","false","[]","[]","[]","","","","","",""
"","","","","","","","","","","","canvas-keyboard-response","410","836107","0.0-410.0","null","null","","","","","","","","","","","","","","fixation","","","2","44","","","","","","","","","",""
"","","","","","","","","","","","canvas-keyboard-response","411","836413","0.0-411.0","null","null","","","","","","","","","","","","","","stimulus","","","2","44","","","","","","","","","",""
"","","","","","","","","","","","canvas-button-response","412","841395","0.0-412.0","4979","phone","","","","","","","","","","","","","","perceptual","","","2","44","","","","","150","bed","10","0","0",""
"","","","","","","","","","","","canvas-button-response","413","842259","0.0-413.0","861","2","","","","","","","","","","","","","","confidence","","","2","44","","","","","","","","","","33"
"","","","","","","","","","","","preload","414","842261","0.0-414.0","","","","","true","","","","","","","","","","","preload","","","2","45","false","[]","[]","[]","","","","","",""
"","","","","","","","","","","","canvas-keyboard-response","415","842572","0.0-415.0","null","null","","","","","","","","","","","","","","fixation","","","2","45","","","","","","","","","",""
"","","","","","","","","","","","canvas-keyboard-response","416","842875","0.0-416.0","null","null","","","","","","","","","","","","","","stimulus","","","2","45","","","","","","","","","",""
"","","","","","","","","","","","canvas-button-response","417","843527","0.0-417.0","648","flower","","","","","","","","","","","","","","perceptual","","","2","45","","","","","238","flower","10","0","1",""
"","","","","","","","","","","","canvas-button-response","418","844426","0.0-418.0","895","10","","","","","","","","","","","","","","confidence","","","2","45","","","","","","","","","","34"
"","","","","","","","","","","","preload","419","844427","0.0-419.0","","","","","true","","","","","","","","","","","preload","","","2","46","false","[]","[]","[]","","","","","",""
"","","","","","","","","","","","canvas-keyboard-response","420","844733","0.0-420.0","null","null","","","","","","","","","","","","","","fixation","","","2","46","","","","","","","","","",""
"","","","","","","","","","","","canvas-keyboard-response","421","845036","0.0-421.0","null","null","","","","","","","","","","","","","","stimulus","","","2","46","","","","","","","","","",""
"","","","","","","","","","","","canvas-button-response","422","845882","0.0-422.0","842","house","","","","","","","","","","","","","","perceptual","","","2","46","","","","","22","house","10","0","1",""
"","","","","","","","","","","","canvas-button-response","423","846511","0.0-423.0","626","8","","","","","","","","","","","","","","confidence","","","2","46","","","","","","","","","","35"
"","","","","","","","","","","","preload","424","846512","0.0-424.0","","","","","true","","","","","","","","","","","preload","","","2","47","false","[]","[]","[]","","","","","",""
"","","","","","","","","","","","canvas-keyboard-response","425","846820","0.0-425.0","null","null","","","","","","","","","","","","","","fixation","","","2","47","","","","","","","","","",""
"","","","","","","","","","","","canvas-keyboard-response","426","847127","0.0-426.0","null","null","","","","","","","","","","","","","","stimulus","","","2","47","","","","","","","","","",""
"","","","","","","","","","","","canvas-button-response","427","848320","0.0-427.0","1189","house","","","","","","","","","","","","","","perceptual","","","2","47","","","","","39","house","10","0","1",""
"","","","","","","","","","","","canvas-button-response","428","848927","0.0-428.0","603","7","","","","","","","","","","","","","","confidence","","","2","47","","","","","","","","","","36"
"","","","","","","","","","","","preload","429","848928","0.0-429.0","","","","","true","","","","","","","","","","","preload","","","2","48","false","[]","[]","[]","","","","","",""
"","","","","","","","","","","","canvas-keyboard-response","430","849232","0.0-430.0","null","null","","","","","","","","","","","","","","fixation","","","2","48","","","","","","","","","",""
"","","","","","","","","","","","canvas-keyboard-response","431","849540","0.0-431.0","null","null","","","","","","","","","","","","","","stimulus","","","2","48","","","","","","","","","",""
"","","","","","","","","","","","canvas-button-response","432","851092","0.0-432.0","1550","knife","","","","","","","","","","","","","","perceptual","","","2","48","","","","","236","flower","10","0","0",""
"","","","","","","","","","","","canvas-button-response","433","851607","0.0-433.0","513","0","","","","","","","","","","","","","","confidence","","","2","48","","","","","","","","","","36"
"","","","","","","","","","","","preload","434","851608","0.0-434.0","","","","","true","","","","","","","","","","","preload","","","2","49","false","[]","[]","[]","","","","","",""
"","","","","","","","","","","","canvas-keyboard-response","435","851914","0.0-435.0","null","null","","","","","","","","","","","","","","fixation","","","2","49","","","","","","","","","",""
"","","","","","","","","","","","canvas-keyboard-response","436","852218","0.0-436.0","null","null","","","","","","","","","","","","","","stimulus","","","2","49","","","","","","","","","",""
"","","","","","","","","","","","canvas-button-response","437","853341","0.0-437.0","1120","bed","","","","","","","","","","","","","","perceptual","","","2","49","","","","","123","bed","6","0","1",""
"","","","","","","","","","","","canvas-button-response","438","854163","0.0-438.0","819","7","","","","","","","","","","","","","","confidence","","","2","49","","","","","","","","","","37"
"","","","","","","","","","","","html-button-response","439","862867","0.0-439.0","8701","0","","","","","","","","","","","","","","<p style=""font-size:20px;color:#000000"">You got 37 out of 50 trials correct in this block.<br><br>You have completed 6% of the experiment.<br><br>Take a short break.<br><br>When you are ready, click Continue to proceed.","","","2","49","","","","","","","","","",""
"","","","","","","","","","","","html-keyboard-response","440","863883","0.0-440.0","null","null","","","","","","","","","","","","","","<p style=""font-size:32px;color:#000000""><br><br> RUN: &nbsp 1/4 <br><br> BLOCK: 2/4 ","","","2","49","","","","","","","","","",""
"","","","","","","","","","","","preload","441","863884","0.0-441.0","","","","","true","","","","","","","","","","","preload","","","2","50","false","[]","[]","[]","","","","","",""
"","","","","","","","","","","","canvas-keyboard-response","442","864201","0.0-442.0","null","null","","","","","","","","","","","","","","fixation","","","2","50","","","","","","","","","",""
"","","","","","","","","","","","canvas-keyboard-response","443","864510","0.0-443.0","null","null","","","","","","","","","","","","","","stimulus","","","2","50","","","","","","","","","",""
"","","","","","","","","","","","canvas-button-response","444","865810","0.0-444.0","1294","cat","","","","","","","","","","","","","","perceptual","","","2","50","","","","","306","cat","10","0","1",""
"","","","","","","","","","","","canvas-button-response","445","866443","0.0-445.0","628","6","","","","","","","","","","","","","","confidence","","","2","50","","","","","","","","","","1"
"","","","","","","","","","","","preload","446","866445","0.0-446.0","","","","","true","","","","","","","","","","","preload","","","2","51","false","[]","[]","[]","","","","","",""
"","","","","","","","","","","","canvas-keyboard-response","447","866754","0.0-447.0","null","null","","","","","","","","","","","","","","fixation","","","2","51","","","","","","","","","",""
"","","","","","","","","","","","canvas-keyboard-response","448","867070","0.0-448.0","null","null","","","","","","","","","","","","","","stimulus","","","2","51","","","","","","","","","",""
"","","","","","","","","","","","canvas-button-response","449","867958","0.0-449.0","885","house","","","","","","","","","","","","","","perceptual","","","2","51","","","","","2","house","6","0","1",""
"","","","","","","","","","","","canvas-button-response","450","868943","0.0-450.0","982","9","","","","","","","","","","","","","","confidence","","","2","51","","","","","","","","","","2"
"","","","","","","","","","","","preload","451","868944","0.0-451.0","","","","","true","","","","","","","","","","","preload","","","2","52","false","[]","[]","[]","","","","","",""
"","","","","","","","","","","","canvas-keyboard-response","452","869256","0.0-452.0","null","null","","","","","","","","","","","","","","fixation","","","2","52","","","","","","","","","",""
"","","","","","","","","","","","canvas-keyboard-response","453","869560","0.0-453.0","null","null","","","","","","","","","","","","","","stimulus","","","2","52","","","","","","","","","",""
"","","","","","","","","","","","canvas-button-response","454","870432","0.0-454.0","869","house","","","","","","","","","","","","","","perceptual","","","2","52","","","","","188","bridge","10","0","0",""
"","","","","","","","","","","","canvas-button-response","455","871153","0.0-455.0","718","3","","","","","","","","","","","","","","confidence","","","2","52","","","","","","","","","","2"
"","","","","","","","","","","","preload","456","871155","0.0-456.0","","","","","true","","","","","","","","","","","preload","","","2","53","false","[]","[]","[]","","","","","",""
"","","","","","","","","","","","canvas-keyboard-response","457","871462","0.0-457.0","null","null","","","","","","","","","","","","","","fixation","","","2","53","","","","","","","","","",""
"","","","","","","","","","","","canvas-keyboard-response","458","871780","0.0-458.0","null","null","","","","","","","","","","","","","","stimulus","","","2","53","","","","","","","","","",""
"","","","","","","","","","","","canvas-button-response","459","872515","0.0-459.0","733","car","","","","","","","","","","","","","","perceptual","","","2","53","","","","","62","car","10","0","1",""
"","","","","","","","","","","","canvas-button-response","460","873005","0.0-460.0","488","10","","","","","","","","","","","","","","confidence","","","2","53","","","","","","","","","","3"
"","","","","","","","","","","","preload","461","873006","0.0-461.0","","","","","true","","","","","","","","","","","preload","","","2","54","false","[]","[]","[]","","","","","",""
"","","","","","","","","","","","canvas-keyboard-response","462","873315","0.0-462.0","null","null","","","","","","","","","","","","","","fixation","","","2","54","","","","","","","","","",""
"","","","","","","","","","","","canvas-keyboard-response","463","873624","0.0-463.0","null","null","","","","","","","","","","","","","","stimulus","","","2","54","","","","","","","","","",""
"","","","","","","","","","","","canvas-button-response","464","874229","0.0-464.0","602","car","","","","","","","","","","","","","","perceptual","","","2","54","","","","","64","car","10","0","1",""
"","","","","","","","","","","","canvas-button-response","465","874844","0.0-465.0","612","10","","","","","","","","","","","","","","confidence","","","2","54","","","","","","","","","","4"
"","","","","","","","","","","","preload","466","874845","0.0-466.0","","","","","true","","","","","","","","","","","preload","","","2","55","false","[]","[]","[]","","","","","",""
"","","","","","","","","","","","canvas-keyboard-response","467","875154","0.0-467.0","null","null","","","","","","","","","","","","","","fixation","","","2","55","","","","","","","","","",""
"","","","","","","","","","","","canvas-keyboard-response","468","875463","0.0-468.0","null","null","","","","","","","","","","","","","","stimulus","","","2","55","","","","","","","","","",""
"","","","","","","","","","","","canvas-button-response","469","876155","0.0-469.0","690","house","","","","","","","","","","","","","","perceptual","","","2","55","","","","","23","house","10","0","1",""
"","","","","","","","","","","","canvas-button-response","470","876552","0.0-470.0","395","10","","","","","","","","","","","","","","confidence","","","2","55","","","","","","","","","","5"
"","","","","","","","","","","","preload","471","876553","0.0-471.0","","","","","true","","","","","","","","","","","preload","","","2","56","false","[]","[]","[]","","","","","",""
"","","","","","","","","","","","canvas-keyboard-response","472","876867","0.0-472.0","null","null","","","","","","","","","","","","","","fixation","","","2","56","","","","","","","","","",""
"","","","","","","","","","","","canvas-keyboard-response","473","877177","0.0-473.0","null","null","","","","","","","","","","","","","","stimulus","","","2","56","","","","","","","","","",""
"","","","","","","","","","","","canvas-button-response","474","877952","0.0-474.0","771","phone","","","","","","","","","","","","","","perceptual","","","2","56","","","","","371","knife","6","0","0",""
"","","","","","","","","","","","canvas-button-response","475","878594","0.0-475.0","639","3","","","","","","","","","","","","","","confidence","","","2","56","","","","","","","","","","5"
"","","","","","","","","","","","preload","476","878596","0.0-476.0","","","","","true","","","","","","","","","","","preload","","","2","57","false","[]","[]","[]","","","","","",""
"","","","","","","","","","","","canvas-keyboard-response","477","878907","0.0-477.0","null","null","","","","","","","","","","","","","","fixation","","","2","57","","","","","","","","","",""
"","","","","","","","","","","","canvas-keyboard-response","478","879213","0.0-478.0","null","null","","","","","","","","","","","","","","stimulus","","","2","57","","","","","","","","","",""
"","","","","","","","","","","","canvas-button-response","479","881522","0.0-479.0","2306","house","","","","","","","","","","","","","","perceptual","","","2","57","","","","","140","bed","10","0","0",""
"","","","","","","","","","","","canvas-button-response","480","882264","0.0-480.0","739","6","","","","","","","","","","","","","","confidence","","","2","57","","","","","","","","","","5"
"","","","","","","","","","","","preload","481","882265","0.0-481.0","","","","","true","","","","","","","","","","","preload","","","2","58","false","[]","[]","[]","","","","","",""
"","","","","","","","","","","","canvas-keyboard-response","482","882579","0.0-482.0","null","null","","","","","","","","","","","","","","fixation","","","2","58","","","","","","","","","",""
"","","","","","","","","","","","canvas-keyboard-response","483","882897","0.0-483.0","null","null","","","","","","","","","","","","","","stimulus","","","2","58","","","","","","","","","",""
"","","","","","","","","","","","canvas-button-response","484","883459","0.0-484.0","560","train","","","","","","","","","","","","","","perceptual","","","2","58","","","","","253","train","6","0","1",""
"","","","","","","","","","","","canvas-button-response","485","883880","0.0-485.0","417","10","","","","","","","","","","","","","","confidence","","","2","58","","","","","","","","","","6"
"","","","","","","","","","","","preload","486","883883","0.0-486.0","","","","","true","","","","","","","","","","","preload","","","2","59","false","[]","[]","[]","","","","","",""
"","","","","","","","","","","","canvas-keyboard-response","487","884195","0.0-487.0","null","null","","","","","","","","","","","","","","fixation","","","2","59","","","","","","","","","",""
"","","","","","","","","","","","canvas-keyboard-response","488","884504","0.0-488.0","null","null","","","","","","","","","","","","","","stimulus","","","2","59","","","","","","","","","",""
"","","","","","","","","","","","canvas-button-response","489","885213","0.0-489.0","707","cat","","","","","","","","","","","","","","perceptual","","","2","59","","","","","302","cat","10","0","1",""
"","","","","","","","","","","","canvas-button-response","490","885785","0.0-490.0","569","8","","","","","","","","","","","","","","confidence","","","2","59","","","","","","","","","","7"
"","","","","","","","","","","","preload","491","885786","0.0-491.0","","","","","true","","","","","","","","","","","preload","","","2","60","false","[]","[]","[]","","","","","",""
"","","","","","","","","","","","canvas-keyboard-response","492","886102","0.0-492.0","null","null","","","","","","","","","","","","","","fixation","","","2","60","","","","","","","","","",""
