"width","height","webaudio","browser","browser_version","mobile","os","fullscreen","vsync_rate","webcam","microphone","trial_type","trial_index","time_elapsed","internal_node_id","rt","response","accuracy","view_history","success","item_width_mm","item_height_mm","item_width_px","px2mm","view_dist_mm","item_width_deg","px2deg","scale_factor","win_width_deg","win_height_deg","stimulus","datetime","subjectID","curr_triallist","trial_no","timeout","failed_images","failed_audio","failed_video","image_index","category","blur","reps","correct","running_score"
"1536","737","true","chrome","141.0.0","false","Windows 10","true","60.45","false","true","browser-check","0","996","0.0-0.0","","","","","","","","","","","","","","","","","","","","","","","","","","","","","",""
"","","","","","","","","","","","survey","1","30291","0.0-1.0","29262","{""P0_Q0"":""903782009"",""P0_Q1"":""21"",""P1_Q0"":""Female"",""P1_Q1"":""Not Hispanic or Latino"",""P1_Q2"":""Asian"",""P1_Q3"":""Corrected-to-Normal (using glasses/contacts)"",""P1_Q4"":""Right-Handed""}","[]","","","","","","","","","","","","","","","","","","","","","","","","","","",""
"","","","","","","","","","","","instructions","2","60904","0.0-2.0","30614","","","[{""page_index"":0,""viewing_time"":5406},{""page_index"":1,""viewing_time"":6819},{""page_index"":2,""viewing_time"":11906},{""page_index"":3,""viewing_time"":6483}]","","","","","","","","","","","","","","","","","","","","","","","","","",""
"","","","","","","","","","","","fullscreen","3","64054","0.0-3.0","2144","","","","true","","","","","","","","","","","","","","","","","","","","","","","","",""
"","","","","","","","","","","","virtual-chinrest","4","145503","0.0-4.0","81449","","","","","85.6","53.98","314.5159010082074","3.674117570868604","466.51","10.483863366940245","30","1.3989753732308692","51.2","28.8","","","","","","","","","","","","","","",""
"","","","","","","","","","","","instructions","5","187214","0.0-5.0","41711","","","[{""page_index"":0,""viewing_time"":8291},{""page_index"":1,""viewing_time"":4689},{""page_index"":2,""viewing_time"":9967},{""page_index"":3,""viewing_time"":2693},{""page_index"":4,""viewing_time"":4056},{""page_index"":5,""viewing_time"":10199},{""page_index"":6,""viewing_time"":1816}]","","","","","","","","","","","","","","","","","","","","","","","","","",""
"","","","","","","","","","","","html-button-response","6","190215","0.0-6.0","3000","0","","","","","","","","","","","","","","start_practice","Wed Oct 22 2025 19:44:48 GMT-0400 (Eastern Daylight Time)","22340","","","","","","","","","","","",""
"","","","","","","","","","","","preload","7","190216","0.0-7.0","","","","","true","","","","","","","","","","","preload","","","0","0","false","[]","[]","[]","","","","","",""
"","","","","","","","","","","","canvas-keyboard-response","8","190521","0.0-8.0","null","null","","","","","","","","","","","","","","fixation","","","0","0","","","","","","","","","",""
"","","","","","","","","","","","canvas-keyboard-response","9","190830","0.0-9.0","null","null","","","","","","","","","","","","","","stimulus","","","0","0","","","","","","","","","",""
"","","","","","","","","","","","canvas-button-response","10","192743","0.0-10.0","1912","phone","","","","","","","","","","","","","","perceptual","","","0","0","","","","","22","phone","1","","1",""
"","","","","","","","","","","","canvas-button-response","11","194373","0.0-11.0","1628","10","","","","","","","","","","","","","","confidence","","","0","0","","","","","","","","","","1"
"","","","","","","","","","","","html-keyboard-response","12","195381","0.0-12.0","null","null","","","","","","","","","","","","","","feedback","Wed Oct 22 2025 19:44:55 GMT-0400 (Eastern Daylight Time)","22340","0","0","","","","","","","","","",""
"","","","","","","","","","","","preload","13","195382","0.0-13.0","","","","","true","","","","","","","","","","","preload","","","0","1","false","[]","[]","[]","","","","","",""
"","","","","","","","","","","","canvas-keyboard-response","14","195692","0.0-14.0","null","null","","","","","","","","","","","","","","fixation","","","0","1","","","","","","","","","",""
"","","","","","","","","","","","canvas-keyboard-response","15","196001","0.0-15.0","null","null","","","","","","","","","","","","","","stimulus","","","0","1","","","","","","","","","",""
"","","","","","","","","","","","canvas-button-response","16","197049","0.0-16.0","1047","house","","","","","","","","","","","","","","perceptual","","","0","1","","","","","2","house","1","","1",""
"","","","","","","","","","","","canvas-button-response","17","198313","0.0-17.0","1263","10","","","","","","","","","","","","","","confidence","","","0","1","","","","","","","","","","2"
"","","","","","","","","","","","html-keyboard-response","18","199321","0.0-18.0","null","null","","","","","","","","","","","","","","feedback","Wed Oct 22 2025 19:44:59 GMT-0400 (Eastern Daylight Time)","22340","0","1","","","","","","","","","",""
"","","","","","","","","","","","preload","19","199321","0.0-19.0","","","","","true","","","","","","","","","","","preload","","","0","2","false","[]","[]","[]","","","","","",""
"","","","","","","","","","","","canvas-keyboard-response","20","199631","0.0-20.0","null","null","","","","","","","","","","","","","","fixation","","","0","2","","","","","","","","","",""
"","","","","","","","","","","","canvas-keyboard-response","21","199939","0.0-21.0","null","null","","","","","","","","","","","","","","stimulus","","","0","2","","","","","","","","","",""
"","","","","","","","","","","","canvas-button-response","22","201629","0.0-22.0","1689","train","","","","","","","","","","","","","","perceptual","","","0","2","","","","","62","train","1","","1",""
"","","","","","","","","","","","canvas-button-response","23","202794","0.0-23.0","1163","10","","","","","","","","","","","","","","confidence","","","0","2","","","","","","","","","","3"
"","","","","","","","","","","","html-keyboard-response","24","203801","0.0-24.0","null","null","","","","","","","","","","","","","","feedback","Wed Oct 22 2025 19:45:03 GMT-0400 (Eastern Daylight Time)","22340","0","2","","","","","","","","","",""
"","","","","","","","","","","","preload","25","203802","0.0-25.0","","","","","true","","","","","","","","","","","preload","","","0","3","false","[]","[]","[]","","","","","",""
"","","","","","","","","","","","canvas-keyboard-response","26","204111","0.0-26.0","null","null","","","","","","","","","","","","","","fixation","","","0","3","","","","","","","","","",""
"","","","","","","","","","","","canvas-keyboard-response","27","204421","0.0-27.0","null","null","","","","","","","","","","","","","","stimulus","","","0","3","","","","","","","","","",""
"","","","","","","","","","","","canvas-button-response","28","205306","0.0-28.0","884","cat","","","","","","","","","","","","","","perceptual","","","0","3","","","","","72","cat","1","","1",""
"","","","","","","","","","","","canvas-button-response","29","206024","0.0-29.0","718","10","","","","","","","","","","","","","","confidence","","","0","3","","","","","","","","","","4"
"","","","","","","","","","","","html-keyboard-response","30","207031","0.0-30.0","null","null","","","","","","","","","","","","","","feedback","Wed Oct 22 2025 19:45:06 GMT-0400 (Eastern Daylight Time)","22340","0","3","","","","","","","","","",""
"","","","","","","","","","","","preload","31","207032","0.0-31.0","","","","","true","","","","","","","","","","","preload","","","0","4","false","[]","[]","[]","","","","","",""
"","","","","","","","","","","","canvas-keyboard-response","32","207342","0.0-32.0","null","null","","","","","","","","","","","","","","fixation","","","0","4","","","","","","","","","",""
"","","","","","","","","","","","canvas-keyboard-response","33","207651","0.0-33.0","null","null","","","","","","","","","","","","","","stimulus","","","0","4","","","","","","","","","",""
"","","","","","","","","","","","canvas-button-response","34","208759","0.0-34.0","1107","car","","","","","","","","","","","","","","perceptual","","","0","4","","","","","12","car","1","","1",""
"","","","","","","","","","","","canvas-button-response","35","209628","0.0-35.0","868","10","","","","","","","","","","","","","","confidence","","","0","4","","","","","","","","","","5"
"","","","","","","","","","","","html-keyboard-response","36","210631","0.0-36.0","null","null","","","","","","","","","","","","","","feedback","Wed Oct 22 2025 19:45:10 GMT-0400 (Eastern Daylight Time)","22340","0","4","","","","","","","","","",""
"","","","","","","","","","","","preload","37","210632","0.0-37.0","","","","","true","","","","","","","","","","","preload","","","0","5","false","[]","[]","[]","","","","","",""
"","","","","","","","","","","","canvas-keyboard-response","38","210941","0.0-38.0","null","null","","","","","","","","","","","","","","fixation","","","0","5","","","","","","","","","",""
"","","","","","","","","","","","canvas-keyboard-response","39","211251","0.0-39.0","null","null","","","","","","","","","","","","","","stimulus","","","0","5","","","","","","","","","",""
"","","","","","","","","","","","canvas-button-response","40","214180","0.0-40.0","2927","knife","","","","","","","","","","","","","","perceptual","","","0","5","","","","","92","knife","1","","1",""
"","","","","","","","","","","","canvas-button-response","41","215121","0.0-41.0","940","10","","","","","","","","","","","","","","confidence","","","0","5","","","","","","","","","","6"
"","","","","","","","","","","","html-keyboard-response","42","216131","0.0-42.0","null","null","","","","","","","","","","","","","","feedback","Wed Oct 22 2025 19:45:15 GMT-0400 (Eastern Daylight Time)","22340","0","5","","","","","","","","","",""
"","","","","","","","","","","","preload","43","216132","0.0-43.0","","","","","true","","","","","","","","","","","preload","","","0","6","false","[]","[]","[]","","","","","",""
"","","","","","","","","","","","canvas-keyboard-response","44","216441","0.0-44.0","null","null","","","","","","","","","","","","","","fixation","","","0","6","","","","","","","","","",""
"","","","","","","","","","","","canvas-keyboard-response","45","216751","0.0-45.0","null","null","","","","","","","","","","","","","","stimulus","","","0","6","","","","","","","","","",""
"","","","","","","","","","","","canvas-button-response","46","218179","0.0-46.0","1427","bed","","","","","","","","","","","","","","perceptual","","","0","6","","","","","32","bed","1","","1",""
"","","","","","","","","","","","canvas-button-response","47","218948","0.0-47.0","768","10","","","","","","","","","","","","","","confidence","","","0","6","","","","","","","","","","7"
"","","","","","","","","","","","html-keyboard-response","48","219952","0.0-48.0","null","null","","","","","","","","","","","","","","feedback","Wed Oct 22 2025 19:45:19 GMT-0400 (Eastern Daylight Time)","22340","0","6","","","","","","","","","",""
"","","","","","","","","","","","preload","49","219952","0.0-49.0","","","","","true","","","","","","","","","","","preload","","","0","7","false","[]","[]","[]","","","","","",""
"","","","","","","","","","","","canvas-keyboard-response","50","220271","0.0-50.0","null","null","","","","","","","","","","","","","","fixation","","","0","7","","","","","","","","","",""
"","","","","","","","","","","","canvas-keyboard-response","51","220581","0.0-51.0","null","null","","","","","","","","","","","","","","stimulus","","","0","7","","","","","","","","","",""
"","","","","","","","","","","","canvas-button-response","52","222688","0.0-52.0","2106","bridge","","","","","","","","","","","","","","perceptual","","","0","7","","","","","42","bridge","1","","1",""
"","","","","","","","","","","","canvas-button-response","53","223672","0.0-53.0","983","10","","","","","","","","","","","","","","confidence","","","0","7","","","","","","","","","","8"
"","","","","","","","","","","","html-keyboard-response","54","224681","0.0-54.0","null","null","","","","","","","","","","","","","","feedback","Wed Oct 22 2025 19:45:24 GMT-0400 (Eastern Daylight Time)","22340","0","7","","","","","","","","","",""
"","","","","","","","","","","","preload","55","224682","0.0-55.0","","","","","true","","","","","","","","","","","preload","","","0","8","false","[]","[]","[]","","","","","",""
"","","","","","","","","","","","canvas-keyboard-response","56","224991","0.0-56.0","null","null","","","","","","","","","","","","","","fixation","","","0","8","","","","","","","","","",""
"","","","","","","","","","","","canvas-keyboard-response","57","225301","0.0-57.0","null","null","","","","","","","","","","","","","","stimulus","","","0","8","","","","","","","","","",""
"","","","","","","","","","","","canvas-button-response","58","229251","0.0-58.0","3949","flower","","","","","","","","","","","","","","perceptual","","","0","8","","","","","52","flower","1","","1",""
"","","","","","","","","","","","canvas-button-response","59","230500","0.0-59.0","1248","8","","","","","","","","","","","","","","confidence","","","0","8","","","","","","","","","","9"
"","","","","","","","","","","","html-keyboard-response","60","231501","0.0-60.0","null","null","","","","","","","","","","","","","","feedback","Wed Oct 22 2025 19:45:31 GMT-0400 (Eastern Daylight Time)","22340","0","8","","","","","","","","","",""
"","","","","","","","","","","","preload","61","231502","0.0-61.0","","","","","true","","","","","","","","","","","preload","","","0","9","false","[]","[]","[]","","","","","",""
"","","","","","","","","","","","canvas-keyboard-response","62","231811","0.0-62.0","null","null","","","","","","","","","","","","","","fixation","","","0","9","","","","","","","","","",""
"","","","","","","","","","","","canvas-keyboard-response","63","232121","0.0-63.0","null","null","","","","","","","","","","","","","","stimulus","","","0","9","","","","","","","","","",""
"","","","","","","","","","","","canvas-button-response","64","234153","0.0-64.0","2031","elephant","","","","","","","","","","","","","","perceptual","","","0","9","","","","","82","elephant","1","","1",""
"","","","","","","","","","","","canvas-button-response","65","235109","0.0-65.0","955","7","","","","","","","","","","","","","","confidence","","","0","9","","","","","","","","","","10"
"","","","","","","","","","","","html-keyboard-response","66","236111","0.0-66.0","null","null","","","","","","","","","","","","","","feedback","Wed Oct 22 2025 19:45:35 GMT-0400 (Eastern Daylight Time)","22340","0","9","","","","","","","","","",""
"","","","","","","","","","","","html-button-response","67","248656","0.0-67.0","12542","0","","","","","","","","","","","","","","start_practice","Wed Oct 22 2025 19:45:36 GMT-0400 (Eastern Daylight Time)","22340","0","9","","","","","","","","","",""
"","","","","","","","","","","","preload","68","248656","0.0-68.0","","","","","true","","","","","","","","","","","preload","","","1","0","false","[]","[]","[]","","","","","",""
"","","","","","","","","","","","canvas-keyboard-response","69","248962","0.0-69.0","null","null","","","","","","","","","","","","","","fixation","","","1","0","","","","","","","","","",""
"","","","","","","","","","","","canvas-keyboard-response","70","249276","0.0-70.0","null","null","","","","","","","","","","","","","","stimulus","","","1","0","","","","","","","","","",""
"","","","","","","","","","","","canvas-button-response","71","250853","0.0-71.0","1578","train","","","","","","","","","","","","","","perceptual","","","1","0","","","","","64","train","6","","1",""
"","","","","","","","","","","","canvas-button-response","72","251965","0.0-72.0","1111","10","","","","","","","","","","","","","","confidence","","","1","0","","","","","","","","","","1"
"","","","","","","","","","","","html-keyboard-response","73","252970","0.0-73.0","null","null","","","","","","","","","","","","","","feedback","Wed Oct 22 2025 19:45:52 GMT-0400 (Eastern Daylight Time)","22340","1","0","","","","","","","","","",""
"","","","","","","","","","","","preload","74","252971","0.0-74.0","","","","","true","","","","","","","","","","","preload","","","1","1","false","[]","[]","[]","","","","","",""
"","","","","","","","","","","","canvas-keyboard-response","75","253280","0.0-75.0","null","null","","","","","","","","","","","","","","fixation","","","1","1","","","","","","","","","",""
"","","","","","","","","","","","canvas-keyboard-response","76","253590","0.0-76.0","null","null","","","","","","","","","","","","","","stimulus","","","1","1","","","","","","","","","",""
"","","","","","","","","","","","canvas-button-response","77","257313","0.0-77.0","3722","phone","","","","","","","","","","","","","","perceptual","","","1","1","","","","","24","phone","6","","1",""
"","","","","","","","","","","","canvas-button-response","78","258088","0.0-78.0","774","5","","","","","","","","","","","","","","confidence","","","1","1","","","","","","","","","","2"
"","","","","","","","","","","","html-keyboard-response","79","259099","0.0-79.0","null","null","","","","","","","","","","","","","","feedback","Wed Oct 22 2025 19:45:58 GMT-0400 (Eastern Daylight Time)","22340","1","1","","","","","","","","","",""
"","","","","","","","","","","","preload","80","259100","0.0-80.0","","","","","true","","","","","","","","","","","preload","","","1","2","false","[]","[]","[]","","","","","",""
"","","","","","","","","","","","canvas-keyboard-response","81","259409","0.0-81.0","null","null","","","","","","","","","","","","","","fixation","","","1","2","","","","","","","","","",""
"","","","","","","","","","","","canvas-keyboard-response","82","259720","0.0-82.0","null","null","","","","","","","","","","","","","","stimulus","","","1","2","","","","","","","","","",""
"","","","","","","","","","","","canvas-button-response","83","260759","0.0-83.0","1038","knife","","","","","","","","","","","","","","perceptual","","","1","2","","","","","97","knife","10","","1",""
"","","","","","","","","","","","canvas-button-response","84","261914","0.0-84.0","1155","7","","","","","","","","","","","","","","confidence","","","1","2","","","","","","","","","","3"
"","","","","","","","","","","","html-keyboard-response","85","262920","0.0-85.0","null","null","","","","","","","","","","","","","","feedback","Wed Oct 22 2025 19:46:02 GMT-0400 (Eastern Daylight Time)","22340","1","2","","","","","","","","","",""
"","","","","","","","","","","","preload","86","262920","0.0-86.0","","","","","true","","","","","","","","","","","preload","","","1","3","false","[]","[]","[]","","","","","",""
"","","","","","","","","","","","canvas-keyboard-response","87","263229","0.0-87.0","null","null","","","","","","","","","","","","","","fixation","","","1","3","","","","","","","","","",""
"","","","","","","","","","","","canvas-keyboard-response","88","263540","0.0-88.0","null","null","","","","","","","","","","","","","","stimulus","","","1","3","","","","","","","","","",""
"","","","","","","","","","","","canvas-button-response","89","265037","0.0-89.0","1497","flower","","","","","","","","","","","","","","perceptual","","","1","3","","","","","54","flower","6","","1",""
"","","","","","","","","","","","canvas-button-response","90","266057","0.0-90.0","1019","7","","","","","","","","","","","","","","confidence","","","1","3","","","","","","","","","","4"
"","","","","","","","","","","","html-keyboard-response","91","267060","0.0-91.0","null","null","","","","","","","","","","","","","","feedback","Wed Oct 22 2025 19:46:06 GMT-0400 (Eastern Daylight Time)","22340","1","3","","","","","","","","","",""
"","","","","","","","","","","","preload","92","267061","0.0-92.0","","","","","true","","","","","","","","","","","preload","","","1","4","false","[]","[]","[]","","","","","",""
"","","","","","","","","","","","canvas-keyboard-response","93","267370","0.0-93.0","null","null","","","","","","","","","","","","","","fixation","","","1","4","","","","","","","","","",""
"","","","","","","","","","","","canvas-keyboard-response","94","267680","0.0-94.0","null","null","","","","","","","","","","","","","","stimulus","","","1","4","","","","","","","","","",""
"","","","","","","","","","","","canvas-button-response","95","273524","0.0-95.0","5843","car","","","","","","","","","","","","","","perceptual","","","1","4","","","","","14","car","6","","1",""
"","","","","","","","","","","","canvas-button-response","96","274508","0.0-96.0","983","4","","","","","","","","","","","","","","confidence","","","1","4","","","","","","","","","","5"
"","","","","","","","","","","","html-keyboard-response","97","275510","0.0-97.0","null","null","","","","","","","","","","","","","","feedback","Wed Oct 22 2025 19:46:15 GMT-0400 (Eastern Daylight Time)","22340","1","4","","","","","","","","","",""
"","","","","","","","","","","","preload","98","275510","0.0-98.0","","","","","true","","","","","","","","","","","preload","","","1","5","false","[]","[]","[]","","","","","",""
"","","","","","","","","","","","canvas-keyboard-response","99","275820","0.0-99.0","null","null","","","","","","","","","","","","","","fixation","","","1","5","","","","","","","","","",""
"","","","","","","","","","","","canvas-keyboard-response","100","276130","0.0-100.0","null","null","","","","","","","","","","","","","","stimulus","","","1","5","","","","","","","","","",""
"","","","","","","","","","","","canvas-button-response","101","278312","0.0-101.0","2180","flower","","","","","","","","","","","","","","perceptual","","","1","5","","","","","57","flower","10","","1",""
"","","","","","","","","","","","canvas-button-response","102","279332","0.0-102.0","1019","4","","","","","","","","","","","","","","confidence","","","1","5","","","","","","","","","","6"
"","","","","","","","","","","","html-keyboard-response","103","280340","0.0-103.0","null","null","","","","","","","","","","","","","","feedback","Wed Oct 22 2025 19:46:20 GMT-0400 (Eastern Daylight Time)","22340","1","5","","","","","","","","","",""
"","","","","","","","","","","","preload","104","280341","0.0-104.0","","","","","true","","","","","","","","","","","preload","","","1","6","false","[]","[]","[]","","","","","",""
"","","","","","","","","","","","canvas-keyboard-response","105","280650","0.0-105.0","null","null","","","","","","","","","","","","","","fixation","","","1","6","","","","","","","","","",""
"","","","","","","","","","","","canvas-keyboard-response","106","280959","0.0-106.0","null","null","","","","","","","","","","","","","","stimulus","","","1","6","","","","","","","","","",""
"","","","","","","","","","","","canvas-button-response","107","284070","0.0-107.0","3109","cat","","","","","","","","","","","","","","perceptual","","","1","6","","","","","77","cat","10","","1",""
"","","","","","","","","","","","canvas-button-response","108","284816","0.0-108.0","746","3","","","","","","","","","","","","","","confidence","","","1","6","","","","","","","","","","7"
"","","","","","","","","","","","html-keyboard-response","109","285820","0.0-109.0","null","null","","","","","","","","","","","","","","feedback","Wed Oct 22 2025 19:46:25 GMT-0400 (Eastern Daylight Time)","22340","1","6","","","","","","","","","",""
"","","","","","","","","","","","preload","110","285820","0.0-110.0","","","","","true","","","","","","","","","","","preload","","","1","7","false","[]","[]","[]","","","","","",""
"","","","","","","","","","","","canvas-keyboard-response","111","286130","0.0-111.0","null","null","","","","","","","","","","","","","","fixation","","","1","7","","","","","","","","","",""
"","","","","","","","","","","","canvas-keyboard-response","112","286440","0.0-112.0","null","null","","","","","","","","","","","","","","stimulus","","","1","7","","","","","","","","","",""
"","","","","","","","","","","","canvas-button-response","113","288663","0.0-113.0","2222","train","","","","","","","","","","","","","","perceptual","","","1","7","","","","","67","train","10","","1",""
"","","","","","","","","","","","canvas-button-response","114","289769","0.0-114.0","1105","2","","","","","","","","","","","","","","confidence","","","1","7","","","","","","","","","","8"
"","","","","","","","","","","","html-keyboard-response","115","290780","0.0-115.0","null","null","","","","","","","","","","","","","","feedback","Wed Oct 22 2025 19:46:30 GMT-0400 (Eastern Daylight Time)","22340","1","7","","","","","","","","","",""
"","","","","","","","","","","","preload","116","290780","0.0-116.0","","","","","true","","","","","","","","","","","preload","","","1","8","false","[]","[]","[]","","","","","",""
"","","","","","","","","","","","canvas-keyboard-response","117","291090","0.0-117.0","null","null","","","","","","","","","","","","","","fixation","","","1","8","","","","","","","","","",""
"","","","","","","","","","","","canvas-keyboard-response","118","291400","0.0-118.0","null","null","","","","","","","","","","","","","","stimulus","","","1","8","","","","","","","","","",""
"","","","","","","","","","","","canvas-button-response","119","292943","0.0-119.0","1542","bed","","","","","","","","","","","","","","perceptual","","","1","8","","","","","34","bed","6","","1",""
"","","","","","","","","","","","canvas-button-response","120","294278","0.0-120.0","1334","4","","","","","","","","","","","","","","confidence","","","1","8","","","","","","","","","","9"
"","","","","","","","","","","","html-keyboard-response","121","295280","0.0-121.0","null","null","","","","","","","","","","","","","","feedback","Wed Oct 22 2025 19:46:35 GMT-0400 (Eastern Daylight Time)","22340","1","8","","","","","","","","","",""
"","","","","","","","","","","","preload","122","295281","0.0-122.0","","","","","true","","","","","","","","","","","preload","","","1","9","false","[]","[]","[]","","","","","",""
"","","","","","","","","","","","canvas-keyboard-response","123","295590","0.0-123.0","null","null","","","","","","","","","","","","","","fixation","","","1","9","","","","","","","","","",""
"","","","","","","","","","","","canvas-keyboard-response","124","295900","0.0-124.0","null","null","","","","","","","","","","","","","","stimulus","","","1","9","","","","","","","","","",""
"","","","","","","","","","","","canvas-button-response","125","310660","0.0-125.0","14760","house","","","","","","","","","","","","","","perceptual","","","1","9","","","","","44","bridge","6","","0",""
"","","","","","","","","","","","canvas-button-response","126","311930","0.0-126.0","1269","2","","","","","","","","","","","","","","confidence","","","1","9","","","","","","","","","","9"
"","","","","","","","","","","","html-keyboard-response","127","312939","0.0-127.0","null","null","","","","","","","","","","","","","","feedback","Wed Oct 22 2025 19:46:52 GMT-0400 (Eastern Daylight Time)","22340","1","9","","","","","","","","","",""
"","","","","","","","","","","","preload","128","312940","0.0-128.0","","","","","true","","","","","","","","","","","preload","","","1","10","false","[]","[]","[]","","","","","",""
"","","","","","","","","","","","canvas-keyboard-response","129","313249","0.0-129.0","null","null","","","","","","","","","","","","","","fixation","","","1","10","","","","","","","","","",""
"","","","","","","","","","","","canvas-keyboard-response","130","313560","0.0-130.0","null","null","","","","","","","","","","","","","","stimulus","","","1","10","","","","","","","","","",""
"","","","","","","","","","","","canvas-button-response","131","315371","0.0-131.0","1810","cat","","","","","","","","","","","","","","perceptual","","","1","10","","","","","74","cat","6","","1",""
"","","","","","","","","","","","canvas-button-response","132","316618","0.0-132.0","1247","4","","","","","","","","","","","","","","confidence","","","1","10","","","","","","","","","","10"
"","","","","","","","","","","","html-keyboard-response","133","317629","0.0-133.0","null","null","","","","","","","","","","","","","","feedback","Wed Oct 22 2025 19:46:57 GMT-0400 (Eastern Daylight Time)","22340","1","10","","","","","","","","","",""
"","","","","","","","","","","","preload","134","317630","0.0-134.0","","","","","true","","","","","","","","","","","preload","","","1","11","false","[]","[]","[]","","","","","",""
"","","","","","","","","","","","canvas-keyboard-response","135","317939","0.0-135.0","null","null","","","","","","","","","","","","","","fixation","","","1","11","","","","","","","","","",""
"","","","","","","","","","","","canvas-keyboard-response","136","318249","0.0-136.0","null","null","","","","","","","","","","","","","","stimulus","","","1","11","","","","","","","","","",""
"","","","","","","","","","","","canvas-button-response","137","319728","0.0-137.0","1478","house","","","","","","","","","","","","","","perceptual","","","1","11","","","","","87","elephant","10","","0",""
"","","","","","","","","","","","canvas-button-response","138","320381","0.0-138.0","653","3","","","","","","","","","","","","","","confidence","","","1","11","","","","","","","","","","10"
"","","","","","","","","","","","html-keyboard-response","139","321389","0.0-139.0","null","null","","","","","","","","","","","","","","feedback","Wed Oct 22 2025 19:47:01 GMT-0400 (Eastern Daylight Time)","22340","1","11","","","","","","","","","",""
"","","","","","","","","","","","preload","140","321390","0.0-140.0","","","","","true","","","","","","","","","","","preload","","","1","12","false","[]","[]","[]","","","","","",""
"","","","","","","","","","","","canvas-keyboard-response","141","321699","0.0-141.0","null","null","","","","","","","","","","","","","","fixation","","","1","12","","","","","","","","","",""
"","","","","","","","","","","","canvas-keyboard-response","142","322009","0.0-142.0","null","null","","","","","","","","","","","","","","stimulus","","","1","12","","","","","","","","","",""
"","","","","","","","","","","","canvas-button-response","143","326598","0.0-143.0","4588","train","","","","","","","","","","","","","","perceptual","","","1","12","","","","","47","bridge","10","","0",""
"","","","","","","","","","","","canvas-button-response","144","327467","0.0-144.0","868","1","","","","","","","","","","","","","","confidence","","","1","12","","","","","","","","","","10"
"","","","","","","","","","","","html-keyboard-response","145","328469","0.0-145.0","null","null","","","","","","","","","","","","","","feedback","Wed Oct 22 2025 19:47:08 GMT-0400 (Eastern Daylight Time)","22340","1","12","","","","","","","","","",""
"","","","","","","","","","","","preload","146","328470","0.0-146.0","","","","","true","","","","","","","","","","","preload","","","1","13","false","[]","[]","[]","","","","","",""
"","","","","","","","","","","","canvas-keyboard-response","147","328779","0.0-147.0","null","null","","","","","","","","","","","","","","fixation","","","1","13","","","","","","","","","",""
"","","","","","","","","","","","canvas-keyboard-response","148","329088","0.0-148.0","null","null","","","","","","","","","","","","","","stimulus","","","1","13","","","","","","","","","",""
"","","","","","","","","","","","canvas-button-response","149","330044","0.0-149.0","955","house","","","","","","","","","","","","","","perceptual","","","1","13","","","","","4","house","6","","1",""
"","","","","","","","","","","","canvas-button-response","150","331020","0.0-150.0","975","5","","","","","","","","","","","","","","confidence","","","1","13","","","","","","","","","","11"
"","","","","","","","","","","","html-keyboard-response","151","332039","0.0-151.0","null","null","","","","","","","","","","","","","","feedback","Wed Oct 22 2025 19:47:11 GMT-0400 (Eastern Daylight Time)","22340","1","13","","","","","","","","","",""
"","","","","","","","","","","","preload","152","332040","0.0-152.0","","","","","true","","","","","","","","","","","preload","","","1","14","false","[]","[]","[]","","","","","",""
"","","","","","","","","","","","canvas-keyboard-response","153","332349","0.0-153.0","null","null","","","","","","","","","","","","","","fixation","","","1","14","","","","","","","","","",""
"","","","","","","","","","","","canvas-keyboard-response","154","332659","0.0-154.0","null","null","","","","","","","","","","","","","","stimulus","","","1","14","","","","","","","","","",""
"","","","","","","","","","","","canvas-button-response","155","337181","0.0-155.0","4521","car","","","","","","","","","","","","","","perceptual","","","1","14","","","","","37","bed","10","","0",""
"","","","","","","","","","","","canvas-button-response","156","338933","0.0-156.0","1751","0","","","","","","","","","","","","","","confidence","","","1","14","","","","","","","","","","11"
"","","","","","","","","","","","html-keyboard-response","157","339939","0.0-157.0","null","null","","","","","","","","","","","","","","feedback","Wed Oct 22 2025 19:47:19 GMT-0400 (Eastern Daylight Time)","22340","1","14","","","","","","","","","",""
"","","","","","","","","","","","preload","158","339939","0.0-158.0","","","","","true","","","","","","","","","","","preload","","","1","15","false","[]","[]","[]","","","","","",""
"","","","","","","","","","","","canvas-keyboard-response","159","340249","0.0-159.0","null","null","","","","","","","","","","","","","","fixation","","","1","15","","","","","","","","","",""
"","","","","","","","","","","","canvas-keyboard-response","160","340559","0.0-160.0","null","null","","","","","","","","","","","","","","stimulus","","","1","15","","","","","","","","","",""
"","","","","","","","","","","","canvas-button-response","161","341655","0.0-161.0","1095","elephant","","","","","","","","","","","","","","perceptual","","","1","15","","","","","84","elephant","6","","1",""
"","","","","","","","","","","","canvas-button-response","162","342610","0.0-162.0","954","7","","","","","","","","","","","","","","confidence","","","1","15","","","","","","","","","","12"
"","","","","","","","","","","","html-keyboard-response","163","343619","0.0-163.0","null","null","","","","","","","","","","","","","","feedback","Wed Oct 22 2025 19:47:23 GMT-0400 (Eastern Daylight Time)","22340","1","15","","","","","","","","","",""
"","","","","","","","","","","","preload","164","343619","0.0-164.0","","","","","true","","","","","","","","","","","preload","","","1","16","false","[]","[]","[]","","","","","",""
"","","","","","","","","","","","canvas-keyboard-response","165","343929","0.0-165.0","null","null","","","","","","","","","","","","","","fixation","","","1","16","","","","","","","","","",""
"","","","","","","","","","","","canvas-keyboard-response","166","344239","0.0-166.0","null","null","","","","","","","","","","","","","","stimulus","","","1","16","","","","","","","","","",""
"","","","","","","","","","","","canvas-button-response","167","346501","0.0-167.0","2261","bridge","","","","","","","","","","","","","","perceptual","","","1","16","","","","","7","house","10","","0",""
"","","","","","","","","","","","canvas-button-response","168","348002","0.0-168.0","1500","1","","","","","","","","","","","","","","confidence","","","1","16","","","","","","","","","","12"
"","","","","","","","","","","","html-keyboard-response","169","349009","0.0-169.0","null","null","","","","","","","","","","","","","","feedback","Wed Oct 22 2025 19:47:28 GMT-0400 (Eastern Daylight Time)","22340","1","16","","","","","","","","","",""
"","","","","","","","","","","","preload","170","349009","0.0-170.0","","","","","true","","","","","","","","","","","preload","","","1","17","false","[]","[]","[]","","","","","",""
"","","","","","","","","","","","canvas-keyboard-response","171","349319","0.0-171.0","null","null","","","","","","","","","","","","","","fixation","","","1","17","","","","","","","","","",""
"","","","","","","","","","","","canvas-keyboard-response","172","349629","0.0-172.0","null","null","","","","","","","","","","","","","","stimulus","","","1","17","","","","","","","","","",""
"","","","","","","","","","","","canvas-button-response","173","355370","0.0-173.0","5740","knife","","","","","","","","","","","","","","perceptual","","","1","17","","","","","94","knife","6","","1",""
"","","","","","","","","","","","canvas-button-response","174","356037","0.0-174.0","666","0","","","","","","","","","","","","","","confidence","","","1","17","","","","","","","","","","13"
"","","","","","","","","","","","html-keyboard-response","175","357039","0.0-175.0","null","null","","","","","","","","","","","","","","feedback","Wed Oct 22 2025 19:47:36 GMT-0400 (Eastern Daylight Time)","22340","1","17","","","","","","","","","",""
"","","","","","","","","","","","preload","176","357040","0.0-176.0","","","","","true","","","","","","","","","","","preload","","","1","18","false","[]","[]","[]","","","","","",""
"","","","","","","","","","","","canvas-keyboard-response","177","357349","0.0-177.0","null","null","","","","","","","","","","","","","","fixation","","","1","18","","","","","","","","","",""
"","","","","","","","","","","","canvas-keyboard-response","178","357659","0.0-178.0","null","null","","","","","","","","","","","","","","stimulus","","","1","18","","","","","","","","","",""
"","","","","","","","","","","","canvas-button-response","179","363527","0.0-179.0","5867","bridge","","","","","","","","","","","","","","perceptual","","","1","18","","","","","27","phone","10","","0",""
"","","","","","","","","","","","canvas-button-response","180","364934","0.0-180.0","1406","0","","","","","","","","","","","","","","confidence","","","1","18","","","","","","","","","","13"
"","","","","","","","","","","","html-keyboard-response","181","365939","0.0-181.0","null","null","","","","","","","","","","","","","","feedback","Wed Oct 22 2025 19:47:45 GMT-0400 (Eastern Daylight Time)","22340","1","18","","","","","","","","","",""
"","","","","","","","","","","","preload","182","365940","0.0-182.0","","","","","true","","","","","","","","","","","preload","","","1","19","false","[]","[]","[]","","","","","",""
"","","","","","","","","","","","canvas-keyboard-response","183","366249","0.0-183.0","null","null","","","","","","","","","","","","","","fixation","","","1","19","","","","","","","","","",""
"","","","","","","","","","","","canvas-keyboard-response","184","366559","0.0-184.0","null","null","","","","","","","","","","","","","","stimulus","","","1","19","","","","","","","","","",""
"","","","","","","","","","","","canvas-button-response","185","371912","0.0-185.0","5354","house","","","","","","","","","","","","","","perceptual","","","1","19","","","","","17","car","10","","0",""
"","","","","","","","","","","","canvas-button-response","186","373069","0.0-186.0","1156","1","","","","","","","","","","","","","","confidence","","","1","19","","","","","","","","","","13"
"","","","","","","","","","","","html-keyboard-response","187","374078","0.0-187.0","null","null","","","","","","","","","","","","","","feedback","Wed Oct 22 2025 19:47:53 GMT-0400 (Eastern Daylight Time)","22340","1","19","","","","","","","","","",""
"","","","","","","","","","","","html-button-response","188","381686","0.0-188.0","7607","0","","","","","","","","","","","","","","start experiment","Wed Oct 22 2025 19:47:54 GMT-0400 (Eastern Daylight Time)","22340","1","19","","","","","","","","","",""
"","","","","","","","","","","","preload","189","381686","0.0-189.0","","","","","true","","","","","","","","","","","preload","","","2","0","false","[]","[]","[]","","","","","",""
"","","","","","","","","","","","canvas-keyboard-response","190","381988","0.0-190.0","null","null","","","","","","","","","","","","","","fixation","","","2","0","","","","","","","","","",""
"","","","","","","","","","","","canvas-keyboard-response","191","382290","0.0-191.0","null","null","","","","","","","","","","","","","","stimulus","","","2","0","","","","","","","","","",""
"","","","","","","","","","","","canvas-button-response","192","383158","0.0-192.0","866","house","","","","","","","","","","","","","","perceptual","","","2","0","","","","","15","house","6","0","1",""
"","","","","","","","","","","","canvas-button-response","193","385455","0.0-193.0","2297","4","","","","","","","","","","","","","","confidence","","","2","0","","","","","","","","","","1"
"","","","","","","","","","","","preload","194","385456","0.0-194.0","","","","","true","","","","","","","","","","","preload","","","2","1","false","[]","[]","[]","","","","","",""
"","","","","","","","","","","","canvas-keyboard-response","195","385758","0.0-195.0","null","null","","","","","","","","","","","","","","fixation","","","2","1","","","","","","","","","",""
"","","","","","","","","","","","canvas-keyboard-response","196","386068","0.0-196.0","null","null","","","","","","","","","","","","","","stimulus","","","2","1","","","","","","","","","",""
"","","","","","","","","","","","canvas-button-response","197","387573","0.0-197.0","1504","elephant","","","","","","","","","","","","","","perceptual","","","2","1","","","","","326","elephant","6","0","1",""
"","","","","","","","","","","","canvas-button-response","198","388707","0.0-198.0","1133","4","","","","","","","","","","","","","","confidence","","","2","1","","","","","","","","","","2"
"","","","","","","","","","","","preload","199","388707","0.0-199.0","","","","","true","","","","","","","","","","","preload","","","2","2","false","[]","[]","[]","","","","","",""
"","","","","","","","","","","","canvas-keyboard-response","200","389018","0.0-200.0","null","null","","","","","","","","","","","","","","fixation","","","2","2","","","","","","","","","",""
"","","","","","","","","","","","canvas-keyboard-response","201","389328","0.0-201.0","null","null","","","","","","","","","","","","","","stimulus","","","2","2","","","","","","","","","",""
"","","","","","","","","","","","canvas-button-response","202","390430","0.0-202.0","1102","cat","","","","","","","","","","","","","","perceptual","","","2","2","","","","","286","cat","6","0","1",""
"","","","","","","","","","","","canvas-button-response","203","391235","0.0-203.0","803","4","","","","","","","","","","","","","","confidence","","","2","2","","","","","","","","","","3"
"","","","","","","","","","","","preload","204","391235","0.0-204.0","","","","","true","","","","","","","","","","","preload","","","2","3","false","[]","[]","[]","","","","","",""
"","","","","","","","","","","","canvas-keyboard-response","205","391538","0.0-205.0","null","null","","","","","","","","","","","","","","fixation","","","2","3","","","","","","","","","",""
"","","","","","","","","","","","canvas-keyboard-response","206","391848","0.0-206.0","null","null","","","","","","","","","","","","","","stimulus","","","2","3","","","","","","","","","",""
"","","","","","","","","","","","canvas-button-response","207","393453","0.0-207.0","1604","train","","","","","","","","","","","","","","perceptual","","","2","3","","","","","245","train","6","0","1",""
"","","","","","","","","","","","canvas-button-response","208","394378","0.0-208.0","924","2","","","","","","","","","","","","","","confidence","","","2","3","","","","","","","","","","4"
"","","","","","","","","","","","preload","209","394378","0.0-209.0","","","","","true","","","","","","","","","","","preload","","","2","4","false","[]","[]","[]","","","","","",""
"","","","","","","","","","","","canvas-keyboard-response","210","394687","0.0-210.0","null","null","","","","","","","","","","","","","","fixation","","","2","4","","","","","","","","","",""
"","","","","","","","","","","","canvas-keyboard-response","211","394998","0.0-211.0","null","null","","","","","","","","","","","","","","stimulus","","","2","4","","","","","","","","","",""
"","","","","","","","","","","","canvas-button-response","212","396108","0.0-212.0","1109","knife","","","","","","","","","","","","","","perceptual","","","2","4","","","","","370","knife","6","0","1",""
"","","","","","","","","","","","canvas-button-response","213","396920","0.0-213.0","811","7","","","","","","","","","","","","","","confidence","","","2","4","","","","","","","","","","5"
"","","","","","","","","","","","preload","214","396921","0.0-214.0","","","","","true","","","","","","","","","","","preload","","","2","5","false","[]","[]","[]","","","","","",""
"","","","","","","","","","","","canvas-keyboard-response","215","397227","0.0-215.0","null","null","","","","","","","","","","","","","","fixation","","","2","5","","","","","","","","","",""
"","","","","","","","","","","","canvas-keyboard-response","216","397532","0.0-216.0","null","null","","","","","","","","","","","","","","stimulus","","","2","5","","","","","","","","","",""
"","","","","","","","","","","","canvas-button-response","217","399390","0.0-217.0","1857","cat","","","","","","","","","","","","","","perceptual","","","2","5","","","","","284","cat","6","0","1",""
"","","","","","","","","","","","canvas-button-response","218","400468","0.0-218.0","1077","1","","","","","","","","","","","","","","confidence","","","2","5","","","","","","","","","","6"
"","","","","","","","","","","","preload","219","400468","0.0-219.0","","","","","true","","","","","","","","","","","preload","","","2","6","false","[]","[]","[]","","","","","",""
"","","","","","","","","","","","canvas-keyboard-response","220","400769","0.0-220.0","null","null","","","","","","","","","","","","","","fixation","","","2","6","","","","","","","","","",""
"","","","","","","","","","","","canvas-keyboard-response","221","401078","0.0-221.0","null","null","","","","","","","","","","","","","","stimulus","","","2","6","","","","","","","","","",""
"","","","","","","","","","","","canvas-button-response","222","402263","0.0-222.0","1184","phone","","","","","","","","","","","","","","perceptual","","","2","6","","","","","88","phone","6","0","1",""
"","","","","","","","","","","","canvas-button-response","223","403611","0.0-223.0","1348","5","","","","","","","","","","","","","","confidence","","","2","6","","","","","","","","","","7"
"","","","","","","","","","","","preload","224","403612","0.0-224.0","","","","","true","","","","","","","","","","","preload","","","2","7","false","[]","[]","[]","","","","","",""
"","","","","","","","","","","","canvas-keyboard-response","225","403918","0.0-225.0","null","null","","","","","","","","","","","","","","fixation","","","2","7","","","","","","","","","",""
"","","","","","","","","","","","canvas-keyboard-response","226","404228","0.0-226.0","null","null","","","","","","","","","","","","","","stimulus","","","2","7","","","","","","","","","",""
"","","","","","","","","","","","canvas-button-response","227","405327","0.0-227.0","1098","knife","","","","","","","","","","","","","","perceptual","","","2","7","","","","","391","knife","10","0","1",""
"","","","","","","","","","","","canvas-button-response","228","406142","0.0-228.0","814","4","","","","","","","","","","","","","","confidence","","","2","7","","","","","","","","","","8"
"","","","","","","","","","","","preload","229","406143","0.0-229.0","","","","","true","","","","","","","","","","","preload","","","2","8","false","[]","[]","[]","","","","","",""
"","","","","","","","","","","","canvas-keyboard-response","230","406448","0.0-230.0","null","null","","","","","","","","","","","","","","fixation","","","2","8","","","","","","","","","",""
"","","","","","","","","","","","canvas-keyboard-response","231","406758","0.0-231.0","null","null","","","","","","","","","","","","","","stimulus","","","2","8","","","","","","","","","",""
"","","","","","","","","","","","canvas-button-response","232","407581","0.0-232.0","822","cat","","","","","","","","","","","","","","perceptual","","","2","8","","","","","283","cat","6","0","1",""
"","","","","","","","","","","","canvas-button-response","233","408367","0.0-233.0","785","8","","","","","","","","","","","","","","confidence","","","2","8","","","","","","","","","","9"
"","","","","","","","","","","","preload","234","408368","0.0-234.0","","","","","true","","","","","","","","","","","preload","","","2","9","false","[]","[]","[]","","","","","",""
"","","","","","","","","","","","canvas-keyboard-response","235","408669","0.0-235.0","null","null","","","","","","","","","","","","","","fixation","","","2","9","","","","","","","","","",""
"","","","","","","","","","","","canvas-keyboard-response","236","408979","0.0-236.0","null","null","","","","","","","","","","","","","","stimulus","","","2","9","","","","","","","","","",""
"","","","","","","","","","","","canvas-button-response","237","410004","0.0-237.0","1025","bridge","","","","","","","","","","","","","","perceptual","","","2","9","","","","","174","bridge","6","0","1",""
"","","","","","","","","","","","canvas-button-response","238","410757","0.0-238.0","752","3","","","","","","","","","","","","","","confidence","","","2","9","","","","","","","","","","10"
"","","","","","","","","","","","preload","239","410757","0.0-239.0","","","","","true","","","","","","","","","","","preload","","","2","10","false","[]","[]","[]","","","","","",""
"","","","","","","","","","","","canvas-keyboard-response","240","411068","0.0-240.0","null","null","","","","","","","","","","","","","","fixation","","","2","10","","","","","","","","","",""
"","","","","","","","","","","","canvas-keyboard-response","241","411372","0.0-241.0","null","null","","","","","","","","","","","","","","stimulus","","","2","10","","","","","","","","","",""
"","","","","","","","","","","","canvas-button-response","242","412352","0.0-242.0","979","train","","","","","","","","","","","","","","perceptual","","","2","10","","","","","247","train","6","0","1",""
"","","","","","","","","","","","canvas-button-response","243","413083","0.0-243.0","730","3","","","","","","","","","","","","","","confidence","","","2","10","","","","","","","","","","11"
"","","","","","","","","","","","preload","244","413083","0.0-244.0","","","","","true","","","","","","","","","","","preload","","","2","11","false","[]","[]","[]","","","","","",""
"","","","","","","","","","","","canvas-keyboard-response","245","413388","0.0-245.0","null","null","","","","","","","","","","","","","","fixation","","","2","11","","","","","","","","","",""
"","","","","","","","","","","","canvas-keyboard-response","246","413698","0.0-246.0","null","null","","","","","","","","","","","","","","stimulus","","","2","11","","","","","","","","","",""
"","","","","","","","","","","","canvas-button-response","247","419417","0.0-247.0","5718","train","","","","","","","","","","","","","","perceptual","","","2","11","","","","","336","elephant","6","0","0",""
"","","","","","","","","","","","canvas-button-response","248","420516","0.0-248.0","1099","0","","","","","","","","","","","","","","confidence","","","2","11","","","","","","","","","","11"
"","","","","","","","","","","","preload","249","420517","0.0-249.0","","","","","true","","","","","","","","","","","preload","","","2","12","false","[]","[]","[]","","","","","",""
"","","","","","","","","","","","canvas-keyboard-response","250","420820","0.0-250.0","null","null","","","","","","","","","","","","","","fixation","","","2","12","","","","","","","","","",""
"","","","","","","","","","","","canvas-keyboard-response","251","421128","0.0-251.0","null","null","","","","","","","","","","","","","","stimulus","","","2","12","","","","","","","","","",""
"","","","","","","","","","","","canvas-button-response","252","422162","0.0-252.0","1033","train","","","","","","","","","","","","","","perceptual","","","2","12","","","","","255","train","6","0","1",""
"","","","","","","","","","","","canvas-button-response","253","423077","0.0-253.0","914","7","","","","","","","","","","","","","","confidence","","","2","12","","","","","","","","","","12"
"","","","","","","","","","","","preload","254","423078","0.0-254.0","","","","","true","","","","","","","","","","","preload","","","2","13","false","[]","[]","[]","","","","","",""
"","","","","","","","","","","","canvas-keyboard-response","255","423380","0.0-255.0","null","null","","","","","","","","","","","","","","fixation","","","2","13","","","","","","","","","",""
"","","","","","","","","","","","canvas-keyboard-response","256","423688","0.0-256.0","null","null","","","","","","","","","","","","","","stimulus","","","2","13","","","","","","","","","",""
"","","","","","","","","","","","canvas-button-response","257","424361","0.0-257.0","672","cat","","","","","","","","","","","","","","perceptual","","","2","13","","","","","285","cat","6","0","1",""
"","","","","","","","","","","","canvas-button-response","258","425021","0.0-258.0","658","9","","","","","","","","","","","","","","confidence","","","2","13","","","","","","","","","","13"
"","","","","","","","","","","","preload","259","425021","0.0-259.0","","","","","true","","","","","","","","","","","preload","","","2","14","false","[]","[]","[]","","","","","",""
"","","","","","","","","","","","canvas-keyboard-response","260","425323","0.0-260.0","null","null","","","","","","","","","","","","","","fixation","","","2","14","","","","","","","","","",""
"","","","","","","","","","","","canvas-keyboard-response","261","425628","0.0-261.0","null","null","","","","","","","","","","","","","","stimulus","","","2","14","","","","","","","","","",""
"","","","","","","","","","","","canvas-button-response","262","427589","0.0-262.0","1959","knife","","","","","","","","","","","","","","perceptual","","","2","14","","","","","368","knife","6","0","1",""
"","","","","","","","","","","","canvas-button-response","263","429915","0.0-263.0","2325","4","","","","","","","","","","","","","","confidence","","","2","14","","","","","","","","","","14"
"","","","","","","","","","","","preload","264","429915","0.0-264.0","","","","","true","","","","","","","","","","","preload","","","2","15","false","[]","[]","[]","","","","","",""
"","","","","","","","","","","","canvas-keyboard-response","265","430218","0.0-265.0","null","null","","","","","","","","","","","","","","fixation","","","2","15","","","","","","","","","",""
"","","","","","","","","","","","canvas-keyboard-response","266","430526","0.0-266.0","null","null","","","","","","","","","","","","","","stimulus","","","2","15","","","","","","","","","",""
"","","","","","","","","","","","canvas-button-response","267","432609","0.0-267.0","2082","house","","","","","","","","","","","","","","perceptual","","","2","15","","","","","272","train","10","0","0",""
"","","","","","","","","","","","canvas-button-response","268","433361","0.0-268.0","751","2","","","","","","","","","","","","","","confidence","","","2","15","","","","","","","","","","14"
"","","","","","","","","","","","preload","269","433361","0.0-269.0","","","","","true","","","","","","","","","","","preload","","","2","16","false","[]","[]","[]","","","","","",""
"","","","","","","","","","","","canvas-keyboard-response","270","433667","0.0-270.0","null","null","","","","","","","","","","","","","","fixation","","","2","16","","","","","","","","","",""
"","","","","","","","","","","","canvas-keyboard-response","271","433977","0.0-271.0","null","null","","","","","","","","","","","","","","stimulus","","","2","16","","","","","","","","","",""
"","","","","","","","","","","","canvas-button-response","272","437298","0.0-272.0","3320","house","","","","","","","","","","","","","","perceptual","","","2","16","","","","","80","phone","6","0","0",""
"","","","","","","","","","","","canvas-button-response","273","438206","0.0-273.0","907","2","","","","","","","","","","","","","","confidence","","","2","16","","","","","","","","","","14"
"","","","","","","","","","","","preload","274","438206","0.0-274.0","","","","","true","","","","","","","","","","","preload","","","2","17","false","[]","[]","[]","","","","","",""
"","","","","","","","","","","","canvas-keyboard-response","275","438507","0.0-275.0","null","null","","","","","","","","","","","","","","fixation","","","2","17","","","","","","","","","",""
"","","","","","","","","","","","canvas-keyboard-response","276","438817","0.0-276.0","null","null","","","","","","","","","","","","","","stimulus","","","2","17","","","","","","","","","",""
"","","","","","","","","","","","canvas-button-response","277","440312","0.0-277.0","1495","house","","","","","","","","","","","","","","perceptual","","","2","17","","","","","90","phone","6","0","0",""
"","","","","","","","","","","","canvas-button-response","278","440979","0.0-278.0","666","2","","","","","","","","","","","","","","confidence","","","2","17","","","","","","","","","","14"
"","","","","","","","","","","","preload","279","440980","0.0-279.0","","","","","true","","","","","","","","","","","preload","","","2","18","false","[]","[]","[]","","","","","",""
"","","","","","","","","","","","canvas-keyboard-response","280","441287","0.0-280.0","null","null","","","","","","","","","","","","","","fixation","","","2","18","","","","","","","","","",""
"","","","","","","","","","","","canvas-keyboard-response","281","441597","0.0-281.0","null","null","","","","","","","","","","","","","","stimulus","","","2","18","","","","","","","","","",""
"","","","","","","","","","","","canvas-button-response","282","442504","0.0-282.0","906","house","","","","","","","","","","","","","","perceptual","","","2","18","","","","","24","house","10","0","1",""
"","","","","","","","","","","","canvas-button-response","283","443988","0.0-283.0","1483","8","","","","","","","","","","","","","","confidence","","","2","18","","","","","","","","","","15"
"","","","","","","","","","","","preload","284","443989","0.0-284.0","","","","","true","","","","","","","","","","","preload","","","2","19","false","[]","[]","[]","","","","","",""
"","","","","","","","","","","","canvas-keyboard-response","285","444291","0.0-285.0","null","null","","","","","","","","","","","","","","fixation","","","2","19","","","","","","","","","",""
"","","","","","","","","","","","canvas-keyboard-response","286","444597","0.0-286.0","null","null","","","","","","","","","","","","","","stimulus","","","2","19","","","","","","","","","",""
"","","","","","","","","","","","canvas-button-response","287","445349","0.0-287.0","751","train","","","","","","","","","","","","","","perceptual","","","2","19","","","","","250","train","6","0","1",""
"","","","","","","","","","","","canvas-button-response","288","446492","0.0-288.0","1142","7","","","","","","","","","","","","","","confidence","","","2","19","","","","","","","","","","16"
"","","","","","","","","","","","preload","289","446492","0.0-289.0","","","","","true","","","","","","","","","","","preload","","","2","20","false","[]","[]","[]","","","","","",""
"","","","","","","","","","","","canvas-keyboard-response","290","446797","0.0-290.0","null","null","","","","","","","","","","","","","","fixation","","","2","20","","","","","","","","","",""
"","","","","","","","","","","","canvas-keyboard-response","291","447107","0.0-291.0","null","null","","","","","","","","","","","","","","stimulus","","","2","20","","","","","","","","","",""
"","","","","","","","","","","","canvas-button-response","292","448096","0.0-292.0","988","cat","","","","","","","","","","","","","","perceptual","","","2","20","","","","","315","cat","10","0","1",""
"","","","","","","","","","","","canvas-button-response","293","449384","0.0-293.0","1287","6","","","","","","","","","","","","","","confidence","","","2","20","","","","","","","","","","17"
"","","","","","","","","","","","preload","294","449385","0.0-294.0","","","","","true","","","","","","","","","","","preload","","","2","21","false","[]","[]","[]","","","","","",""
"","","","","","","","","","","","canvas-keyboard-response","295","449687","0.0-295.0","null","null","","","","","","","","","","","","","","fixation","","","2","21","","","","","","","","","",""
"","","","","","","","","","","","canvas-keyboard-response","296","450007","0.0-296.0","null","null","","","","","","","","","","","","","","stimulus","","","2","21","","","","","","","","","",""
"","","","","","","","","","","","canvas-button-response","297","450980","0.0-297.0","972","phone","","","","","","","","","","","","","","perceptual","","","2","21","","","","","118","phone","10","0","1",""
"","","","","","","","","","","","canvas-button-response","298","451416","0.0-298.0","436","7","","","","","","","","","","","","","","confidence","","","2","21","","","","","","","","","","18"
"","","","","","","","","","","","preload","299","451416","0.0-299.0","","","","","true","","","","","","","","","","","preload","","","2","22","false","[]","[]","[]","","","","","",""
"","","","","","","","","","","","canvas-keyboard-response","300","451727","0.0-300.0","null","null","","","","","","","","","","","","","","fixation","","","2","22","","","","","","","","","",""
"","","","","","","","","","","","canvas-keyboard-response","301","452037","0.0-301.0","null","null","","","","","","","","","","","","","","stimulus","","","2","22","","","","","","","","","",""
"","","","","","","","","","","","canvas-button-response","302","452855","0.0-302.0","817","house","","","","","","","","","","","","","","perceptual","","","2","22","","","","","11","house","6","0","1",""
"","","","","","","","","","","","canvas-button-response","303","453629","0.0-303.0","774","7","","","","","","","","","","","","","","confidence","","","2","22","","","","","","","","","","19"
"","","","","","","","","","","","preload","304","453630","0.0-304.0","","","","","true","","","","","","","","","","","preload","","","2","23","false","[]","[]","[]","","","","","",""
"","","","","","","","","","","","canvas-keyboard-response","305","453937","0.0-305.0","null","null","","","","","","","","","","","","","","fixation","","","2","23","","","","","","","","","",""
"","","","","","","","","","","","canvas-keyboard-response","306","454247","0.0-306.0","null","null","","","","","","","","","","","","","","stimulus","","","2","23","","","","","","","","","",""
"","","","","","","","","","","","canvas-button-response","307","455847","0.0-307.0","1599","house","","","","","","","","","","","","","","perceptual","","","2","23","","","","","322","elephant","6","0","0",""
"","","","","","","","","","","","canvas-button-response","308","456519","0.0-308.0","671","7","","","","","","","","","","","","","","confidence","","","2","23","","","","","","","","","","19"
"","","","","","","","","","","","preload","309","456519","0.0-309.0","","","","","true","","","","","","","","","","","preload","","","2","24","false","[]","[]","[]","","","","","",""
"","","","","","","","","","","","canvas-keyboard-response","310","456827","0.0-310.0","null","null","","","","","","","","","","","","","","fixation","","","2","24","","","","","","","","","",""
"","","","","","","","","","","","canvas-keyboard-response","311","457137","0.0-311.0","null","null","","","","","","","","","","","","","","stimulus","","","2","24","","","","","","","","","",""
"","","","","","","","","","","","canvas-button-response","312","457987","0.0-312.0","849","flower","","","","","","","","","","","","","","perceptual","","","2","24","","","","","234","flower","10","0","1",""
"","","","","","","","","","","","canvas-button-response","313","458587","0.0-313.0","600","7","","","","","","","","","","","","","","confidence","","","2","24","","","","","","","","","","20"
"","","","","","","","","","","","preload","314","458588","0.0-314.0","","","","","true","","","","","","","","","","","preload","","","2","25","false","[]","[]","[]","","","","","",""
"","","","","","","","","","","","canvas-keyboard-response","315","458894","0.0-315.0","null","null","","","","","","","","","","","","","","fixation","","","2","25","","","","","","","","","",""
"","","","","","","","","","","","canvas-keyboard-response","316","459196","0.0-316.0","null","null","","","","","","","","","","","","","","stimulus","","","2","25","","","","","","","","","",""
"","","","","","","","","","","","canvas-button-response","317","460161","0.0-317.0","964","phone","","","","","","","","","","","","","","perceptual","","","2","25","","","","","83","phone","6","0","1",""
"","","","","","","","","","","","canvas-button-response","318","461050","0.0-318.0","888","6","","","","","","","","","","","","","","confidence","","","2","25","","","","","","","","","","21"
"","","","","","","","","","","","preload","319","461050","0.0-319.0","","","","","true","","","","","","","","","","","preload","","","2","26","false","[]","[]","[]","","","","","",""
"","","","","","","","","","","","canvas-keyboard-response","320","461356","0.0-320.0","null","null","","","","","","","","","","","","","","fixation","","","2","26","","","","","","","","","",""
"","","","","","","","","","","","canvas-keyboard-response","321","461666","0.0-321.0","null","null","","","","","","","","","","","","","","stimulus","","","2","26","","","","","","","","","",""
"","","","","","","","","","","","canvas-button-response","322","465837","0.0-322.0","4171","cat","","","","","","","","","","","","","","perceptual","","","2","26","","","","","318","cat","10","0","1",""
"","","","","","","","","","","","canvas-button-response","323","466574","0.0-323.0","736","6","","","","","","","","","","","","","","confidence","","","2","26","","","","","","","","","","22"
"","","","","","","","","","","","preload","324","466574","0.0-324.0","","","","","true","","","","","","","","","","","preload","","","2","27","false","[]","[]","[]","","","","","",""
"","","","","","","","","","","","canvas-keyboard-response","325","466877","0.0-325.0","null","null","","","","","","","","","","","","","","fixation","","","2","27","","","","","","","","","",""
"","","","","","","","","","","","canvas-keyboard-response","326","467187","0.0-326.0","null","null","","","","","","","","","","","","","","stimulus","","","2","27","","","","","","","","","",""
"","","","","","","","","","","","canvas-button-response","327","468106","0.0-327.0","918","cat","","","","","","","","","","","","","","perceptual","","","2","27","","","","","263","train","10","0","0",""
"","","","","","","","","","","","canvas-button-response","328","468800","0.0-328.0","693","6","","","","","","","","","","","","","","confidence","","","2","27","","","","","","","","","","22"
"","","","","","","","","","","","preload","329","468800","0.0-329.0","","","","","true","","","","","","","","","","","preload","","","2","28","false","[]","[]","[]","","","","","",""
"","","","","","","","","","","","canvas-keyboard-response","330","469107","0.0-330.0","null","null","","","","","","","","","","","","","","fixation","","","2","28","","","","","","","","","",""
"","","","","","","","","","","","canvas-keyboard-response","331","469417","0.0-331.0","null","null","","","","","","","","","","","","","","stimulus","","","2","28","","","","","","","","","",""
"","","","","","","","","","","","canvas-button-response","332","472121","0.0-332.0","2703","bed","","","","","","","","","","","","","","perceptual","","","2","28","","","","","275","train","10","0","0",""
"","","","","","","","","","","","canvas-button-response","333","473245","0.0-333.0","1123","0","","","","","","","","","","","","","","confidence","","","2","28","","","","","","","","","","22"
"","","","","","","","","","","","preload","334","473245","0.0-334.0","","","","","true","","","","","","","","","","","preload","","","2","29","false","[]","[]","[]","","","","","",""
"","","","","","","","","","","","canvas-keyboard-response","335","473547","0.0-335.0","null","null","","","","","","","","","","","","","","fixation","","","2","29","","","","","","","","","",""
"","","","","","","","","","","","canvas-keyboard-response","336","473857","0.0-336.0","null","null","","","","","","","","","","","","","","stimulus","","","2","29","","","","","","","","","",""
"","","","","","","","","","","","canvas-button-response","337","475327","0.0-337.0","1469","car","","","","","","","","","","","","","","perceptual","","","2","29","","","","","66","car","10","0","1",""
"","","","","","","","","","","","canvas-button-response","338","475943","0.0-338.0","615","6","","","","","","","","","","","","","","confidence","","","2","29","","","","","","","","","","23"
"","","","","","","","","","","","preload","339","475943","0.0-339.0","","","","","true","","","","","","","","","","","preload","","","2","30","false","[]","[]","[]","","","","","",""
"","","","","","","","","","","","canvas-keyboard-response","340","476247","0.0-340.0","null","null","","","","","","","","","","","","","","fixation","","","2","30","","","","","","","","","",""
"","","","","","","","","","","","canvas-keyboard-response","341","476557","0.0-341.0","null","null","","","","","","","","","","","","","","stimulus","","","2","30","","","","","","","","","",""
"","","","","","","","","","","","canvas-button-response","342","477603","0.0-342.0","1045","elephant","","","","","","","","","","","","","","perceptual","","","2","30","","","","","333","elephant","6","0","1",""
"","","","","","","","","","","","canvas-button-response","343","478849","0.0-343.0","1244","5","","","","","","","","","","","","","","confidence","","","2","30","","","","","","","","","","24"
"","","","","","","","","","","","preload","344","478849","0.0-344.0","","","","","true","","","","","","","","","","","preload","","","2","31","false","[]","[]","[]","","","","","",""
"","","","","","","","","","","","canvas-keyboard-response","345","479157","0.0-345.0","null","null","","","","","","","","","","","","","","fixation","","","2","31","","","","","","","","","",""
"","","","","","","","","","","","canvas-keyboard-response","346","479467","0.0-346.0","null","null","","","","","","","","","","","","","","stimulus","","","2","31","","","","","","","","","",""
"","","","","","","","","","","","canvas-button-response","347","480903","0.0-347.0","1435","train","","","","","","","","","","","","","","perceptual","","","2","31","","","","","332","elephant","6","0","0",""
"","","","","","","","","","","","canvas-button-response","348","481704","0.0-348.0","801","5","","","","","","","","","","","","","","confidence","","","2","31","","","","","","","","","","24"
"","","","","","","","","","","","preload","349","481705","0.0-349.0","","","","","true","","","","","","","","","","","preload","","","2","32","false","[]","[]","[]","","","","","",""
"","","","","","","","","","","","canvas-keyboard-response","350","482007","0.0-350.0","null","null","","","","","","","","","","","","","","fixation","","","2","32","","","","","","","","","",""
"","","","","","","","","","","","canvas-keyboard-response","351","482317","0.0-351.0","null","null","","","","","","","","","","","","","","stimulus","","","2","32","","","","","","","","","",""
"","","","","","","","","","","","canvas-button-response","352","484445","0.0-352.0","2127","cat","","","","","","","","","","","","","","perceptual","","","2","32","","","","","399","knife","10","0","0",""
"","","","","","","","","","","","canvas-button-response","353","485433","0.0-353.0","987","4","","","","","","","","","","","","","","confidence","","","2","32","","","","","","","","","","24"
"","","","","","","","","","","","preload","354","485433","0.0-354.0","","","","","true","","","","","","","","","","","preload","","","2","33","false","[]","[]","[]","","","","","",""
"","","","","","","","","","","","canvas-keyboard-response","355","485737","0.0-355.0","null","null","","","","","","","","","","","","","","fixation","","","2","33","","","","","","","","","",""
"","","","","","","","","","","","canvas-keyboard-response","356","486052","0.0-356.0","null","null","","","","","","","","","","","","","","stimulus","","","2","33","","","","","","","","","",""
"","","","","","","","","","","","canvas-button-response","357","487014","0.0-357.0","961","train","","","","","","","","","","","","","","perceptual","","","2","33","","","","","267","train","10","0","1",""
"","","","","","","","","","","","canvas-button-response","358","487538","0.0-358.0","523","4","","","","","","","","","","","","","","confidence","","","2","33","","","","","","","","","","25"
"","","","","","","","","","","","preload","359","487538","0.0-359.0","","","","","true","","","","","","","","","","","preload","","","2","34","false","[]","[]","[]","","","","","",""
"","","","","","","","","","","","canvas-keyboard-response","360","487847","0.0-360.0","null","null","","","","","","","","","","","","","","fixation","","","2","34","","","","","","","","","",""
"","","","","","","","","","","","canvas-keyboard-response","361","488157","0.0-361.0","null","null","","","","","","","","","","","","","","stimulus","","","2","34","","","","","","","","","",""
"","","","","","","","","","","","canvas-button-response","362","494085","0.0-362.0","5928","bridge","","","","","","","","","","","","","","perceptual","","","2","34","","","","","232","flower","10","0","0",""
"","","","","","","","","","","","canvas-button-response","363","494701","0.0-363.0","615","3","","","","","","","","","","","","","","confidence","","","2","34","","","","","","","","","","25"
"","","","","","","","","","","","preload","364","494701","0.0-364.0","","","","","true","","","","","","","","","","","preload","","","2","35","false","[]","[]","[]","","","","","",""
"","","","","","","","","","","","canvas-keyboard-response","365","495006","0.0-365.0","null","null","","","","","","","","","","","","","","fixation","","","2","35","","","","","","","","","",""
"","","","","","","","","","","","canvas-keyboard-response","366","495316","0.0-366.0","null","null","","","","","","","","","","","","","","stimulus","","","2","35","","","","","","","","","",""
"","","","","","","","","","","","canvas-button-response","367","496533","0.0-367.0","1216","flower","","","","","","","","","","","","","","perceptual","","","2","35","","","","","225","flower","10","0","1",""
"","","","","","","","","","","","canvas-button-response","368","497097","0.0-368.0","564","3","","","","","","","","","","","","","","confidence","","","2","35","","","","","","","","","","26"
"","","","","","","","","","","","preload","369","497098","0.0-369.0","","","","","true","","","","","","","","","","","preload","","","2","36","false","[]","[]","[]","","","","","",""
"","","","","","","","","","","","canvas-keyboard-response","370","497406","0.0-370.0","null","null","","","","","","","","","","","","","","fixation","","","2","36","","","","","","","","","",""
"","","","","","","","","","","","canvas-keyboard-response","371","497715","0.0-371.0","null","null","","","","","","","","","","","","","","stimulus","","","2","36","","","","","","","","","",""
"","","","","","","","","","","","canvas-button-response","372","498558","0.0-372.0","842","elephant","","","","","","","","","","","","","","perceptual","","","2","36","","","","","329","elephant","6","0","1",""
"","","","","","","","","","","","canvas-button-response","373","499710","0.0-373.0","1151","6","","","","","","","","","","","","","","confidence","","","2","36","","","","","","","","","","27"
"","","","","","","","","","","","preload","374","499710","0.0-374.0","","","","","true","","","","","","","","","","","preload","","","2","37","false","[]","[]","[]","","","","","",""
"","","","","","","","","","","","canvas-keyboard-response","375","500016","0.0-375.0","null","null","","","","","","","","","","","","","","fixation","","","2","37","","","","","","","","","",""
"","","","","","","","","","","","canvas-keyboard-response","376","500319","0.0-376.0","null","null","","","","","","","","","","","","","","stimulus","","","2","37","","","","","","","","","",""
"","","","","","","","","","","","canvas-button-response","377","501134","0.0-377.0","814","flower","","","","","","","","","","","","","","perceptual","","","2","37","","","","","219","flower","6","0","1",""
"","","","","","","","","","","","canvas-button-response","378","501993","0.0-378.0","858","6","","","","","","","","","","","","","","confidence","","","2","37","","","","","","","","","","28"
"","","","","","","","","","","","preload","379","501993","0.0-379.0","","","","","true","","","","","","","","","","","preload","","","2","38","false","[]","[]","[]","","","","","",""
"","","","","","","","","","","","canvas-keyboard-response","380","502295","0.0-380.0","null","null","","","","","","","","","","","","","","fixation","","","2","38","","","","","","","","","",""
"","","","","","","","","","","","canvas-keyboard-response","381","502606","0.0-381.0","null","null","","","","","","","","","","","","","","stimulus","","","2","38","","","","","","","","","",""
"","","","","","","","","","","","canvas-button-response","382","504949","0.0-382.0","2342","bridge","","","","","","","","","","","","","","perceptual","","","2","38","","","","","183","bridge","10","0","1",""
"","","","","","","","","","","","canvas-button-response","383","505915","0.0-383.0","966","4","","","","","","","","","","","","","","confidence","","","2","38","","","","","","","","","","29"
"","","","","","","","","","","","preload","384","505916","0.0-384.0","","","","","true","","","","","","","","","","","preload","","","2","39","false","[]","[]","[]","","","","","",""
"","","","","","","","","","","","canvas-keyboard-response","385","506225","0.0-385.0","null","null","","","","","","","","","","","","","","fixation","","","2","39","","","","","","","","","",""
"","","","","","","","","","","","canvas-keyboard-response","386","506535","0.0-386.0","null","null","","","","","","","","","","","","","","stimulus","","","2","39","","","","","","","","","",""
"","","","","","","","","","","","canvas-button-response","387","507198","0.0-387.0","662","house","","","","","","","","","","","","","","perceptual","","","2","39","","","","","8","house","6","0","1",""
"","","","","","","","","","","","canvas-button-response","388","508728","0.0-388.0","1529","6","","","","","","","","","","","","","","confidence","","","2","39","","","","","","","","","","30"
"","","","","","","","","","","","preload","389","508728","0.0-389.0","","","","","true","","","","","","","","","","","preload","","","2","40","false","[]","[]","[]","","","","","",""
"","","","","","","","","","","","canvas-keyboard-response","390","509036","0.0-390.0","null","null","","","","","","","","","","","","","","fixation","","","2","40","","","","","","","","","",""
"","","","","","","","","","","","canvas-keyboard-response","391","509346","0.0-391.0","null","null","","","","","","","","","","","","","","stimulus","","","2","40","","","","","","","","","",""
"","","","","","","","","","","","canvas-button-response","392","510525","0.0-392.0","1178","house","","","","","","","","","","","","","","perceptual","","","2","40","","","","","25","house","10","0","1",""
"","","","","","","","","","","","canvas-button-response","393","511010","0.0-393.0","485","5","","","","","","","","","","","","","","confidence","","","2","40","","","","","","","","","","31"
"","","","","","","","","","","","preload","394","511010","0.0-394.0","","","","","true","","","","","","","","","","","preload","","","2","41","false","[]","[]","[]","","","","","",""
"","","","","","","","","","","","canvas-keyboard-response","395","511315","0.0-395.0","null","null","","","","","","","","","","","","","","fixation","","","2","41","","","","","","","","","",""
"","","","","","","","","","","","canvas-keyboard-response","396","511636","0.0-396.0","null","null","","","","","","","","","","","","","","stimulus","","","2","41","","","","","","","","","",""
"","","","","","","","","","","","canvas-button-response","397","512578","0.0-397.0","941","phone","","","","","","","","","","","","","","perceptual","","","2","41","","","","","111","phone","10","0","1",""
"","","","","","","","","","","","canvas-button-response","398","513108","0.0-398.0","529","5","","","","","","","","","","","","","","confidence","","","2","41","","","","","","","","","","32"
"","","","","","","","","","","","preload","399","513108","0.0-399.0","","","","","true","","","","","","","","","","","preload","","","2","42","false","[]","[]","[]","","","","","",""
"","","","","","","","","","","","canvas-keyboard-response","400","513415","0.0-400.0","null","null","","","","","","","","","","","","","","fixation","","","2","42","","","","","","","","","",""
"","","","","","","","","","","","canvas-keyboard-response","401","513726","0.0-401.0","null","null","","","","","","","","","","","","","","stimulus","","","2","42","","","","","","","","","",""
"","","","","","","","","","","","canvas-button-response","402","515212","0.0-402.0","1486","car","","","","","","","","","","","","","","perceptual","","","2","42","","","","","55","car","6","0","1",""
"","","","","","","","","","","","canvas-button-response","403","515606","0.0-403.0","393","5","","","","","","","","","","","","","","confidence","","","2","42","","","","","","","","","","33"
"","","","","","","","","","","","preload","404","515607","0.0-404.0","","","","","true","","","","","","","","","","","preload","","","2","43","false","[]","[]","[]","","","","","",""
"","","","","","","","","","","","canvas-keyboard-response","405","515916","0.0-405.0","null","null","","","","","","","","","","","","","","fixation","","","2","43","","","","","","","","","",""
"","","","","","","","","","","","canvas-keyboard-response","406","516225","0.0-406.0","null","null","","","","","","","","","","","","","","stimulus","","","2","43","","","","","","","","","",""
"","","","","","","","","","","","canvas-button-response","407","516995","0.0-407.0","769","car","","","","","","","","","","","","","","perceptual","","","2","43","","","","","40","car","6","0","1",""
"","","","","","","","","","","","canvas-button-response","408","517360","0.0-408.0","364","5","","","","","","","","","","","","","","confidence","","","2","43","","","","","","","","","","34"
"","","","","","","","","","","","preload","409","517360","0.0-409.0","","","","","true","","","","","","","","","","","preload","","","2","44","false","[]","[]","[]","","","","","",""
"","","","","","","","","","","","canvas-keyboard-response","410","517666","0.0-410.0","null","null","","","","","","","","","","","","","","fixation","","","2","44","","","","","","","","","",""
"","","","","","","","","","","","canvas-keyboard-response","411","517970","0.0-411.0","null","null","","","","","","","","","","","","","","stimulus","","","2","44","","","","","","","","","",""
"","","","","","","","","","","","canvas-button-response","412","518912","0.0-412.0","942","train","","","","","","","","","","","","","","perceptual","","","2","44","","","","","241","train","6","0","1",""
"","","","","","","","","","","","canvas-button-response","413","519471","0.0-413.0","558","5","","","","","","","","","","","","","","confidence","","","2","44","","","","","","","","","","35"
"","","","","","","","","","","","preload","414","519471","0.0-414.0","","","","","true","","","","","","","","","","","preload","","","2","45","false","[]","[]","[]","","","","","",""
"","","","","","","","","","","","canvas-keyboard-response","415","519775","0.0-415.0","null","null","","","","","","","","","","","","","","fixation","","","2","45","","","","","","","","","",""
"","","","","","","","","","","","canvas-keyboard-response","416","520085","0.0-416.0","null","null","","","","","","","","","","","","","","stimulus","","","2","45","","","","","","","","","",""
"","","","","","","","","","","","canvas-button-response","417","521195","0.0-417.0","1109","bed","","","","","","","","","","","","","","perceptual","","","2","45","","","","","122","bed","6","0","1",""
"","","","","","","","","","","","canvas-button-response","418","523680","0.0-418.0","2484","5","","","","","","","","","","","","","","confidence","","","2","45","","","","","","","","","","36"
"","","","","","","","","","","","preload","419","523681","0.0-419.0","","","","","true","","","","","","","","","","","preload","","","2","46","false","[]","[]","[]","","","","","",""
"","","","","","","","","","","","canvas-keyboard-response","420","523985","0.0-420.0","null","null","","","","","","","","","","","","","","fixation","","","2","46","","","","","","","","","",""
"","","","","","","","","","","","canvas-keyboard-response","421","524295","0.0-421.0","null","null","","","","","","","","","","","","","","stimulus","","","2","46","","","","","","","","","",""
"","","","","","","","","","","","canvas-button-response","422","525377","0.0-422.0","1080","phone","","","","","","","","","","","","","","perceptual","","","2","46","","","","","87","phone","6","0","1",""
"","","","","","","","","","","","canvas-button-response","423","525962","0.0-423.0","585","4","","","","","","","","","","","","","","confidence","","","2","46","","","","","","","","","","37"
"","","","","","","","","","","","preload","424","525962","0.0-424.0","","","","","true","","","","","","","","","","","preload","","","2","47","false","[]","[]","[]","","","","","",""
"","","","","","","","","","","","canvas-keyboard-response","425","526266","0.0-425.0","null","null","","","","","","","","","","","","","","fixation","","","2","47","","","","","","","","","",""
"","","","","","","","","","","","canvas-keyboard-response","426","526575","0.0-426.0","null","null","","","","","","","","","","","","","","stimulus","","","2","47","","","","","","","","","",""
"","","","","","","","","","","","canvas-button-response","427","527418","0.0-427.0","842","cat","","","","","","","","","","","","","","perceptual","","","2","47","","","","","359","elephant","10","0","0",""
"","","","","","","","","","","","canvas-button-response","428","528412","0.0-428.0","993","3","","","","","","","","","","","","","","confidence","","","2","47","","","","","","","","","","37"
"","","","","","","","","","","","preload","429","528412","0.0-429.0","","","","","true","","","","","","","","","","","preload","","","2","48","false","[]","[]","[]","","","","","",""
"","","","","","","","","","","","canvas-keyboard-response","430","528715","0.0-430.0","null","null","","","","","","","","","","","","","","fixation","","","2","48","","","","","","","","","",""
"","","","","","","","","","","","canvas-keyboard-response","431","529026","0.0-431.0","null","null","","","","","","","","","","","","","","stimulus","","","2","48","","","","","","","","","",""
"","","","","","","","","","","","canvas-button-response","432","529899","0.0-432.0","872","bed","","","","","","","","","","","","","","perceptual","","","2","48","","","","","156","bed","10","0","1",""
"","","","","","","","","","","","canvas-button-response","433","530581","0.0-433.0","681","7","","","","","","","","","","","","","","confidence","","","2","48","","","","","","","","","","38"
"","","","","","","","","","","","preload","434","530581","0.0-434.0","","","","","true","","","","","","","","","","","preload","","","2","49","false","[]","[]","[]","","","","","",""
"","","","","","","","","","","","canvas-keyboard-response","435","530888","0.0-435.0","null","null","","","","","","","","","","","","","","fixation","","","2","49","","","","","","","","","",""
"","","","","","","","","","","","canvas-keyboard-response","436","531196","0.0-436.0","null","null","","","","","","","","","","","","","","stimulus","","","2","49","","","","","","","","","",""
"","","","","","","","","","","","canvas-button-response","437","533386","0.0-437.0","2189","bridge","","","","","","","","","","","","","","perceptual","","","2","49","","","","","233","flower","10","0","0",""
"","","","","","","","","","","","canvas-button-response","438","534059","0.0-438.0","672","3","","","","","","","","","","","","","","confidence","","","2","49","","","","","","","","","","38"
"","","","","","","","","","","","html-button-response","439","541896","0.0-439.0","7837","0","","","","","","","","","","","","","","<p style=""font-size:20px;color:#000000"">You got 38 out of 50 trials correct in this block.<br><br>You have completed 6% of the experiment.<br><br>Take a short break.<br><br>When you are ready, click Continue to proceed.","","","2","49","","","","","","","","","",""
"","","","","","","","","","","","html-keyboard-response","440","542897","0.0-440.0","null","null","","","","","","","","","","","","","","<p style=""font-size:32px;color:#000000""><br><br> RUN: &nbsp 1/4 <br><br> BLOCK: 2/4 ","","","2","49","","","","","","","","","",""
"","","","","","","","","","","","preload","441","542898","0.0-441.0","","","","","true","","","","","","","","","","","preload","","","2","50","false","[]","[]","[]","","","","","",""
"","","","","","","","","","","","canvas-keyboard-response","442","543203","0.0-442.0","null","null","","","","","","","","","","","","","","fixation","","","2","50","","","","","","","","","",""
"","","","","","","","","","","","canvas-keyboard-response","443","543506","0.0-443.0","null","null","","","","","","","","","","","","","","stimulus","","","2","50","","","","","","","","","",""
"","","","","","","","","","","","canvas-button-response","444","546111","0.0-444.0","2605","phone","","","","","","","","","","","","","","perceptual","","","2","50","","","","","320","elephant","6","0","0",""
"","","","","","","","","","","","canvas-button-response","445","547442","0.0-445.0","1330","2","","","","","","","","","","","","","","confidence","","","2","50","","","","","","","","","","0"
"","","","","","","","","","","","preload","446","547442","0.0-446.0","","","","","true","","","","","","","","","","","preload","","","2","51","false","[]","[]","[]","","","","","",""
"","","","","","","","","","","","canvas-keyboard-response","447","547746","0.0-447.0","null","null","","","","","","","","","","","","","","fixation","","","2","51","","","","","","","","","",""
"","","","","","","","","","","","canvas-keyboard-response","448","548056","0.0-448.0","null","null","","","","","","","","","","","","","","stimulus","","","2","51","","","","","","","","","",""
"","","","","","","","","","","","canvas-button-response","449","549304","0.0-449.0","1247","knife","","","","","","","","","","","","","","perceptual","","","2","51","","","","","372","knife","6","0","1",""
"","","","","","","","","","","","canvas-button-response","450","549969","0.0-450.0","664","3","","","","","","","","","","","","","","confidence","","","2","51","","","","","","","","","","1"
"","","","","","","","","","","","preload","451","549970","0.0-451.0","","","","","true","","","","","","","","","","","preload","","","2","52","false","[]","[]","[]","","","","","",""
"","","","","","","","","","","","canvas-keyboard-response","452","550275","0.0-452.0","null","null","","","","","","","","","","","","","","fixation","","","2","52","","","","","","","","","",""
"","","","","","","","","","","","canvas-keyboard-response","453","550586","0.0-453.0","null","null","","","","","","","","","","","","","","stimulus","","","2","52","","","","","","","","","",""
"","","","","","","","","","","","canvas-button-response","454","551294","0.0-454.0","707","knife","","","","","","","","","","","","","","perceptual","","","2","52","","","","","361","knife","6","0","1",""
"","","","","","","","","","","","canvas-button-response","455","551873","0.0-455.0","578","4","","","","","","","","","","","","","","confidence","","","2","52","","","","","","","","","","2"
"","","","","","","","","","","","preload","456","551873","0.0-456.0","","","","","true","","","","","","","","","","","preload","","","2","53","false","[]","[]","[]","","","","","",""
"","","","","","","","","","","","canvas-keyboard-response","457","552176","0.0-457.0","null","null","","","","","","","","","","","","","","fixation","","","2","53","","","","","","","","","",""
"","","","","","","","","","","","canvas-keyboard-response","458","552486","0.0-458.0","null","null","","","","","","","","","","","","","","stimulus","","","2","53","","","","","","","","","",""
"","","","","","","","","","","","canvas-button-response","459","553454","0.0-459.0","969","house","","","","","","","","","","","","","","perceptual","","","2","53","","","","","14","house","6","0","1",""
"","","","","","","","","","","","canvas-button-response","460","554097","0.0-460.0","642","4","","","","","","","","","","","","","","confidence","","","2","53","","","","","","","","","","3"
"","","","","","","","","","","","preload","461","554097","0.0-461.0","","","","","true","","","","","","","","","","","preload","","","2","54","false","[]","[]","[]","","","","","",""
"","","","","","","","","","","","canvas-keyboard-response","462","554404","0.0-462.0","null","null","","","","","","","","","","","","","","fixation","","","2","54","","","","","","","","","",""
"","","","","","","","","","","","canvas-keyboard-response","463","554714","0.0-463.0","null","null","","","","","","","","","","","","","","stimulus","","","2","54","","","","","","","","","",""
"","","","","","","","","","","","canvas-button-response","464","555586","0.0-464.0","871","bed","","","","","","","","","","","","","","perceptual","","","2","54","","","","","121","bed","6","0","1",""
"","","","","","","","","","","","canvas-button-response","465","556353","0.0-465.0","766","3","","","","","","","","","","","","","","confidence","","","2","54","","","","","","","","","","4"
"","","","","","","","","","","","preload","466","556353","0.0-466.0","","","","","true","","","","","","","","","","","preload","","","2","55","false","[]","[]","[]","","","","","",""
"","","","","","","","","","","","canvas-keyboard-response","467","556655","0.0-467.0","null","null","","","","","","","","","","","","","","fixation","","","2","55","","","","","","","","","",""
"","","","","","","","","","","","canvas-keyboard-response","468","556965","0.0-468.0","null","null","","","","","","","","","","","","","","stimulus","","","2","55","","","","","","","","","",""
"","","","","","","","","","","","canvas-button-response","469","557992","0.0-469.0","1026","bed","","","","","","","","","","","","","","perceptual","","","2","55","","","","","149","bed","10","0","1",""
"","","","","","","","","","","","canvas-button-response","470","558508","0.0-470.0","516","3","","","","","","","","","","","","","","confidence","","","2","55","","","","","","","","","","5"
"","","","","","","","","","","","preload","471","558509","0.0-471.0","","","","","true","","","","","","","","","","","preload","","","2","56","false","[]","[]","[]","","","","","",""
"","","","","","","","","","","","canvas-keyboard-response","472","558814","0.0-472.0","null","null","","","","","","","","","","","","","","fixation","","","2","56","","","","","","","","","",""
"","","","","","","","","","","","canvas-keyboard-response","473","559124","0.0-473.0","null","null","","","","","","","","","","","","","","stimulus","","","2","56","","","","","","","","","",""
"","","","","","","","","","","","canvas-button-response","474","560096","0.0-474.0","971","car","","","","","","","","","","","","","","perceptual","","","2","56","","","","","73","car","10","0","1",""
"","","","","","","","","","","","canvas-button-response","475","560540","0.0-475.0","443","5","","","","","","","","","","","","","","confidence","","","2","56","","","","","","","","","","6"
"","","","","","","","","","","","preload","476","560541","0.0-476.0","","","","","true","","","","","","","","","","","preload","","","2","57","false","[]","[]","[]","","","","","",""
"","","","","","","","","","","","canvas-keyboard-response","477","560844","0.0-477.0","null","null","","","","","","","","","","","","","","fixation","","","2","57","","","","","","","","","",""
"","","","","","","","","","","","canvas-keyboard-response","478","561154","0.0-478.0","null","null","","","","","","","","","","","","","","stimulus","","","2","57","","","","","","","","","",""
"","","","","","","","","","","","canvas-button-response","479","562129","0.0-479.0","974","house","","","","","","","","","","","","","","perceptual","","","2","57","","","","","0","house","6","0","1",""
"","","","","","","","","","","","canvas-button-response","480","562960","0.0-480.0","829","6","","","","","","","","","","","","","","confidence","","","2","57","","","","","","","","","","7"
"","","","","","","","","","","","preload","481","562960","0.0-481.0","","","","","true","","","","","","","","","","","preload","","","2","58","false","[]","[]","[]","","","","","",""
"","","","","","","","","","","","canvas-keyboard-response","482","563265","0.0-482.0","null","null","","","","","","","","","","","","","","fixation","","","2","58","","","","","","","","","",""
"","","","","","","","","","","","canvas-keyboard-response","483","563574","0.0-483.0","null","null","","","","","","","","","","","","","","stimulus","","","2","58","","","","","","","","","",""
"","","","","","","","","","","","canvas-button-response","484","564348","0.0-484.0","773","flower","","","","","","","","","","","","","","perceptual","","","2","58","","","","","237","flower","10","0","1",""
"","","","","","","","","","","","canvas-button-response","485","564936","0.0-485.0","587","6","","","","","","","","","","","","","","confidence","","","2","58","","","","","","","","","","8"
"","","","","","","","","","","","preload","486","564937","0.0-486.0","","","","","true","","","","","","","","","","","preload","","","2","59","false","[]","[]","[]","","","","","",""
"","","","","","","","","","","","canvas-keyboard-response","487","565241","0.0-487.0","null","null","","","","","","","","","","","","","","fixation","","","2","59","","","","","","","","","",""
"","","","","","","","","","","","canvas-keyboard-response","488","565545","0.0-488.0","null","null","","","","","","","","","","","","","","stimulus","","","2","59","","","","","","","","","",""
"","","","","","","","","","","","canvas-button-response","489","567969","0.0-489.0","2424","cat","","","","","","","","","","","","","","perceptual","","","2","59","","","","","292","cat","6","0","1",""
"","","","","","","","","","","","canvas-button-response","490","568814","0.0-490.0","844","2","","","","","","","","","","","","","","confidence","","","2","59","","","","","","","","","","9"
"","","","","","","","","","","","preload","491","568815","0.0-491.0","","","","","true","","","","","","","","","","","preload","","","2","60","false","[]","[]","[]","","","","","",""
