"width","height","webaudio","browser","browser_version","mobile","os","fullscreen","vsync_rate","webcam","microphone","trial_type","trial_index","time_elapsed","internal_node_id","rt","response","accuracy","view_history","success","item_width_mm","item_height_mm","item_width_px","px2mm","view_dist_mm","item_width_deg","px2deg","scale_factor","win_width_deg","win_height_deg","stimulus","datetime","subjectID","curr_triallist","trial_no","timeout","failed_images","failed_audio","failed_video","image_index","category","blur","reps","correct","running_score"
"1920","893","true","chrome","141.0.0","false","Windows 10","true","61.01","true","true","browser-check","0","1094","0.0-0.0","","","","","","","","","","","","","","","","","","","","","","","","","","","","","",""
"","","","","","","","","","","","survey","1","40770614","0.0-1.0","40772139","{""P0_Q0"":""903755130"",""P0_Q1"":""19"",""P1_Q0"":""Female"",""P1_Q1"":""Not Hispanic or Latino"",""P1_Q2"":""Black or African American"",""P1_Q3"":""Normal"",""P1_Q4"":""Ambidextrous""}","[]","","","","","","","","","","","","","","","","","","","","","","","","","","",""
"","","","","","","","","","","","instructions","2","40799601","0.0-2.0","28986","","","[{""page_index"":0,""viewing_time"":4146},{""page_index"":1,""viewing_time"":13097},{""page_index"":2,""viewing_time"":6391},{""page_index"":3,""viewing_time"":5352}]","","","","","","","","","","","","","","","","","","","","","","","","","",""
"","","","","","","","","","","","fullscreen","3","40802784","0.0-3.0","2169","","","","true","","","","","","","","","","","","","","","","","","","","","","","","",""
"","","","","","","","","","","","virtual-chinrest","4","40875001","0.0-4.0","72212","","","","","85.6","53.98","361.3962020038481","4.223056742516877","405.63","12.046540066794936","30","1.477602689345125","64","36","","","","","","","","","","","","","","",""
"","","","","","","","","","","","instructions","5","40972937","0.0-5.0","97934","","","[{""page_index"":0,""viewing_time"":5495},{""page_index"":1,""viewing_time"":4676},{""page_index"":2,""viewing_time"":13459},{""page_index"":3,""viewing_time"":8673},{""page_index"":4,""viewing_time"":6851},{""page_index"":3,""viewing_time"":1506},{""page_index"":2,""viewing_time"":2082},{""page_index"":1,""viewing_time"":3651},{""page_index"":2,""viewing_time"":1065},{""page_index"":3,""viewing_time"":692},{""page_index"":4,""viewing_time"":6194},{""page_index"":5,""viewing_time"":41138},{""page_index"":6,""viewing_time"":2452}]","","","","","","","","","","","","","","","","","","","","","","","","","",""
"","","","","","","","","","","","html-button-response","6","40976475","0.0-6.0","3531","0","","","","","","","","","","","","","","start_practice","Wed Oct 08 2025 23:47:55 GMT-0400 (Eastern Daylight Time)","27482","","","","","","","","","","","",""
"","","","","","","","","","","","preload","7","40976478","0.0-7.0","","","","","true","","","","","","","","","","","preload","","","0","0","false","[]","[]","[]","","","","","",""
"","","","","","","","","","","","canvas-keyboard-response","8","40976800","0.0-8.0","null","null","","","","","","","","","","","","","","fixation","","","0","0","","","","","","","","","",""
"","","","","","","","","","","","canvas-keyboard-response","9","40977113","0.0-9.0","null","null","","","","","","","","","","","","","","stimulus","","","0","0","","","","","","","","","",""
"","","","","","","","","","","","canvas-button-response","10","40985850","0.0-10.0","8732","knife","","","","","","","","","","","","","","perceptual","","","0","0","","","","","82","elephant","1","","0",""
"","","","","","","","","","","","canvas-button-response","11","40989873","0.0-11.0","4020","2","","","","","","","","","","","","","","confidence","","","0","0","","","","","","","","","","0"
"","","","","","","","","","","","html-keyboard-response","12","40990877","0.0-12.0","null","null","","","","","","","","","","","","","","feedback","Wed Oct 08 2025 23:48:12 GMT-0400 (Eastern Daylight Time)","27482","0","0","","","","","","","","","",""
"","","","","","","","","","","","preload","13","40990878","0.0-13.0","","","","","true","","","","","","","","","","","preload","","","0","1","false","[]","[]","[]","","","","","",""
"","","","","","","","","","","","canvas-keyboard-response","14","40991185","0.0-14.0","null","null","","","","","","","","","","","","","","fixation","","","0","1","","","","","","","","","",""
"","","","","","","","","","","","canvas-keyboard-response","15","40991496","0.0-15.0","null","null","","","","","","","","","","","","","","stimulus","","","0","1","","","","","","","","","",""
"","","","","","","","","","","","canvas-button-response","16","41002704","0.0-16.0","11206","bed","","","","","","","","","","","","","","perceptual","","","0","1","","","","","22","phone","1","","0",""
"","","","","","","","","","","","canvas-button-response","17","41004848","0.0-17.0","2142","0","","","","","","","","","","","","","","confidence","","","0","1","","","","","","","","","","0"
"","","","","","","","","","","","html-keyboard-response","18","41005861","0.0-18.0","null","null","","","","","","","","","","","","","","feedback","Wed Oct 08 2025 23:48:27 GMT-0400 (Eastern Daylight Time)","27482","0","1","","","","","","","","","",""
"","","","","","","","","","","","preload","19","41005862","0.0-19.0","","","","","true","","","","","","","","","","","preload","","","0","2","false","[]","[]","[]","","","","","",""
"","","","","","","","","","","","canvas-keyboard-response","20","41006175","0.0-20.0","null","null","","","","","","","","","","","","","","fixation","","","0","2","","","","","","","","","",""
"","","","","","","","","","","","canvas-keyboard-response","21","41006486","0.0-21.0","null","null","","","","","","","","","","","","","","stimulus","","","0","2","","","","","","","","","",""
"","","","","","","","","","","","canvas-button-response","22","41008353","0.0-22.0","1864","car","","","","","","","","","","","","","","perceptual","","","0","2","","","","","12","car","1","","1",""
"","","","","","","","","","","","canvas-button-response","23","41009997","0.0-23.0","1642","10","","","","","","","","","","","","","","confidence","","","0","2","","","","","","","","","","1"
"","","","","","","","","","","","html-keyboard-response","24","41011011","0.0-24.0","null","null","","","","","","","","","","","","","","feedback","Wed Oct 08 2025 23:48:32 GMT-0400 (Eastern Daylight Time)","27482","0","2","","","","","","","","","",""
"","","","","","","","","","","","preload","25","41011012","0.0-25.0","","","","","true","","","","","","","","","","","preload","","","0","3","false","[]","[]","[]","","","","","",""
"","","","","","","","","","","","canvas-keyboard-response","26","41011314","0.0-26.0","null","null","","","","","","","","","","","","","","fixation","","","0","3","","","","","","","","","",""
"","","","","","","","","","","","canvas-keyboard-response","27","41011616","0.0-27.0","null","null","","","","","","","","","","","","","","stimulus","","","0","3","","","","","","","","","",""
"","","","","","","","","","","","canvas-button-response","28","41013679","0.0-28.0","2060","knife","","","","","","","","","","","","","","perceptual","","","0","3","","","","","92","knife","1","","1",""
"","","","","","","","","","","","canvas-button-response","29","41014697","0.0-29.0","1016","10","","","","","","","","","","","","","","confidence","","","0","3","","","","","","","","","","2"
"","","","","","","","","","","","html-keyboard-response","30","41015715","0.0-30.0","null","null","","","","","","","","","","","","","","feedback","Wed Oct 08 2025 23:48:37 GMT-0400 (Eastern Daylight Time)","27482","0","3","","","","","","","","","",""
"","","","","","","","","","","","preload","31","41015716","0.0-31.0","","","","","true","","","","","","","","","","","preload","","","0","4","false","[]","[]","[]","","","","","",""
"","","","","","","","","","","","canvas-keyboard-response","32","41016030","0.0-32.0","null","null","","","","","","","","","","","","","","fixation","","","0","4","","","","","","","","","",""
"","","","","","","","","","","","canvas-keyboard-response","33","41016339","0.0-33.0","null","null","","","","","","","","","","","","","","stimulus","","","0","4","","","","","","","","","",""
"","","","","","","","","","","","canvas-button-response","34","41017932","0.0-34.0","1590","bridge","","","","","","","","","","","","","","perceptual","","","0","4","","","","","42","bridge","1","","1",""
"","","","","","","","","","","","canvas-button-response","35","41019042","0.0-35.0","1107","10","","","","","","","","","","","","","","confidence","","","0","4","","","","","","","","","","3"
"","","","","","","","","","","","html-keyboard-response","36","41020055","0.0-36.0","null","null","","","","","","","","","","","","","","feedback","Wed Oct 08 2025 23:48:41 GMT-0400 (Eastern Daylight Time)","27482","0","4","","","","","","","","","",""
"","","","","","","","","","","","preload","37","41020056","0.0-37.0","","","","","true","","","","","","","","","","","preload","","","0","5","false","[]","[]","[]","","","","","",""
"","","","","","","","","","","","canvas-keyboard-response","38","41020366","0.0-38.0","null","null","","","","","","","","","","","","","","fixation","","","0","5","","","","","","","","","",""
"","","","","","","","","","","","canvas-keyboard-response","39","41020677","0.0-39.0","null","null","","","","","","","","","","","","","","stimulus","","","0","5","","","","","","","","","",""
"","","","","","","","","","","","canvas-button-response","40","41022317","0.0-40.0","1639","bed","","","","","","","","","","","","","","perceptual","","","0","5","","","","","32","bed","1","","1",""
"","","","","","","","","","","","canvas-button-response","41","41024132","0.0-41.0","1812","10","","","","","","","","","","","","","","confidence","","","0","5","","","","","","","","","","4"
"","","","","","","","","","","","html-keyboard-response","42","41025134","0.0-42.0","null","null","","","","","","","","","","","","","","feedback","Wed Oct 08 2025 23:48:46 GMT-0400 (Eastern Daylight Time)","27482","0","5","","","","","","","","","",""
"","","","","","","","","","","","preload","43","41025135","0.0-43.0","","","","","true","","","","","","","","","","","preload","","","0","6","false","[]","[]","[]","","","","","",""
"","","","","","","","","","","","canvas-keyboard-response","44","41025438","0.0-44.0","null","null","","","","","","","","","","","","","","fixation","","","0","6","","","","","","","","","",""
"","","","","","","","","","","","canvas-keyboard-response","45","41025741","0.0-45.0","null","null","","","","","","","","","","","","","","stimulus","","","0","6","","","","","","","","","",""
"","","","","","","","","","","","canvas-button-response","46","41027285","0.0-46.0","1543","train","","","","","","","","","","","","","","perceptual","","","0","6","","","","","62","train","1","","1",""
"","","","","","","","","","","","canvas-button-response","47","41028098","0.0-47.0","811","10","","","","","","","","","","","","","","confidence","","","0","6","","","","","","","","","","5"
"","","","","","","","","","","","html-keyboard-response","48","41029105","0.0-48.0","null","null","","","","","","","","","","","","","","feedback","Wed Oct 08 2025 23:48:50 GMT-0400 (Eastern Daylight Time)","27482","0","6","","","","","","","","","",""
"","","","","","","","","","","","preload","49","41029106","0.0-49.0","","","","","true","","","","","","","","","","","preload","","","0","7","false","[]","[]","[]","","","","","",""
"","","","","","","","","","","","canvas-keyboard-response","50","41029417","0.0-50.0","null","null","","","","","","","","","","","","","","fixation","","","0","7","","","","","","","","","",""
"","","","","","","","","","","","canvas-keyboard-response","51","41029731","0.0-51.0","null","null","","","","","","","","","","","","","","stimulus","","","0","7","","","","","","","","","",""
"","","","","","","","","","","","canvas-button-response","52","41030862","0.0-52.0","1129","cat","","","","","","","","","","","","","","perceptual","","","0","7","","","","","72","cat","1","","1",""
"","","","","","","","","","","","canvas-button-response","53","41032347","0.0-53.0","1482","10","","","","","","","","","","","","","","confidence","","","0","7","","","","","","","","","","6"
"","","","","","","","","","","","html-keyboard-response","54","41033350","0.0-54.0","null","null","","","","","","","","","","","","","","feedback","Wed Oct 08 2025 23:48:55 GMT-0400 (Eastern Daylight Time)","27482","0","7","","","","","","","","","",""
"","","","","","","","","","","","preload","55","41033351","0.0-55.0","","","","","true","","","","","","","","","","","preload","","","0","8","false","[]","[]","[]","","","","","",""
"","","","","","","","","","","","canvas-keyboard-response","56","41033664","0.0-56.0","null","null","","","","","","","","","","","","","","fixation","","","0","8","","","","","","","","","",""
"","","","","","","","","","","","canvas-keyboard-response","57","41033976","0.0-57.0","null","null","","","","","","","","","","","","","","stimulus","","","0","8","","","","","","","","","",""
"","","","","","","","","","","","canvas-button-response","58","41035458","0.0-58.0","1479","house","","","","","","","","","","","","","","perceptual","","","0","8","","","","","52","flower","1","","0",""
"","","","","","","","","","","","canvas-button-response","59","41036407","0.0-59.0","946","10","","","","","","","","","","","","","","confidence","","","0","8","","","","","","","","","","6"
"","","","","","","","","","","","html-keyboard-response","60","41037420","0.0-60.0","null","null","","","","","","","","","","","","","","feedback","Wed Oct 08 2025 23:48:59 GMT-0400 (Eastern Daylight Time)","27482","0","8","","","","","","","","","",""
"","","","","","","","","","","","preload","61","41037421","0.0-61.0","","","","","true","","","","","","","","","","","preload","","","0","9","false","[]","[]","[]","","","","","",""
"","","","","","","","","","","","canvas-keyboard-response","62","41037735","0.0-62.0","null","null","","","","","","","","","","","","","","fixation","","","0","9","","","","","","","","","",""
"","","","","","","","","","","","canvas-keyboard-response","63","41038048","0.0-63.0","null","null","","","","","","","","","","","","","","stimulus","","","0","9","","","","","","","","","",""
"","","","","","","","","","","","canvas-button-response","64","41039760","0.0-64.0","1709","house","","","","","","","","","","","","","","perceptual","","","0","9","","","","","2","house","1","","1",""
"","","","","","","","","","","","canvas-button-response","65","41041358","0.0-65.0","1596","10","","","","","","","","","","","","","","confidence","","","0","9","","","","","","","","","","7"
"","","","","","","","","","","","html-keyboard-response","66","41042367","0.0-66.0","null","null","","","","","","","","","","","","","","feedback","Wed Oct 08 2025 23:49:04 GMT-0400 (Eastern Daylight Time)","27482","0","9","","","","","","","","","",""
"","","","","","","","","","","","html-button-response","67","41045469","0.0-67.0","3097","0","","","","","","","","","","","","","","start_practice","Wed Oct 08 2025 23:49:05 GMT-0400 (Eastern Daylight Time)","27482","0","9","","","","","","","","","",""
"","","","","","","","","","","","preload","68","41045470","0.0-68.0","","","","","true","","","","","","","","","","","preload","","","1","0","false","[]","[]","[]","","","","","",""
"","","","","","","","","","","","canvas-keyboard-response","69","41045785","0.0-69.0","null","null","","","","","","","","","","","","","","fixation","","","1","0","","","","","","","","","",""
"","","","","","","","","","","","canvas-keyboard-response","70","41046093","0.0-70.0","null","null","","","","","","","","","","","","","","stimulus","","","1","0","","","","","","","","","",""
"","","","","","","","","","","","canvas-button-response","71","41054939","0.0-71.0","8845","elephant","","","","","","","","","","","","","","perceptual","","","1","0","","","","","54","flower","6","","0",""
"","","","","","","","","","","","canvas-button-response","72","41057684","0.0-72.0","2742","2","","","","","","","","","","","","","","confidence","","","1","0","","","","","","","","","","0"
"","","","","","","","","","","","html-keyboard-response","73","41058691","0.0-73.0","null","null","","","","","","","","","","","","","","feedback","Wed Oct 08 2025 23:49:20 GMT-0400 (Eastern Daylight Time)","27482","1","0","","","","","","","","","",""
"","","","","","","","","","","","preload","74","41058692","0.0-74.0","","","","","true","","","","","","","","","","","preload","","","1","1","false","[]","[]","[]","","","","","",""
"","","","","","","","","","","","canvas-keyboard-response","75","41059003","0.0-75.0","null","null","","","","","","","","","","","","","","fixation","","","1","1","","","","","","","","","",""
"","","","","","","","","","","","canvas-keyboard-response","76","41059317","0.0-76.0","null","null","","","","","","","","","","","","","","stimulus","","","1","1","","","","","","","","","",""
"","","","","","","","","","","","canvas-button-response","77","41062735","0.0-77.0","3415","house","","","","","","","","","","","","","","perceptual","","","1","1","","","","","84","elephant","6","","0",""
"","","","","","","","","","","","canvas-button-response","78","41064429","0.0-78.0","1692","4","","","","","","","","","","","","","","confidence","","","1","1","","","","","","","","","","0"
"","","","","","","","","","","","html-keyboard-response","79","41065445","0.0-79.0","null","null","","","","","","","","","","","","","","feedback","Wed Oct 08 2025 23:49:27 GMT-0400 (Eastern Daylight Time)","27482","1","1","","","","","","","","","",""
"","","","","","","","","","","","preload","80","41065445","0.0-80.0","","","","","true","","","","","","","","","","","preload","","","1","2","false","[]","[]","[]","","","","","",""
"","","","","","","","","","","","canvas-keyboard-response","81","41065758","0.0-81.0","null","null","","","","","","","","","","","","","","fixation","","","1","2","","","","","","","","","",""
"","","","","","","","","","","","canvas-keyboard-response","82","41066072","0.0-82.0","null","null","","","","","","","","","","","","","","stimulus","","","1","2","","","","","","","","","",""
"","","","","","","","","","","","canvas-button-response","83","41068176","0.0-83.0","2102","train","","","","","","","","","","","","","","perceptual","","","1","2","","","","","64","train","6","","1",""
"","","","","","","","","","","","canvas-button-response","84","41069146","0.0-84.0","967","10","","","","","","","","","","","","","","confidence","","","1","2","","","","","","","","","","1"
"","","","","","","","","","","","html-keyboard-response","85","41070153","0.0-85.0","null","null","","","","","","","","","","","","","","feedback","Wed Oct 08 2025 23:49:31 GMT-0400 (Eastern Daylight Time)","27482","1","2","","","","","","","","","",""
"","","","","","","","","","","","preload","86","41070154","0.0-86.0","","","","","true","","","","","","","","","","","preload","","","1","3","false","[]","[]","[]","","","","","",""
"","","","","","","","","","","","canvas-keyboard-response","87","41070466","0.0-87.0","null","null","","","","","","","","","","","","","","fixation","","","1","3","","","","","","","","","",""
"","","","","","","","","","","","canvas-keyboard-response","88","41070778","0.0-88.0","null","null","","","","","","","","","","","","","","stimulus","","","1","3","","","","","","","","","",""
"","","","","","","","","","","","canvas-button-response","89","41073526","0.0-89.0","2746","car","","","","","","","","","","","","","","perceptual","","","1","3","","","","","17","car","10","","1",""
"","","","","","","","","","","","canvas-button-response","90","41074301","0.0-90.0","774","4","","","","","","","","","","","","","","confidence","","","1","3","","","","","","","","","","2"
"","","","","","","","","","","","html-keyboard-response","91","41075308","0.0-91.0","null","null","","","","","","","","","","","","","","feedback","Wed Oct 08 2025 23:49:37 GMT-0400 (Eastern Daylight Time)","27482","1","3","","","","","","","","","",""
"","","","","","","","","","","","preload","92","41075309","0.0-92.0","","","","","true","","","","","","","","","","","preload","","","1","4","false","[]","[]","[]","","","","","",""
"","","","","","","","","","","","canvas-keyboard-response","93","41075621","0.0-93.0","null","null","","","","","","","","","","","","","","fixation","","","1","4","","","","","","","","","",""
"","","","","","","","","","","","canvas-keyboard-response","94","41075937","0.0-94.0","null","null","","","","","","","","","","","","","","stimulus","","","1","4","","","","","","","","","",""
"","","","","","","","","","","","canvas-button-response","95","41078217","0.0-95.0","2278","cat","","","","","","","","","","","","","","perceptual","","","1","4","","","","","77","cat","10","","1",""
"","","","","","","","","","","","canvas-button-response","96","41079112","0.0-96.0","892","4","","","","","","","","","","","","","","confidence","","","1","4","","","","","","","","","","3"
"","","","","","","","","","","","html-keyboard-response","97","41080116","0.0-97.0","null","null","","","","","","","","","","","","","","feedback","Wed Oct 08 2025 23:49:41 GMT-0400 (Eastern Daylight Time)","27482","1","4","","","","","","","","","",""
"","","","","","","","","","","","preload","98","41080117","0.0-98.0","","","","","true","","","","","","","","","","","preload","","","1","5","false","[]","[]","[]","","","","","",""
"","","","","","","","","","","","canvas-keyboard-response","99","41080419","0.0-99.0","null","null","","","","","","","","","","","","","","fixation","","","1","5","","","","","","","","","",""
"","","","","","","","","","","","canvas-keyboard-response","100","41080724","0.0-100.0","null","null","","","","","","","","","","","","","","stimulus","","","1","5","","","","","","","","","",""
"","","","","","","","","","","","canvas-button-response","101","41082912","0.0-101.0","2186","elephant","","","","","","","","","","","","","","perceptual","","","1","5","","","","","87","elephant","10","","1",""
"","","","","","","","","","","","canvas-button-response","102","41083963","0.0-102.0","1048","5","","","","","","","","","","","","","","confidence","","","1","5","","","","","","","","","","4"
"","","","","","","","","","","","html-keyboard-response","103","41084968","0.0-103.0","null","null","","","","","","","","","","","","","","feedback","Wed Oct 08 2025 23:49:46 GMT-0400 (Eastern Daylight Time)","27482","1","5","","","","","","","","","",""
"","","","","","","","","","","","preload","104","41084969","0.0-104.0","","","","","true","","","","","","","","","","","preload","","","1","6","false","[]","[]","[]","","","","","",""
"","","","","","","","","","","","canvas-keyboard-response","105","41085281","0.0-105.0","null","null","","","","","","","","","","","","","","fixation","","","1","6","","","","","","","","","",""
"","","","","","","","","","","","canvas-keyboard-response","106","41085596","0.0-106.0","null","null","","","","","","","","","","","","","","stimulus","","","1","6","","","","","","","","","",""
"","","","","","","","","","","","canvas-button-response","107","41090107","0.0-107.0","4508","phone","","","","","","","","","","","","","","perceptual","","","1","6","","","","","47","bridge","10","","0",""
"","","","","","","","","","","","canvas-button-response","108","41091026","0.0-108.0","917","5","","","","","","","","","","","","","","confidence","","","1","6","","","","","","","","","","4"
"","","","","","","","","","","","html-keyboard-response","109","41092027","0.0-109.0","null","null","","","","","","","","","","","","","","feedback","Wed Oct 08 2025 23:49:53 GMT-0400 (Eastern Daylight Time)","27482","1","6","","","","","","","","","",""
"","","","","","","","","","","","preload","110","41092027","0.0-110.0","","","","","true","","","","","","","","","","","preload","","","1","7","false","[]","[]","[]","","","","","",""
"","","","","","","","","","","","canvas-keyboard-response","111","41092341","0.0-111.0","null","null","","","","","","","","","","","","","","fixation","","","1","7","","","","","","","","","",""
"","","","","","","","","","","","canvas-keyboard-response","112","41092652","0.0-112.0","null","null","","","","","","","","","","","","","","stimulus","","","1","7","","","","","","","","","",""
"","","","","","","","","","","","canvas-button-response","113","41098841","0.0-113.0","6187","bed","","","","","","","","","","","","","","perceptual","","","1","7","","","","","27","phone","10","","0",""
"","","","","","","","","","","","canvas-button-response","114","41100735","0.0-114.0","1892","0","","","","","","","","","","","","","","confidence","","","1","7","","","","","","","","","","4"
"","","","","","","","","","","","html-keyboard-response","115","41101737","0.0-115.0","null","null","","","","","","","","","","","","","","feedback","Wed Oct 08 2025 23:50:03 GMT-0400 (Eastern Daylight Time)","27482","1","7","","","","","","","","","",""
"","","","","","","","","","","","preload","116","41101738","0.0-116.0","","","","","true","","","","","","","","","","","preload","","","1","8","false","[]","[]","[]","","","","","",""
"","","","","","","","","","","","canvas-keyboard-response","117","41102040","0.0-117.0","null","null","","","","","","","","","","","","","","fixation","","","1","8","","","","","","","","","",""
"","","","","","","","","","","","canvas-keyboard-response","118","41102342","0.0-118.0","null","null","","","","","","","","","","","","","","stimulus","","","1","8","","","","","","","","","",""
"","","","","","","","","","","","canvas-button-response","119","41104380","0.0-119.0","2035","house","","","","","","","","","","","","","","perceptual","","","1","8","","","","","4","house","6","","1",""
"","","","","","","","","","","","canvas-button-response","120","41105861","0.0-120.0","1479","6","","","","","","","","","","","","","","confidence","","","1","8","","","","","","","","","","5"
"","","","","","","","","","","","html-keyboard-response","121","41106868","0.0-121.0","null","null","","","","","","","","","","","","","","feedback","Wed Oct 08 2025 23:50:08 GMT-0400 (Eastern Daylight Time)","27482","1","8","","","","","","","","","",""
"","","","","","","","","","","","preload","122","41106869","0.0-122.0","","","","","true","","","","","","","","","","","preload","","","1","9","false","[]","[]","[]","","","","","",""
"","","","","","","","","","","","canvas-keyboard-response","123","41107181","0.0-123.0","null","null","","","","","","","","","","","","","","fixation","","","1","9","","","","","","","","","",""
"","","","","","","","","","","","canvas-keyboard-response","124","41107495","0.0-124.0","null","null","","","","","","","","","","","","","","stimulus","","","1","9","","","","","","","","","",""
"","","","","","","","","","","","canvas-button-response","125","41109541","0.0-125.0","2044","bridge","","","","","","","","","","","","","","perceptual","","","1","9","","","","","7","house","10","","0",""
"","","","","","","","","","","","canvas-button-response","126","41110655","0.0-126.0","1112","5","","","","","","","","","","","","","","confidence","","","1","9","","","","","","","","","","5"
"","","","","","","","","","","","html-keyboard-response","127","41111667","0.0-127.0","null","null","","","","","","","","","","","","","","feedback","Wed Oct 08 2025 23:50:13 GMT-0400 (Eastern Daylight Time)","27482","1","9","","","","","","","","","",""
"","","","","","","","","","","","preload","128","41111668","0.0-128.0","","","","","true","","","","","","","","","","","preload","","","1","10","false","[]","[]","[]","","","","","",""
"","","","","","","","","","","","canvas-keyboard-response","129","41111981","0.0-129.0","null","null","","","","","","","","","","","","","","fixation","","","1","10","","","","","","","","","",""
"","","","","","","","","","","","canvas-keyboard-response","130","41112294","0.0-130.0","null","null","","","","","","","","","","","","","","stimulus","","","1","10","","","","","","","","","",""
"","","","","","","","","","","","canvas-button-response","131","41113653","0.0-131.0","1357","phone","","","","","","","","","","","","","","perceptual","","","1","10","","","","","24","phone","6","","1",""
"","","","","","","","","","","","canvas-button-response","132","41114408","0.0-132.0","752","10","","","","","","","","","","","","","","confidence","","","1","10","","","","","","","","","","6"
"","","","","","","","","","","","html-keyboard-response","133","41115414","0.0-133.0","null","null","","","","","","","","","","","","","","feedback","Wed Oct 08 2025 23:50:17 GMT-0400 (Eastern Daylight Time)","27482","1","10","","","","","","","","","",""
"","","","","","","","","","","","preload","134","41115416","0.0-134.0","","","","","true","","","","","","","","","","","preload","","","1","11","false","[]","[]","[]","","","","","",""
"","","","","","","","","","","","canvas-keyboard-response","135","41115727","0.0-135.0","null","null","","","","","","","","","","","","","","fixation","","","1","11","","","","","","","","","",""
"","","","","","","","","","","","canvas-keyboard-response","136","41116041","0.0-136.0","null","null","","","","","","","","","","","","","","stimulus","","","1","11","","","","","","","","","",""
"","","","","","","","","","","","canvas-button-response","137","41117482","0.0-137.0","1439","bed","","","","","","","","","","","","","","perceptual","","","1","11","","","","","34","bed","6","","1",""
"","","","","","","","","","","","canvas-button-response","138","41118675","0.0-138.0","1191","10","","","","","","","","","","","","","","confidence","","","1","11","","","","","","","","","","7"
"","","","","","","","","","","","html-keyboard-response","139","41119686","0.0-139.0","null","null","","","","","","","","","","","","","","feedback","Wed Oct 08 2025 23:50:21 GMT-0400 (Eastern Daylight Time)","27482","1","11","","","","","","","","","",""
"","","","","","","","","","","","preload","140","41119687","0.0-140.0","","","","","true","","","","","","","","","","","preload","","","1","12","false","[]","[]","[]","","","","","",""
"","","","","","","","","","","","canvas-keyboard-response","141","41119999","0.0-141.0","null","null","","","","","","","","","","","","","","fixation","","","1","12","","","","","","","","","",""
"","","","","","","","","","","","canvas-keyboard-response","142","41120310","0.0-142.0","null","null","","","","","","","","","","","","","","stimulus","","","1","12","","","","","","","","","",""
"","","","","","","","","","","","canvas-button-response","143","41122096","0.0-143.0","1783","car","","","","","","","","","","","","","","perceptual","","","1","12","","","","","37","bed","10","","0",""
"","","","","","","","","","","","canvas-button-response","144","41122899","0.0-144.0","801","5","","","","","","","","","","","","","","confidence","","","1","12","","","","","","","","","","7"
"","","","","","","","","","","","html-keyboard-response","145","41123905","0.0-145.0","null","null","","","","","","","","","","","","","","feedback","Wed Oct 08 2025 23:50:25 GMT-0400 (Eastern Daylight Time)","27482","1","12","","","","","","","","","",""
"","","","","","","","","","","","preload","146","41123906","0.0-146.0","","","","","true","","","","","","","","","","","preload","","","1","13","false","[]","[]","[]","","","","","",""
"","","","","","","","","","","","canvas-keyboard-response","147","41124217","0.0-147.0","null","null","","","","","","","","","","","","","","fixation","","","1","13","","","","","","","","","",""
"","","","","","","","","","","","canvas-keyboard-response","148","41124530","0.0-148.0","null","null","","","","","","","","","","","","","","stimulus","","","1","13","","","","","","","","","",""
"","","","","","","","","","","","canvas-button-response","149","41132628","0.0-149.0","8096","flower","","","","","","","","","","","","","","perceptual","","","1","13","","","","","94","knife","6","","0",""
"","","","","","","","","","","","canvas-button-response","150","41133337","0.0-150.0","706","2","","","","","","","","","","","","","","confidence","","","1","13","","","","","","","","","","7"
"","","","","","","","","","","","html-keyboard-response","151","41134348","0.0-151.0","null","null","","","","","","","","","","","","","","feedback","Wed Oct 08 2025 23:50:36 GMT-0400 (Eastern Daylight Time)","27482","1","13","","","","","","","","","",""
"","","","","","","","","","","","preload","152","41134349","0.0-152.0","","","","","true","","","","","","","","","","","preload","","","1","14","false","[]","[]","[]","","","","","",""
"","","","","","","","","","","","canvas-keyboard-response","153","41134662","0.0-153.0","null","null","","","","","","","","","","","","","","fixation","","","1","14","","","","","","","","","",""
"","","","","","","","","","","","canvas-keyboard-response","154","41134972","0.0-154.0","null","null","","","","","","","","","","","","","","stimulus","","","1","14","","","","","","","","","",""
"","","","","","","","","","","","canvas-button-response","155","41137482","0.0-155.0","2508","train","","","","","","","","","","","","","","perceptual","","","1","14","","","","","67","train","10","","1",""
"","","","","","","","","","","","canvas-button-response","156","41138416","0.0-156.0","933","4","","","","","","","","","","","","","","confidence","","","1","14","","","","","","","","","","8"
"","","","","","","","","","","","html-keyboard-response","157","41139418","0.0-157.0","null","null","","","","","","","","","","","","","","feedback","Wed Oct 08 2025 23:50:41 GMT-0400 (Eastern Daylight Time)","27482","1","14","","","","","","","","","",""
"","","","","","","","","","","","preload","158","41139419","0.0-158.0","","","","","true","","","","","","","","","","","preload","","","1","15","false","[]","[]","[]","","","","","",""
"","","","","","","","","","","","canvas-keyboard-response","159","41139731","0.0-159.0","null","null","","","","","","","","","","","","","","fixation","","","1","15","","","","","","","","","",""
"","","","","","","","","","","","canvas-keyboard-response","160","41140043","0.0-160.0","null","null","","","","","","","","","","","","","","stimulus","","","1","15","","","","","","","","","",""
"","","","","","","","","","","","canvas-button-response","161","41141842","0.0-161.0","1796","bridge","","","","","","","","","","","","","","perceptual","","","1","15","","","","","44","bridge","6","","1",""
"","","","","","","","","","","","canvas-button-response","162","41142958","0.0-162.0","1114","6","","","","","","","","","","","","","","confidence","","","1","15","","","","","","","","","","9"
"","","","","","","","","","","","html-keyboard-response","163","41143961","0.0-163.0","null","null","","","","","","","","","","","","","","feedback","Wed Oct 08 2025 23:50:45 GMT-0400 (Eastern Daylight Time)","27482","1","15","","","","","","","","","",""
"","","","","","","","","","","","preload","164","41143962","0.0-164.0","","","","","true","","","","","","","","","","","preload","","","1","16","false","[]","[]","[]","","","","","",""
"","","","","","","","","","","","canvas-keyboard-response","165","41144273","0.0-165.0","null","null","","","","","","","","","","","","","","fixation","","","1","16","","","","","","","","","",""
"","","","","","","","","","","","canvas-keyboard-response","166","41144588","0.0-166.0","null","null","","","","","","","","","","","","","","stimulus","","","1","16","","","","","","","","","",""
"","","","","","","","","","","","canvas-button-response","167","41145615","0.0-167.0","1025","knife","","","","","","","","","","","","","","perceptual","","","1","16","","","","","97","knife","10","","1",""
"","","","","","","","","","","","canvas-button-response","168","41146511","0.0-168.0","893","10","","","","","","","","","","","","","","confidence","","","1","16","","","","","","","","","","10"
"","","","","","","","","","","","html-keyboard-response","169","41147528","0.0-169.0","null","null","","","","","","","","","","","","","","feedback","Wed Oct 08 2025 23:50:49 GMT-0400 (Eastern Daylight Time)","27482","1","16","","","","","","","","","",""
"","","","","","","","","","","","preload","170","41147529","0.0-170.0","","","","","true","","","","","","","","","","","preload","","","1","17","false","[]","[]","[]","","","","","",""
"","","","","","","","","","","","canvas-keyboard-response","171","41147831","0.0-171.0","null","null","","","","","","","","","","","","","","fixation","","","1","17","","","","","","","","","",""
"","","","","","","","","","","","canvas-keyboard-response","172","41148135","0.0-172.0","null","null","","","","","","","","","","","","","","stimulus","","","1","17","","","","","","","","","",""
"","","","","","","","","","","","canvas-button-response","173","41149978","0.0-173.0","1841","car","","","","","","","","","","","","","","perceptual","","","1","17","","","","","14","car","6","","1",""
"","","","","","","","","","","","canvas-button-response","174","41150922","0.0-174.0","942","6","","","","","","","","","","","","","","confidence","","","1","17","","","","","","","","","","11"
"","","","","","","","","","","","html-keyboard-response","175","41151935","0.0-175.0","null","null","","","","","","","","","","","","","","feedback","Wed Oct 08 2025 23:50:53 GMT-0400 (Eastern Daylight Time)","27482","1","17","","","","","","","","","",""
"","","","","","","","","","","","preload","176","41151936","0.0-176.0","","","","","true","","","","","","","","","","","preload","","","1","18","false","[]","[]","[]","","","","","",""
"","","","","","","","","","","","canvas-keyboard-response","177","41152248","0.0-177.0","null","null","","","","","","","","","","","","","","fixation","","","1","18","","","","","","","","","",""
"","","","","","","","","","","","canvas-keyboard-response","178","41152562","0.0-178.0","null","null","","","","","","","","","","","","","","stimulus","","","1","18","","","","","","","","","",""
"","","","","","","","","","","","canvas-button-response","179","41153930","0.0-179.0","1366","flower","","","","","","","","","","","","","","perceptual","","","1","18","","","","","57","flower","10","","1",""
"","","","","","","","","","","","canvas-button-response","180","41155106","0.0-180.0","1173","7","","","","","","","","","","","","","","confidence","","","1","18","","","","","","","","","","12"
"","","","","","","","","","","","html-keyboard-response","181","41156121","0.0-181.0","null","null","","","","","","","","","","","","","","feedback","Wed Oct 08 2025 23:50:57 GMT-0400 (Eastern Daylight Time)","27482","1","18","","","","","","","","","",""
"","","","","","","","","","","","preload","182","41156121","0.0-182.0","","","","","true","","","","","","","","","","","preload","","","1","19","false","[]","[]","[]","","","","","",""
"","","","","","","","","","","","canvas-keyboard-response","183","41156434","0.0-183.0","null","null","","","","","","","","","","","","","","fixation","","","1","19","","","","","","","","","",""
"","","","","","","","","","","","canvas-keyboard-response","184","41156746","0.0-184.0","null","null","","","","","","","","","","","","","","stimulus","","","1","19","","","","","","","","","",""
"","","","","","","","","","","","canvas-button-response","185","41158347","0.0-185.0","1599","cat","","","","","","","","","","","","","","perceptual","","","1","19","","","","","74","cat","6","","1",""
"","","","","","","","","","","","canvas-button-response","186","41160017","0.0-186.0","1667","10","","","","","","","","","","","","","","confidence","","","1","19","","","","","","","","","","13"
"","","","","","","","","","","","html-keyboard-response","187","41161023","0.0-187.0","null","null","","","","","","","","","","","","","","feedback","Wed Oct 08 2025 23:51:02 GMT-0400 (Eastern Daylight Time)","27482","1","19","","","","","","","","","",""
"","","","","","","","","","","","html-button-response","188","41164683","0.0-188.0","3657","0","","","","","","","","","","","","","","start experiment","Wed Oct 08 2025 23:51:03 GMT-0400 (Eastern Daylight Time)","27482","1","19","","","","","","","","","",""
"","","","","","","","","","","","preload","189","41164684","0.0-189.0","","","","","true","","","","","","","","","","","preload","","","2","0","false","[]","[]","[]","","","","","",""
"","","","","","","","","","","","canvas-keyboard-response","190","41164995","0.0-190.0","null","null","","","","","","","","","","","","","","fixation","","","2","0","","","","","","","","","",""
"","","","","","","","","","","","canvas-keyboard-response","191","41165309","0.0-191.0","null","null","","","","","","","","","","","","","","stimulus","","","2","0","","","","","","","","","",""
"","","","","","","","","","","","canvas-button-response","192","41167932","0.0-192.0","2621","bed","","","","","","","","","","","","","","perceptual","","","2","0","","","","","152","bed","10","0","1",""
"","","","","","","","","","","","canvas-button-response","193","41168800","0.0-193.0","866","3","","","","","","","","","","","","","","confidence","","","2","0","","","","","","","","","","1"
"","","","","","","","","","","","preload","194","41168801","0.0-194.0","","","","","true","","","","","","","","","","","preload","","","2","1","false","[]","[]","[]","","","","","",""
"","","","","","","","","","","","canvas-keyboard-response","195","41169114","0.0-195.0","null","null","","","","","","","","","","","","","","fixation","","","2","1","","","","","","","","","",""
"","","","","","","","","","","","canvas-keyboard-response","196","41169428","0.0-196.0","null","null","","","","","","","","","","","","","","stimulus","","","2","1","","","","","","","","","",""
"","","","","","","","","","","","canvas-button-response","197","41170771","0.0-197.0","1341","car","","","","","","","","","","","","","","perceptual","","","2","1","","","","","47","car","6","0","1",""
"","","","","","","","","","","","canvas-button-response","198","41171731","0.0-198.0","959","10","","","","","","","","","","","","","","confidence","","","2","1","","","","","","","","","","2"
"","","","","","","","","","","","preload","199","41171732","0.0-199.0","","","","","true","","","","","","","","","","","preload","","","2","2","false","[]","[]","[]","","","","","",""
"","","","","","","","","","","","canvas-keyboard-response","200","41172041","0.0-200.0","null","null","","","","","","","","","","","","","","fixation","","","2","2","","","","","","","","","",""
"","","","","","","","","","","","canvas-keyboard-response","201","41172352","0.0-201.0","null","null","","","","","","","","","","","","","","stimulus","","","2","2","","","","","","","","","",""
"","","","","","","","","","","","canvas-button-response","202","41175852","0.0-202.0","3497","flower","","","","","","","","","","","","","","perceptual","","","2","2","","","","","37","house","10","0","0",""
"","","","","","","","","","","","canvas-button-response","203","41177242","0.0-203.0","1388","4","","","","","","","","","","","","","","confidence","","","2","2","","","","","","","","","","2"
"","","","","","","","","","","","preload","204","41177243","0.0-204.0","","","","","true","","","","","","","","","","","preload","","","2","3","false","[]","[]","[]","","","","","",""
"","","","","","","","","","","","canvas-keyboard-response","205","41177549","0.0-205.0","null","null","","","","","","","","","","","","","","fixation","","","2","3","","","","","","","","","",""
"","","","","","","","","","","","canvas-keyboard-response","206","41177863","0.0-206.0","null","null","","","","","","","","","","","","","","stimulus","","","2","3","","","","","","","","","",""
"","","","","","","","","","","","canvas-button-response","207","41180163","0.0-207.0","2298","train","","","","","","","","","","","","","","perceptual","","","2","3","","","","","143","bed","10","0","0",""
"","","","","","","","","","","","canvas-button-response","208","41181932","0.0-208.0","1767","3","","","","","","","","","","","","","","confidence","","","2","3","","","","","","","","","","2"
"","","","","","","","","","","","preload","209","41181933","0.0-209.0","","","","","true","","","","","","","","","","","preload","","","2","4","false","[]","[]","[]","","","","","",""
"","","","","","","","","","","","canvas-keyboard-response","210","41182242","0.0-210.0","null","null","","","","","","","","","","","","","","fixation","","","2","4","","","","","","","","","",""
"","","","","","","","","","","","canvas-keyboard-response","211","41182555","0.0-211.0","null","null","","","","","","","","","","","","","","stimulus","","","2","4","","","","","","","","","",""
"","","","","","","","","","","","canvas-button-response","212","41184241","0.0-212.0","1682","phone","","","","","","","","","","","","","","perceptual","","","2","4","","","","","115","phone","10","0","1",""
"","","","","","","","","","","","canvas-button-response","213","41184953","0.0-213.0","710","7","","","","","","","","","","","","","","confidence","","","2","4","","","","","","","","","","3"
"","","","","","","","","","","","preload","214","41184954","0.0-214.0","","","","","true","","","","","","","","","","","preload","","","2","5","false","[]","[]","[]","","","","","",""
"","","","","","","","","","","","canvas-keyboard-response","215","41185265","0.0-215.0","null","null","","","","","","","","","","","","","","fixation","","","2","5","","","","","","","","","",""
"","","","","","","","","","","","canvas-keyboard-response","216","41185578","0.0-216.0","null","null","","","","","","","","","","","","","","stimulus","","","2","5","","","","","","","","","",""
"","","","","","","","","","","","canvas-button-response","217","41187101","0.0-217.0","1521","cat","","","","","","","","","","","","","","perceptual","","","2","5","","","","","308","cat","10","0","1",""
"","","","","","","","","","","","canvas-button-response","218","41188237","0.0-218.0","1133","5","","","","","","","","","","","","","","confidence","","","2","5","","","","","","","","","","4"
"","","","","","","","","","","","preload","219","41188238","0.0-219.0","","","","","true","","","","","","","","","","","preload","","","2","6","false","[]","[]","[]","","","","","",""
"","","","","","","","","","","","canvas-keyboard-response","220","41188547","0.0-220.0","null","null","","","","","","","","","","","","","","fixation","","","2","6","","","","","","","","","",""
"","","","","","","","","","","","canvas-keyboard-response","221","41188861","0.0-221.0","null","null","","","","","","","","","","","","","","stimulus","","","2","6","","","","","","","","","",""
"","","","","","","","","","","","canvas-button-response","222","41190328","0.0-222.0","1465","cat","","","","","","","","","","","","","","perceptual","","","2","6","","","","","298","cat","6","0","1",""
"","","","","","","","","","","","canvas-button-response","223","41191152","0.0-223.0","821","10","","","","","","","","","","","","","","confidence","","","2","6","","","","","","","","","","5"
"","","","","","","","","","","","preload","224","41191153","0.0-224.0","","","","","true","","","","","","","","","","","preload","","","2","7","false","[]","[]","[]","","","","","",""
"","","","","","","","","","","","canvas-keyboard-response","225","41191463","0.0-225.0","null","null","","","","","","","","","","","","","","fixation","","","2","7","","","","","","","","","",""
"","","","","","","","","","","","canvas-keyboard-response","226","41191779","0.0-226.0","null","null","","","","","","","","","","","","","","stimulus","","","2","7","","","","","","","","","",""
"","","","","","","","","","","","canvas-button-response","227","41193439","0.0-227.0","1658","car","","","","","","","","","","","","","","perceptual","","","2","7","","","","","50","car","6","0","1",""
"","","","","","","","","","","","canvas-button-response","228","41194375","0.0-228.0","935","10","","","","","","","","","","","","","","confidence","","","2","7","","","","","","","","","","6"
"","","","","","","","","","","","preload","229","41194375","0.0-229.0","","","","","true","","","","","","","","","","","preload","","","2","8","false","[]","[]","[]","","","","","",""
"","","","","","","","","","","","canvas-keyboard-response","230","41194691","0.0-230.0","null","null","","","","","","","","","","","","","","fixation","","","2","8","","","","","","","","","",""
"","","","","","","","","","","","canvas-keyboard-response","231","41195003","0.0-231.0","null","null","","","","","","","","","","","","","","stimulus","","","2","8","","","","","","","","","",""
"","","","","","","","","","","","canvas-button-response","232","41196101","0.0-232.0","1095","train","","","","","","","","","","","","","","perceptual","","","2","8","","","","","257","train","6","0","1",""
"","","","","","","","","","","","canvas-button-response","233","41196730","0.0-233.0","627","10","","","","","","","","","","","","","","confidence","","","2","8","","","","","","","","","","7"
"","","","","","","","","","","","preload","234","41196731","0.0-234.0","","","","","true","","","","","","","","","","","preload","","","2","9","false","[]","[]","[]","","","","","",""
"","","","","","","","","","","","canvas-keyboard-response","235","41197043","0.0-235.0","null","null","","","","","","","","","","","","","","fixation","","","2","9","","","","","","","","","",""
"","","","","","","","","","","","canvas-keyboard-response","236","41197352","0.0-236.0","null","null","","","","","","","","","","","","","","stimulus","","","2","9","","","","","","","","","",""
"","","","","","","","","","","","canvas-button-response","237","41199320","0.0-237.0","1965","flower","","","","","","","","","","","","","","perceptual","","","2","9","","","","","342","elephant","10","0","0",""
"","","","","","","","","","","","canvas-button-response","238","41200595","0.0-238.0","1273","10","","","","","","","","","","","","","","confidence","","","2","9","","","","","","","","","","7"
"","","","","","","","","","","","preload","239","41200596","0.0-239.0","","","","","true","","","","","","","","","","","preload","","","2","10","false","[]","[]","[]","","","","","",""
"","","","","","","","","","","","canvas-keyboard-response","240","41200911","0.0-240.0","null","null","","","","","","","","","","","","","","fixation","","","2","10","","","","","","","","","",""
"","","","","","","","","","","","canvas-keyboard-response","241","41201227","0.0-241.0","null","null","","","","","","","","","","","","","","stimulus","","","2","10","","","","","","","","","",""
"","","","","","","","","","","","canvas-button-response","242","41203100","0.0-242.0","1872","car","","","","","","","","","","","","","","perceptual","","","2","10","","","","","73","car","10","0","1",""
"","","","","","","","","","","","canvas-button-response","243","41203864","0.0-243.0","761","10","","","","","","","","","","","","","","confidence","","","2","10","","","","","","","","","","8"
"","","","","","","","","","","","preload","244","41203865","0.0-244.0","","","","","true","","","","","","","","","","","preload","","","2","11","false","[]","[]","[]","","","","","",""
"","","","","","","","","","","","canvas-keyboard-response","245","41204182","0.0-245.0","null","null","","","","","","","","","","","","","","fixation","","","2","11","","","","","","","","","",""
"","","","","","","","","","","","canvas-keyboard-response","246","41204495","0.0-246.0","null","null","","","","","","","","","","","","","","stimulus","","","2","11","","","","","","","","","",""
"","","","","","","","","","","","canvas-button-response","247","41205931","0.0-247.0","1433","train","","","","","","","","","","","","","","perceptual","","","2","11","","","","","186","bridge","10","0","0",""
"","","","","","","","","","","","canvas-button-response","248","41207368","0.0-248.0","1435","7","","","","","","","","","","","","","","confidence","","","2","11","","","","","","","","","","8"
"","","","","","","","","","","","preload","249","41207369","0.0-249.0","","","","","true","","","","","","","","","","","preload","","","2","12","false","[]","[]","[]","","","","","",""
"","","","","","","","","","","","canvas-keyboard-response","250","41207677","0.0-250.0","null","null","","","","","","","","","","","","","","fixation","","","2","12","","","","","","","","","",""
"","","","","","","","","","","","canvas-keyboard-response","251","41207988","0.0-251.0","null","null","","","","","","","","","","","","","","stimulus","","","2","12","","","","","","","","","",""
"","","","","","","","","","","","canvas-button-response","252","41210279","0.0-252.0","2288","elephant","","","","","","","","","","","","","","perceptual","","","2","12","","","","","277","train","10","0","0",""
"","","","","","","","","","","","canvas-button-response","253","41211262","0.0-253.0","982","5","","","","","","","","","","","","","","confidence","","","2","12","","","","","","","","","","8"
"","","","","","","","","","","","preload","254","41211263","0.0-254.0","","","","","true","","","","","","","","","","","preload","","","2","13","false","[]","[]","[]","","","","","",""
"","","","","","","","","","","","canvas-keyboard-response","255","41211573","0.0-255.0","null","null","","","","","","","","","","","","","","fixation","","","2","13","","","","","","","","","",""
"","","","","","","","","","","","canvas-keyboard-response","256","41211887","0.0-256.0","null","null","","","","","","","","","","","","","","stimulus","","","2","13","","","","","","","","","",""
"","","","","","","","","","","","canvas-button-response","257","41215515","0.0-257.0","3626","house","","","","","","","","","","","","","","perceptual","","","2","13","","","","","158","bed","10","0","0",""
"","","","","","","","","","","","canvas-button-response","258","41216294","0.0-258.0","776","2","","","","","","","","","","","","","","confidence","","","2","13","","","","","","","","","","8"
"","","","","","","","","","","","preload","259","41216295","0.0-259.0","","","","","true","","","","","","","","","","","preload","","","2","14","false","[]","[]","[]","","","","","",""
"","","","","","","","","","","","canvas-keyboard-response","260","41216599","0.0-260.0","null","null","","","","","","","","","","","","","","fixation","","","2","14","","","","","","","","","",""
"","","","","","","","","","","","canvas-keyboard-response","261","41216913","0.0-261.0","null","null","","","","","","","","","","","","","","stimulus","","","2","14","","","","","","","","","",""
"","","","","","","","","","","","canvas-button-response","262","41218166","0.0-262.0","1251","knife","","","","","","","","","","","","","","perceptual","","","2","14","","","","","376","knife","6","0","1",""
"","","","","","","","","","","","canvas-button-response","263","41219185","0.0-263.0","1017","10","","","","","","","","","","","","","","confidence","","","2","14","","","","","","","","","","9"
"","","","","","","","","","","","preload","264","41219186","0.0-264.0","","","","","true","","","","","","","","","","","preload","","","2","15","false","[]","[]","[]","","","","","",""
"","","","","","","","","","","","canvas-keyboard-response","265","41219491","0.0-265.0","null","null","","","","","","","","","","","","","","fixation","","","2","15","","","","","","","","","",""
"","","","","","","","","","","","canvas-keyboard-response","266","41219804","0.0-266.0","null","null","","","","","","","","","","","","","","stimulus","","","2","15","","","","","","","","","",""
"","","","","","","","","","","","canvas-button-response","267","41221441","0.0-267.0","1634","flower","","","","","","","","","","","","","","perceptual","","","2","15","","","","","224","flower","10","0","1",""
"","","","","","","","","","","","canvas-button-response","268","41223003","0.0-268.0","1560","8","","","","","","","","","","","","","","confidence","","","2","15","","","","","","","","","","10"
"","","","","","","","","","","","preload","269","41223004","0.0-269.0","","","","","true","","","","","","","","","","","preload","","","2","16","false","[]","[]","[]","","","","","",""
"","","","","","","","","","","","canvas-keyboard-response","270","41223307","0.0-270.0","null","null","","","","","","","","","","","","","","fixation","","","2","16","","","","","","","","","",""
"","","","","","","","","","","","canvas-keyboard-response","271","41223619","0.0-271.0","null","null","","","","","","","","","","","","","","stimulus","","","2","16","","","","","","","","","",""
"","","","","","","","","","","","canvas-button-response","272","41228446","0.0-272.0","4825","car","","","","","","","","","","","","","","perceptual","","","2","16","","","","","358","elephant","10","0","0",""
"","","","","","","","","","","","canvas-button-response","273","41229246","0.0-273.0","799","3","","","","","","","","","","","","","","confidence","","","2","16","","","","","","","","","","10"
"","","","","","","","","","","","preload","274","41229247","0.0-274.0","","","","","true","","","","","","","","","","","preload","","","2","17","false","[]","[]","[]","","","","","",""
"","","","","","","","","","","","canvas-keyboard-response","275","41229556","0.0-275.0","null","null","","","","","","","","","","","","","","fixation","","","2","17","","","","","","","","","",""
"","","","","","","","","","","","canvas-keyboard-response","276","41229870","0.0-276.0","null","null","","","","","","","","","","","","","","stimulus","","","2","17","","","","","","","","","",""
"","","","","","","","","","","","canvas-button-response","277","41231319","0.0-277.0","1447","train","","","","","","","","","","","","","","perceptual","","","2","17","","","","","274","train","10","0","1",""
"","","","","","","","","","","","canvas-button-response","278","41232113","0.0-278.0","792","8","","","","","","","","","","","","","","confidence","","","2","17","","","","","","","","","","11"
"","","","","","","","","","","","preload","279","41232114","0.0-279.0","","","","","true","","","","","","","","","","","preload","","","2","18","false","[]","[]","[]","","","","","",""
"","","","","","","","","","","","canvas-keyboard-response","280","41232416","0.0-280.0","null","null","","","","","","","","","","","","","","fixation","","","2","18","","","","","","","","","",""
"","","","","","","","","","","","canvas-keyboard-response","281","41232729","0.0-281.0","null","null","","","","","","","","","","","","","","stimulus","","","2","18","","","","","","","","","",""
"","","","","","","","","","","","canvas-button-response","282","41234442","0.0-282.0","1710","elephant","","","","","","","","","","","","","","perceptual","","","2","18","","","","","335","elephant","6","0","1",""
"","","","","","","","","","","","canvas-button-response","283","41235157","0.0-283.0","712","10","","","","","","","","","","","","","","confidence","","","2","18","","","","","","","","","","12"
"","","","","","","","","","","","preload","284","41235158","0.0-284.0","","","","","true","","","","","","","","","","","preload","","","2","19","false","[]","[]","[]","","","","","",""
"","","","","","","","","","","","canvas-keyboard-response","285","41235472","0.0-285.0","null","null","","","","","","","","","","","","","","fixation","","","2","19","","","","","","","","","",""
"","","","","","","","","","","","canvas-keyboard-response","286","41235784","0.0-286.0","null","null","","","","","","","","","","","","","","stimulus","","","2","19","","","","","","","","","",""
"","","","","","","","","","","","canvas-button-response","287","41238175","0.0-287.0","2388","bridge","","","","","","","","","","","","","","perceptual","","","2","19","","","","","175","bridge","6","0","1",""
"","","","","","","","","","","","canvas-button-response","288","41238984","0.0-288.0","807","10","","","","","","","","","","","","","","confidence","","","2","19","","","","","","","","","","13"
"","","","","","","","","","","","preload","289","41238985","0.0-289.0","","","","","true","","","","","","","","","","","preload","","","2","20","false","[]","[]","[]","","","","","",""
"","","","","","","","","","","","canvas-keyboard-response","290","41239297","0.0-290.0","null","null","","","","","","","","","","","","","","fixation","","","2","20","","","","","","","","","",""
"","","","","","","","","","","","canvas-keyboard-response","291","41239605","0.0-291.0","null","null","","","","","","","","","","","","","","stimulus","","","2","20","","","","","","","","","",""
"","","","","","","","","","","","canvas-button-response","292","41241373","0.0-292.0","1766","bridge","","","","","","","","","","","","","","perceptual","","","2","20","","","","","168","bridge","6","0","1",""
"","","","","","","","","","","","canvas-button-response","293","41242927","0.0-293.0","1552","4","","","","","","","","","","","","","","confidence","","","2","20","","","","","","","","","","14"
"","","","","","","","","","","","preload","294","41242928","0.0-294.0","","","","","true","","","","","","","","","","","preload","","","2","21","false","[]","[]","[]","","","","","",""
"","","","","","","","","","","","canvas-keyboard-response","295","41243244","0.0-295.0","null","null","","","","","","","","","","","","","","fixation","","","2","21","","","","","","","","","",""
"","","","","","","","","","","","canvas-keyboard-response","296","41243555","0.0-296.0","null","null","","","","","","","","","","","","","","stimulus","","","2","21","","","","","","","","","",""
"","","","","","","","","","","","canvas-button-response","297","41245763","0.0-297.0","2206","knife","","","","","","","","","","","","","","perceptual","","","2","21","","","","","92","phone","6","0","0",""
"","","","","","","","","","","","canvas-button-response","298","41246825","0.0-298.0","1059","4","","","","","","","","","","","","","","confidence","","","2","21","","","","","","","","","","14"
"","","","","","","","","","","","preload","299","41246826","0.0-299.0","","","","","true","","","","","","","","","","","preload","","","2","22","false","[]","[]","[]","","","","","",""
"","","","","","","","","","","","canvas-keyboard-response","300","41247139","0.0-300.0","null","null","","","","","","","","","","","","","","fixation","","","2","22","","","","","","","","","",""
"","","","","","","","","","","","canvas-keyboard-response","301","41247451","0.0-301.0","null","null","","","","","","","","","","","","","","stimulus","","","2","22","","","","","","","","","",""
"","","","","","","","","","","","canvas-button-response","302","41249093","0.0-302.0","1640","cat","","","","","","","","","","","","","","perceptual","","","2","22","","","","","359","elephant","10","0","0",""
"","","","","","","","","","","","canvas-button-response","303","41250134","0.0-303.0","1039","6","","","","","","","","","","","","","","confidence","","","2","22","","","","","","","","","","14"
"","","","","","","","","","","","preload","304","41250135","0.0-304.0","","","","","true","","","","","","","","","","","preload","","","2","23","false","[]","[]","[]","","","","","",""
"","","","","","","","","","","","canvas-keyboard-response","305","41250446","0.0-305.0","null","null","","","","","","","","","","","","","","fixation","","","2","23","","","","","","","","","",""
"","","","","","","","","","","","canvas-keyboard-response","306","41250757","0.0-306.0","null","null","","","","","","","","","","","","","","stimulus","","","2","23","","","","","","","","","",""
"","","","","","","","","","","","canvas-button-response","307","41252094","0.0-307.0","1335","bridge","","","","","","","","","","","","","","perceptual","","","2","23","","","","","163","bridge","6","0","1",""
"","","","","","","","","","","","canvas-button-response","308","41253769","0.0-308.0","1672","9","","","","","","","","","","","","","","confidence","","","2","23","","","","","","","","","","15"
"","","","","","","","","","","","preload","309","41253770","0.0-309.0","","","","","true","","","","","","","","","","","preload","","","2","24","false","[]","[]","[]","","","","","",""
"","","","","","","","","","","","canvas-keyboard-response","310","41254081","0.0-310.0","null","null","","","","","","","","","","","","","","fixation","","","2","24","","","","","","","","","",""
"","","","","","","","","","","","canvas-keyboard-response","311","41254396","0.0-311.0","null","null","","","","","","","","","","","","","","stimulus","","","2","24","","","","","","","","","",""
"","","","","","","","","","","","canvas-button-response","312","41256615","0.0-312.0","2217","flower","","","","","","","","","","","","","","perceptual","","","2","24","","","","","369","knife","6","0","0",""
"","","","","","","","","","","","canvas-button-response","313","41258213","0.0-313.0","1596","5","","","","","","","","","","","","","","confidence","","","2","24","","","","","","","","","","15"
"","","","","","","","","","","","preload","314","41258214","0.0-314.0","","","","","true","","","","","","","","","","","preload","","","2","25","false","[]","[]","[]","","","","","",""
"","","","","","","","","","","","canvas-keyboard-response","315","41258517","0.0-315.0","null","null","","","","","","","","","","","","","","fixation","","","2","25","","","","","","","","","",""
"","","","","","","","","","","","canvas-keyboard-response","316","41258830","0.0-316.0","null","null","","","","","","","","","","","","","","stimulus","","","2","25","","","","","","","","","",""
"","","","","","","","","","","","canvas-button-response","317","41260059","0.0-317.0","1227","train","","","","","","","","","","","","","","perceptual","","","2","25","","","","","240","train","6","0","1",""
"","","","","","","","","","","","canvas-button-response","318","41262960","0.0-318.0","2899","8","","","","","","","","","","","","","","confidence","","","2","25","","","","","","","","","","16"
"","","","","","","","","","","","preload","319","41262961","0.0-319.0","","","","","true","","","","","","","","","","","preload","","","2","26","false","[]","[]","[]","","","","","",""
"","","","","","","","","","","","canvas-keyboard-response","320","41263272","0.0-320.0","null","null","","","","","","","","","","","","","","fixation","","","2","26","","","","","","","","","",""
"","","","","","","","","","","","canvas-keyboard-response","321","41263587","0.0-321.0","null","null","","","","","","","","","","","","","","stimulus","","","2","26","","","","","","","","","",""
"","","","","","","","","","","","canvas-button-response","322","41264733","0.0-322.0","1143","knife","","","","","","","","","","","","","","perceptual","","","2","26","","","","","109","phone","10","0","0",""
"","","","","","","","","","","","canvas-button-response","323","41265607","0.0-323.0","871","6","","","","","","","","","","","","","","confidence","","","2","26","","","","","","","","","","16"
"","","","","","","","","","","","preload","324","41265608","0.0-324.0","","","","","true","","","","","","","","","","","preload","","","2","27","false","[]","[]","[]","","","","","",""
"","","","","","","","","","","","canvas-keyboard-response","325","41265922","0.0-325.0","null","null","","","","","","","","","","","","","","fixation","","","2","27","","","","","","","","","",""
"","","","","","","","","","","","canvas-keyboard-response","326","41266236","0.0-326.0","null","null","","","","","","","","","","","","","","stimulus","","","2","27","","","","","","","","","",""
"","","","","","","","","","","","canvas-button-response","327","41267417","0.0-327.0","1178","train","","","","","","","","","","","","","","perceptual","","","2","27","","","","","252","train","6","0","1",""
"","","","","","","","","","","","canvas-button-response","328","41268055","0.0-328.0","636","10","","","","","","","","","","","","","","confidence","","","2","27","","","","","","","","","","17"
"","","","","","","","","","","","preload","329","41268056","0.0-329.0","","","","","true","","","","","","","","","","","preload","","","2","28","false","[]","[]","[]","","","","","",""
"","","","","","","","","","","","canvas-keyboard-response","330","41268358","0.0-330.0","null","null","","","","","","","","","","","","","","fixation","","","2","28","","","","","","","","","",""
"","","","","","","","","","","","canvas-keyboard-response","331","41268671","0.0-331.0","null","null","","","","","","","","","","","","","","stimulus","","","2","28","","","","","","","","","",""
"","","","","","","","","","","","canvas-button-response","332","41270258","0.0-332.0","1585","bed","","","","","","","","","","","","","","perceptual","","","2","28","","","","","154","bed","10","0","1",""
"","","","","","","","","","","","canvas-button-response","333","41271516","0.0-333.0","1255","10","","","","","","","","","","","","","","confidence","","","2","28","","","","","","","","","","18"
"","","","","","","","","","","","preload","334","41271517","0.0-334.0","","","","","true","","","","","","","","","","","preload","","","2","29","false","[]","[]","[]","","","","","",""
"","","","","","","","","","","","canvas-keyboard-response","335","41271831","0.0-335.0","null","null","","","","","","","","","","","","","","fixation","","","2","29","","","","","","","","","",""
"","","","","","","","","","","","canvas-keyboard-response","336","41272145","0.0-336.0","null","null","","","","","","","","","","","","","","stimulus","","","2","29","","","","","","","","","",""
"","","","","","","","","","","","canvas-button-response","337","41274261","0.0-337.0","2113","house","","","","","","","","","","","","","","perceptual","","","2","29","","","","","36","house","10","0","1",""
"","","","","","","","","","","","canvas-button-response","338","41275749","0.0-338.0","1486","6","","","","","","","","","","","","","","confidence","","","2","29","","","","","","","","","","19"
"","","","","","","","","","","","preload","339","41275750","0.0-339.0","","","","","true","","","","","","","","","","","preload","","","2","30","false","[]","[]","[]","","","","","",""
"","","","","","","","","","","","canvas-keyboard-response","340","41276053","0.0-340.0","null","null","","","","","","","","","","","","","","fixation","","","2","30","","","","","","","","","",""
"","","","","","","","","","","","canvas-keyboard-response","341","41276368","0.0-341.0","null","null","","","","","","","","","","","","","","stimulus","","","2","30","","","","","","","","","",""
"","","","","","","","","","","","canvas-button-response","342","41277489","0.0-342.0","1118","train","","","","","","","","","","","","","","perceptual","","","2","30","","","","","279","train","10","0","1",""
"","","","","","","","","","","","canvas-button-response","343","41278166","0.0-343.0","675","9","","","","","","","","","","","","","","confidence","","","2","30","","","","","","","","","","20"
"","","","","","","","","","","","preload","344","41278167","0.0-344.0","","","","","true","","","","","","","","","","","preload","","","2","31","false","[]","[]","[]","","","","","",""
"","","","","","","","","","","","canvas-keyboard-response","345","41278483","0.0-345.0","null","null","","","","","","","","","","","","","","fixation","","","2","31","","","","","","","","","",""
"","","","","","","","","","","","canvas-keyboard-response","346","41278796","0.0-346.0","null","null","","","","","","","","","","","","","","stimulus","","","2","31","","","","","","","","","",""
"","","","","","","","","","","","canvas-button-response","347","41281168","0.0-347.0","2370","elephant","","","","","","","","","","","","","","perceptual","","","2","31","","","","","357","elephant","10","0","1",""
"","","","","","","","","","","","canvas-button-response","348","41282280","0.0-348.0","1110","6","","","","","","","","","","","","","","confidence","","","2","31","","","","","","","","","","21"
"","","","","","","","","","","","preload","349","41282281","0.0-349.0","","","","","true","","","","","","","","","","","preload","","","2","32","false","[]","[]","[]","","","","","",""
"","","","","","","","","","","","canvas-keyboard-response","350","41282590","0.0-350.0","null","null","","","","","","","","","","","","","","fixation","","","2","32","","","","","","","","","",""
"","","","","","","","","","","","canvas-keyboard-response","351","41282903","0.0-351.0","null","null","","","","","","","","","","","","","","stimulus","","","2","32","","","","","","","","","",""
"","","","","","","","","","","","canvas-button-response","352","41284525","0.0-352.0","1619","train","","","","","","","","","","","","","","perceptual","","","2","32","","","","","259","train","6","0","1",""
"","","","","","","","","","","","canvas-button-response","353","41285380","0.0-353.0","852","6","","","","","","","","","","","","","","confidence","","","2","32","","","","","","","","","","22"
"","","","","","","","","","","","preload","354","41285381","0.0-354.0","","","","","true","","","","","","","","","","","preload","","","2","33","false","[]","[]","[]","","","","","",""
"","","","","","","","","","","","canvas-keyboard-response","355","41285696","0.0-355.0","null","null","","","","","","","","","","","","","","fixation","","","2","33","","","","","","","","","",""
"","","","","","","","","","","","canvas-keyboard-response","356","41286008","0.0-356.0","null","null","","","","","","","","","","","","","","stimulus","","","2","33","","","","","","","","","",""
"","","","","","","","","","","","canvas-button-response","357","41287921","0.0-357.0","1911","car","","","","","","","","","","","","","","perceptual","","","2","33","","","","","68","car","10","0","1",""
"","","","","","","","","","","","canvas-button-response","358","41288861","0.0-358.0","937","7","","","","","","","","","","","","","","confidence","","","2","33","","","","","","","","","","23"
"","","","","","","","","","","","preload","359","41288862","0.0-359.0","","","","","true","","","","","","","","","","","preload","","","2","34","false","[]","[]","[]","","","","","",""
"","","","","","","","","","","","canvas-keyboard-response","360","41289168","0.0-360.0","null","null","","","","","","","","","","","","","","fixation","","","2","34","","","","","","","","","",""
"","","","","","","","","","","","canvas-keyboard-response","361","41289480","0.0-361.0","null","null","","","","","","","","","","","","","","stimulus","","","2","34","","","","","","","","","",""
"","","","","","","","","","","","canvas-button-response","362","41301638","0.0-362.0","12155","flower","","","","","","","","","","","","","","perceptual","","","2","34","","","","","347","elephant","10","0","0",""
"","","","","","","","","","","","canvas-button-response","363","41301797","0.0-363.0","157","1","","","","","","","","","","","","","","confidence","","","2","34","","","","","","","","","","23"
"","","","","","","","","","","","preload","364","41301798","0.0-364.0","","","","","true","","","","","","","","","","","preload","","","2","35","false","[]","[]","[]","","","","","",""
"","","","","","","","","","","","canvas-keyboard-response","365","41302099","0.0-365.0","null","null","","","","","","","","","","","","","","fixation","","","2","35","","","","","","","","","",""
"","","","","","","","","","","","canvas-keyboard-response","366","41302409","0.0-366.0","null","null","","","","","","","","","","","","","","stimulus","","","2","35","","","","","","","","","",""
"","","","","","","","","","","","canvas-button-response","367","41306783","0.0-367.0","4371","bed","","","","","","","","","","","","","","perceptual","","","2","35","","","","","57","car","6","0","0",""
"","","","","","","","","","","","canvas-button-response","368","41307542","0.0-368.0","757","0","","","","","","","","","","","","","","confidence","","","2","35","","","","","","","","","","23"
"","","","","","","","","","","","preload","369","41307543","0.0-369.0","","","","","true","","","","","","","","","","","preload","","","2","36","false","[]","[]","[]","","","","","",""
"","","","","","","","","","","","canvas-keyboard-response","370","41307850","0.0-370.0","null","null","","","","","","","","","","","","","","fixation","","","2","36","","","","","","","","","",""
"","","","","","","","","","","","canvas-keyboard-response","371","41308161","0.0-371.0","null","null","","","","","","","","","","","","","","stimulus","","","2","36","","","","","","","","","",""
"","","","","","","","","","","","canvas-button-response","372","41312203","0.0-372.0","4039","flower","","","","","","","","","","","","","","perceptual","","","2","36","","","","","71","car","10","0","0",""
"","","","","","","","","","","","canvas-button-response","373","41313695","0.0-373.0","1490","1","","","","","","","","","","","","","","confidence","","","2","36","","","","","","","","","","23"
"","","","","","","","","","","","preload","374","41313696","0.0-374.0","","","","","true","","","","","","","","","","","preload","","","2","37","false","[]","[]","[]","","","","","",""
"","","","","","","","","","","","canvas-keyboard-response","375","41313998","0.0-375.0","null","null","","","","","","","","","","","","","","fixation","","","2","37","","","","","","","","","",""
"","","","","","","","","","","","canvas-keyboard-response","376","41314306","0.0-376.0","null","null","","","","","","","","","","","","","","stimulus","","","2","37","","","","","","","","","",""
"","","","","","","","","","","","canvas-button-response","377","41316879","0.0-377.0","2571","car","","","","","","","","","","","","","","perceptual","","","2","37","","","","","45","car","6","0","1",""
"","","","","","","","","","","","canvas-button-response","378","41318217","0.0-378.0","1335","10","","","","","","","","","","","","","","confidence","","","2","37","","","","","","","","","","24"
"","","","","","","","","","","","preload","379","41318218","0.0-379.0","","","","","true","","","","","","","","","","","preload","","","2","38","false","[]","[]","[]","","","","","",""
"","","","","","","","","","","","canvas-keyboard-response","380","41318519","0.0-380.0","null","null","","","","","","","","","","","","","","fixation","","","2","38","","","","","","","","","",""
"","","","","","","","","","","","canvas-keyboard-response","381","41318830","0.0-381.0","null","null","","","","","","","","","","","","","","stimulus","","","2","38","","","","","","","","","",""
"","","","","","","","","","","","canvas-button-response","382","41321484","0.0-382.0","2651","bridge","","","","","","","","","","","","","","perceptual","","","2","38","","","","","160","bridge","6","0","1",""
"","","","","","","","","","","","canvas-button-response","383","41322272","0.0-383.0","786","7","","","","","","","","","","","","","","confidence","","","2","38","","","","","","","","","","25"
"","","","","","","","","","","","preload","384","41322273","0.0-384.0","","","","","true","","","","","","","","","","","preload","","","2","39","false","[]","[]","[]","","","","","",""
"","","","","","","","","","","","canvas-keyboard-response","385","41322576","0.0-385.0","null","null","","","","","","","","","","","","","","fixation","","","2","39","","","","","","","","","",""
"","","","","","","","","","","","canvas-keyboard-response","386","41322881","0.0-386.0","null","null","","","","","","","","","","","","","","stimulus","","","2","39","","","","","","","","","",""
"","","","","","","","","","","","canvas-button-response","387","41326242","0.0-387.0","3358","knife","","","","","","","","","","","","","","perceptual","","","2","39","","","","","196","bridge","10","0","0",""
"","","","","","","","","","","","canvas-button-response","388","41327285","0.0-388.0","1041","5","","","","","","","","","","","","","","confidence","","","2","39","","","","","","","","","","25"
"","","","","","","","","","","","preload","389","41327286","0.0-389.0","","","","","true","","","","","","","","","","","preload","","","2","40","false","[]","[]","[]","","","","","",""
"","","","","","","","","","","","canvas-keyboard-response","390","41327594","0.0-390.0","null","null","","","","","","","","","","","","","","fixation","","","2","40","","","","","","","","","",""
"","","","","","","","","","","","canvas-keyboard-response","391","41327905","0.0-391.0","null","null","","","","","","","","","","","","","","stimulus","","","2","40","","","","","","","","","",""
"","","","","","","","","","","","canvas-button-response","392","41328732","0.0-392.0","825","knife","","","","","","","","","","","","","","perceptual","","","2","40","","","","","385","knife","10","0","1",""
"","","","","","","","","","","","canvas-button-response","393","41329874","0.0-393.0","1139","10","","","","","","","","","","","","","","confidence","","","2","40","","","","","","","","","","26"
"","","","","","","","","","","","preload","394","41329875","0.0-394.0","","","","","true","","","","","","","","","","","preload","","","2","41","false","[]","[]","[]","","","","","",""
"","","","","","","","","","","","canvas-keyboard-response","395","41330181","0.0-395.0","null","null","","","","","","","","","","","","","","fixation","","","2","41","","","","","","","","","",""
"","","","","","","","","","","","canvas-keyboard-response","396","41330482","0.0-396.0","null","null","","","","","","","","","","","","","","stimulus","","","2","41","","","","","","","","","",""
"","","","","","","","","","","","canvas-button-response","397","41331784","0.0-397.0","1299","bridge","","","","","","","","","","","","","","perceptual","","","2","41","","","","","147","bed","10","0","0",""
"","","","","","","","","","","","canvas-button-response","398","41333920","0.0-398.0","2134","0","","","","","","","","","","","","","","confidence","","","2","41","","","","","","","","","","26"
"","","","","","","","","","","","preload","399","41333921","0.0-399.0","","","","","true","","","","","","","","","","","preload","","","2","42","false","[]","[]","[]","","","","","",""
"","","","","","","","","","","","canvas-keyboard-response","400","41334223","0.0-400.0","null","null","","","","","","","","","","","","","","fixation","","","2","42","","","","","","","","","",""
"","","","","","","","","","","","canvas-keyboard-response","401","41334527","0.0-401.0","null","null","","","","","","","","","","","","","","stimulus","","","2","42","","","","","","","","","",""
"","","","","","","","","","","","canvas-button-response","402","41336343","0.0-402.0","1813","knife","","","","","","","","","","","","","","perceptual","","","2","42","","","","","377","knife","6","0","1",""
"","","","","","","","","","","","canvas-button-response","403","41337823","0.0-403.0","1479","8","","","","","","","","","","","","","","confidence","","","2","42","","","","","","","","","","27"
"","","","","","","","","","","","preload","404","41337824","0.0-404.0","","","","","true","","","","","","","","","","","preload","","","2","43","false","[]","[]","[]","","","","","",""
"","","","","","","","","","","","canvas-keyboard-response","405","41338125","0.0-405.0","null","null","","","","","","","","","","","","","","fixation","","","2","43","","","","","","","","","",""
"","","","","","","","","","","","canvas-keyboard-response","406","41338427","0.0-406.0","null","null","","","","","","","","","","","","","","stimulus","","","2","43","","","","","","","","","",""
"","","","","","","","","","","","canvas-button-response","407","41339581","0.0-407.0","1153","car","","","","","","","","","","","","","","perceptual","","","2","43","","","","","48","car","6","0","1",""
"","","","","","","","","","","","canvas-button-response","408","41340339","0.0-408.0","756","10","","","","","","","","","","","","","","confidence","","","2","43","","","","","","","","","","28"
"","","","","","","","","","","","preload","409","41340340","0.0-409.0","","","","","true","","","","","","","","","","","preload","","","2","44","false","[]","[]","[]","","","","","",""
"","","","","","","","","","","","canvas-keyboard-response","410","41340642","0.0-410.0","null","null","","","","","","","","","","","","","","fixation","","","2","44","","","","","","","","","",""
"","","","","","","","","","","","canvas-keyboard-response","411","41340945","0.0-411.0","null","null","","","","","","","","","","","","","","stimulus","","","2","44","","","","","","","","","",""
"","","","","","","","","","","","canvas-button-response","412","41342277","0.0-412.0","1329","flower","","","","","","","","","","","","","","perceptual","","","2","44","","","","","214","flower","6","0","1",""
"","","","","","","","","","","","canvas-button-response","413","41343289","0.0-413.0","1010","10","","","","","","","","","","","","","","confidence","","","2","44","","","","","","","","","","29"
"","","","","","","","","","","","preload","414","41343290","0.0-414.0","","","","","true","","","","","","","","","","","preload","","","2","45","false","[]","[]","[]","","","","","",""
"","","","","","","","","","","","canvas-keyboard-response","415","41343606","0.0-415.0","null","null","","","","","","","","","","","","","","fixation","","","2","45","","","","","","","","","",""
"","","","","","","","","","","","canvas-keyboard-response","416","41343921","0.0-416.0","null","null","","","","","","","","","","","","","","stimulus","","","2","45","","","","","","","","","",""
"","","","","","","","","","","","canvas-button-response","417","41345102","0.0-417.0","1179","house","","","","","","","","","","","","","","perceptual","","","2","45","","","","","35","house","10","0","1",""
"","","","","","","","","","","","canvas-button-response","418","41345866","0.0-418.0","761","10","","","","","","","","","","","","","","confidence","","","2","45","","","","","","","","","","30"
"","","","","","","","","","","","preload","419","41345867","0.0-419.0","","","","","true","","","","","","","","","","","preload","","","2","46","false","[]","[]","[]","","","","","",""
"","","","","","","","","","","","canvas-keyboard-response","420","41346168","0.0-420.0","null","null","","","","","","","","","","","","","","fixation","","","2","46","","","","","","","","","",""
"","","","","","","","","","","","canvas-keyboard-response","421","41346479","0.0-421.0","null","null","","","","","","","","","","","","","","stimulus","","","2","46","","","","","","","","","",""
"","","","","","","","","","","","canvas-button-response","422","41348768","0.0-422.0","2286","house","","","","","","","","","","","","","","perceptual","","","2","46","","","","","24","house","10","0","1",""
"","","","","","","","","","","","canvas-button-response","423","41349991","0.0-423.0","1220","6","","","","","","","","","","","","","","confidence","","","2","46","","","","","","","","","","31"
"","","","","","","","","","","","preload","424","41349992","0.0-424.0","","","","","true","","","","","","","","","","","preload","","","2","47","false","[]","[]","[]","","","","","",""
"","","","","","","","","","","","canvas-keyboard-response","425","41350293","0.0-425.0","null","null","","","","","","","","","","","","","","fixation","","","2","47","","","","","","","","","",""
"","","","","","","","","","","","canvas-keyboard-response","426","41350600","0.0-426.0","null","null","","","","","","","","","","","","","","stimulus","","","2","47","","","","","","","","","",""
"","","","","","","","","","","","canvas-button-response","427","41352554","0.0-427.0","1953","flower","","","","","","","","","","","","","","perceptual","","","2","47","","","","","150","bed","10","0","0",""
"","","","","","","","","","","","canvas-button-response","428","41354095","0.0-428.0","1538","2","","","","","","","","","","","","","","confidence","","","2","47","","","","","","","","","","31"
"","","","","","","","","","","","preload","429","41354095","0.0-429.0","","","","","true","","","","","","","","","","","preload","","","2","48","false","[]","[]","[]","","","","","",""
"","","","","","","","","","","","canvas-keyboard-response","430","41354401","0.0-430.0","null","null","","","","","","","","","","","","","","fixation","","","2","48","","","","","","","","","",""
"","","","","","","","","","","","canvas-keyboard-response","431","41354711","0.0-431.0","null","null","","","","","","","","","","","","","","stimulus","","","2","48","","","","","","","","","",""
"","","","","","","","","","","","canvas-button-response","432","41357644","0.0-432.0","2930","cat","","","","","","","","","","","","","","perceptual","","","2","48","","","","","305","cat","10","0","1",""
"","","","","","","","","","","","canvas-button-response","433","41358921","0.0-433.0","1274","1","","","","","","","","","","","","","","confidence","","","2","48","","","","","","","","","","32"
"","","","","","","","","","","","preload","434","41358922","0.0-434.0","","","","","true","","","","","","","","","","","preload","","","2","49","false","[]","[]","[]","","","","","",""
"","","","","","","","","","","","canvas-keyboard-response","435","41359231","0.0-435.0","null","null","","","","","","","","","","","","","","fixation","","","2","49","","","","","","","","","",""
"","","","","","","","","","","","canvas-keyboard-response","436","41359548","0.0-436.0","null","null","","","","","","","","","","","","","","stimulus","","","2","49","","","","","","","","","",""
"","","","","","","","","","","","canvas-button-response","437","41360503","0.0-437.0","953","house","","","","","","","","","","","","","","perceptual","","","2","49","","","","","16","house","6","0","1",""
"","","","","","","","","","","","canvas-button-response","438","41361694","0.0-438.0","1188","10","","","","","","","","","","","","","","confidence","","","2","49","","","","","","","","","","33"
"","","","","","","","","","","","html-button-response","439","41368372","0.0-439.0","6675","0","","","","","","","","","","","","","","<p style=""font-size:20px;color:#000000"">You got 33 out of 50 trials correct in this block.<br><br>You have completed 6% of the experiment.<br><br>Take a short break.<br><br>When you are ready, click Continue to proceed.","","","2","49","","","","","","","","","",""
"","","","","","","","","","","","html-keyboard-response","440","41369378","0.0-440.0","null","null","","","","","","","","","","","","","","<p style=""font-size:32px;color:#000000""><br><br> RUN: &nbsp 1/4 <br><br> BLOCK: 2/4 ","","","2","49","","","","","","","","","",""
"","","","","","","","","","","","preload","441","41369379","0.0-441.0","","","","","true","","","","","","","","","","","preload","","","2","50","false","[]","[]","[]","","","","","",""
"","","","","","","","","","","","canvas-keyboard-response","442","41369687","0.0-442.0","null","null","","","","","","","","","","","","","","fixation","","","2","50","","","","","","","","","",""
"","","","","","","","","","","","canvas-keyboard-response","443","41369997","0.0-443.0","null","null","","","","","","","","","","","","","","stimulus","","","2","50","","","","","","","","","",""
"","","","","","","","","","","","canvas-button-response","444","41375095","0.0-444.0","5095","phone","","","","","","","","","","","","","","perceptual","","","2","50","","","","","59","car","6","0","0",""
"","","","","","","","","","","","canvas-button-response","445","41378081","0.0-445.0","2983","1","","","","","","","","","","","","","","confidence","","","2","50","","","","","","","","","","0"
"","","","","","","","","","","","preload","446","41378082","0.0-446.0","","","","","true","","","","","","","","","","","preload","","","2","51","false","[]","[]","[]","","","","","",""
"","","","","","","","","","","","canvas-keyboard-response","447","41378388","0.0-447.0","null","null","","","","","","","","","","","","","","fixation","","","2","51","","","","","","","","","",""
"","","","","","","","","","","","canvas-keyboard-response","448","41378702","0.0-448.0","null","null","","","","","","","","","","","","","","stimulus","","","2","51","","","","","","","","","",""
"","","","","","","","","","","","canvas-button-response","449","41380001","0.0-449.0","1297","bed","","","","","","","","","","","","","","perceptual","","","2","51","","","","","133","bed","6","0","1",""
"","","","","","","","","","","","canvas-button-response","450","41381154","0.0-450.0","1151","10","","","","","","","","","","","","","","confidence","","","2","51","","","","","","","","","","1"
"","","","","","","","","","","","preload","451","41381155","0.0-451.0","","","","","true","","","","","","","","","","","preload","","","2","52","false","[]","[]","[]","","","","","",""
"","","","","","","","","","","","canvas-keyboard-response","452","41381457","0.0-452.0","null","null","","","","","","","","","","","","","","fixation","","","2","52","","","","","","","","","",""
"","","","","","","","","","","","canvas-keyboard-response","453","41381768","0.0-453.0","null","null","","","","","","","","","","","","","","stimulus","","","2","52","","","","","","","","","",""
"","","","","","","","","","","","canvas-button-response","454","41383655","0.0-454.0","1884","house","","","","","","","","","","","","","","perceptual","","","2","52","","","","","114","phone","10","0","0",""
"","","","","","","","","","","","canvas-button-response","455","41384275","0.0-455.0","619","4","","","","","","","","","","","","","","confidence","","","2","52","","","","","","","","","","1"
"","","","","","","","","","","","preload","456","41384276","0.0-456.0","","","","","true","","","","","","","","","","","preload","","","2","53","false","[]","[]","[]","","","","","",""
"","","","","","","","","","","","canvas-keyboard-response","457","41384593","0.0-457.0","null","null","","","","","","","","","","","","","","fixation","","","2","53","","","","","","","","","",""
"","","","","","","","","","","","canvas-keyboard-response","458","41384904","0.0-458.0","null","null","","","","","","","","","","","","","","stimulus","","","2","53","","","","","","","","","",""
"","","","","","","","","","","","canvas-button-response","459","41387318","0.0-459.0","2412","flower","","","","","","","","","","","","","","perceptual","","","2","53","","","","","190","bridge","10","0","0",""
"","","","","","","","","","","","canvas-button-response","460","41388297","0.0-460.0","976","2","","","","","","","","","","","","","","confidence","","","2","53","","","","","","","","","","1"
"","","","","","","","","","","","preload","461","41388298","0.0-461.0","","","","","true","","","","","","","","","","","preload","","","2","54","false","[]","[]","[]","","","","","",""
"","","","","","","","","","","","canvas-keyboard-response","462","41388602","0.0-462.0","null","null","","","","","","","","","","","","","","fixation","","","2","54","","","","","","","","","",""
"","","","","","","","","","","","canvas-keyboard-response","463","41388909","0.0-463.0","null","null","","","","","","","","","","","","","","stimulus","","","2","54","","","","","","","","","",""
"","","","","","","","","","","","canvas-button-response","464","41391878","0.0-464.0","2966","elephant","","","","","","","","","","","","","","perceptual","","","2","54","","","","","229","flower","10","0","0",""
"","","","","","","","","","","","canvas-button-response","465","41392701","0.0-465.0","821","1","","","","","","","","","","","","","","confidence","","","2","54","","","","","","","","","","1"
"","","","","","","","","","","","preload","466","41392702","0.0-466.0","","","","","true","","","","","","","","","","","preload","","","2","55","false","[]","[]","[]","","","","","",""
"","","","","","","","","","","","canvas-keyboard-response","467","41393017","0.0-467.0","null","null","","","","","","","","","","","","","","fixation","","","2","55","","","","","","","","","",""
"","","","","","","","","","","","canvas-keyboard-response","468","41393328","0.0-468.0","null","null","","","","","","","","","","","","","","stimulus","","","2","55","","","","","","","","","",""
"","","","","","","","","","","","canvas-button-response","469","41394227","0.0-469.0","896","flower","","","","","","","","","","","","","","perceptual","","","2","55","","","","","202","flower","6","0","1",""
"","","","","","","","","","","","canvas-button-response","470","41395011","0.0-470.0","783","10","","","","","","","","","","","","","","confidence","","","2","55","","","","","","","","","","2"
"","","","","","","","","","","","preload","471","41395012","0.0-471.0","","","","","true","","","","","","","","","","","preload","","","2","56","false","[]","[]","[]","","","","","",""
"","","","","","","","","","","","canvas-keyboard-response","472","41395314","0.0-472.0","null","null","","","","","","","","","","","","","","fixation","","","2","56","","","","","","","","","",""
"","","","","","","","","","","","canvas-keyboard-response","473","41395619","0.0-473.0","null","null","","","","","","","","","","","","","","stimulus","","","2","56","","","","","","","","","",""
"","","","","","","","","","","","canvas-button-response","474","41401026","0.0-474.0","5405","bridge","","","","","","","","","","","","","","perceptual","","","2","56","","","","","25","house","10","0","0",""
"","","","","","","","","","","","canvas-button-response","475","41401984","0.0-475.0","956","2","","","","","","","","","","","","","","confidence","","","2","56","","","","","","","","","","2"
"","","","","","","","","","","","preload","476","41401985","0.0-476.0","","","","","true","","","","","","","","","","","preload","","","2","57","false","[]","[]","[]","","","","","",""
"","","","","","","","","","","","canvas-keyboard-response","477","41402297","0.0-477.0","null","null","","","","","","","","","","","","","","fixation","","","2","57","","","","","","","","","",""
"","","","","","","","","","","","canvas-keyboard-response","478","41402609","0.0-478.0","null","null","","","","","","","","","","","","","","stimulus","","","2","57","","","","","","","","","",""
"","","","","","","","","","","","canvas-button-response","479","41404633","0.0-479.0","2022","elephant","","","","","","","","","","","","","","perceptual","","","2","57","","","","","327","elephant","6","0","1",""
"","","","","","","","","","","","canvas-button-response","480","41406712","0.0-480.0","2076","2","","","","","","","","","","","","","","confidence","","","2","57","","","","","","","","","","3"
"","","","","","","","","","","","preload","481","41406713","0.0-481.0","","","","","true","","","","","","","","","","","preload","","","2","58","false","[]","[]","[]","","","","","",""
"","","","","","","","","","","","canvas-keyboard-response","482","41407022","0.0-482.0","null","null","","","","","","","","","","","","","","fixation","","","2","58","","","","","","","","","",""
"","","","","","","","","","","","canvas-keyboard-response","483","41407323","0.0-483.0","null","null","","","","","","","","","","","","","","stimulus","","","2","58","","","","","","","","","",""
"","","","","","","","","","","","canvas-button-response","484","41411089","0.0-484.0","3764","car","","","","","","","","","","","","","","perceptual","","","2","58","","","","","43","car","6","0","1",""
"","","","","","","","","","","","canvas-button-response","485","41411921","0.0-485.0","830","10","","","","","","","","","","","","","","confidence","","","2","58","","","","","","","","","","4"
