"width","height","webaudio","browser","browser_version","mobile","os","fullscreen","vsync_rate","webcam","microphone","trial_type","trial_index","time_elapsed","internal_node_id","rt","response","accuracy","view_history","success","item_width_mm","item_height_mm","item_width_px","px2mm","view_dist_mm","item_width_deg","px2deg","scale_factor","win_width_deg","win_height_deg","stimulus","datetime","subjectID","curr_triallist","trial_no","timeout","failed_images","failed_audio","failed_video","image_index","category","blur","reps","correct","running_score"
"1280","631","true","chrome","140.0.0","false","Windows 10","true","60.33","true","true","browser-check","0","999","0.0-0.0","","","","","","","","","","","","","","","","","","","","","","","","","","","","","",""
"","","","","","","","","","","","survey","1","55119","0.0-1.0","54088","{""P0_Q0"":""903979537"",""P0_Q1"":""18"",""P1_Q0"":""Male"",""P1_Q1"":""Not Hispanic or Latino"",""P1_Q2"":""Black or African American"",""P1_Q3"":""Corrected-to-Normal (using glasses/contacts)"",""P1_Q4"":""Right-Handed""}","[]","","","","","","","","","","","","","","","","","","","","","","","","","","",""
"","","","","","","","","","","","instructions","2","155643","0.0-2.0","100522","","","[{""page_index"":0,""viewing_time"":4686},{""page_index"":1,""viewing_time"":62966},{""page_index"":2,""viewing_time"":19825},{""page_index"":3,""viewing_time"":1243},{""page_index"":2,""viewing_time"":10311},{""page_index"":3,""viewing_time"":1493}]","","","","","","","","","","","","","","","","","","","","","","","","","",""
"","","","","","","","","","","","fullscreen","3","158851","0.0-3.0","2198","","","","true","","","","","","","","","","","","","","","","","","","","","","","","",""
"","","","","","","","","","","","virtual-chinrest","4","275035","0.0-4.0","116183","","","","","85.6","53.98","341.5653306592629","3.986463293139106","429.35","11.385511021975429","30","1.0861758108878456","42.666666666666664","26.666666666666668","","","","","","","","","","","","","","",""
"","","","","","","","","","","","instructions","5","321151","0.0-5.0","46115","","","[{""page_index"":0,""viewing_time"":4412},{""page_index"":1,""viewing_time"":3718},{""page_index"":2,""viewing_time"":5593},{""page_index"":3,""viewing_time"":4697},{""page_index"":4,""viewing_time"":4412},{""page_index"":5,""viewing_time"":21591},{""page_index"":6,""viewing_time"":1693}]","","","","","","","","","","","","","","","","","","","","","","","","","",""
"","","","","","","","","","","","html-button-response","6","323074","0.0-6.0","1921","0","","","","","","","","","","","","","","start_practice","Mon Oct 13 2025 19:06:13 GMT-0400 (Eastern Daylight Time)","27758","","","","","","","","","","","",""
"","","","","","","","","","","","preload","7","323075","0.0-7.0","","","","","true","","","","","","","","","","","preload","","","0","0","false","[]","[]","[]","","","","","",""
"","","","","","","","","","","","canvas-keyboard-response","8","323379","0.0-8.0","null","null","","","","","","","","","","","","","","fixation","","","0","0","","","","","","","","","",""
"","","","","","","","","","","","canvas-keyboard-response","9","323688","0.0-9.0","null","null","","","","","","","","","","","","","","stimulus","","","0","0","","","","","","","","","",""
"","","","","","","","","","","","canvas-button-response","10","325563","0.0-10.0","1874","bridge","","","","","","","","","","","","","","perceptual","","","0","0","","","","","42","bridge","1","","1",""
"","","","","","","","","","","","canvas-button-response","11","326569","0.0-11.0","1005","10","","","","","","","","","","","","","","confidence","","","0","0","","","","","","","","","","1"
"","","","","","","","","","","","html-keyboard-response","12","327571","0.0-12.0","null","null","","","","","","","","","","","","","","feedback","Mon Oct 13 2025 19:06:19 GMT-0400 (Eastern Daylight Time)","27758","0","0","","","","","","","","","",""
"","","","","","","","","","","","preload","13","327572","0.0-13.0","","","","","true","","","","","","","","","","","preload","","","0","1","false","[]","[]","[]","","","","","",""
"","","","","","","","","","","","canvas-keyboard-response","14","327874","0.0-14.0","null","null","","","","","","","","","","","","","","fixation","","","0","1","","","","","","","","","",""
"","","","","","","","","","","","canvas-keyboard-response","15","328186","0.0-15.0","null","null","","","","","","","","","","","","","","stimulus","","","0","1","","","","","","","","","",""
"","","","","","","","","","","","canvas-button-response","16","331245","0.0-16.0","3058","phone","","","","","","","","","","","","","","perceptual","","","0","1","","","","","22","phone","1","","1",""
"","","","","","","","","","","","canvas-button-response","17","331946","0.0-17.0","699","10","","","","","","","","","","","","","","confidence","","","0","1","","","","","","","","","","2"
"","","","","","","","","","","","html-keyboard-response","18","332947","0.0-18.0","null","null","","","","","","","","","","","","","","feedback","Mon Oct 13 2025 19:06:24 GMT-0400 (Eastern Daylight Time)","27758","0","1","","","","","","","","","",""
"","","","","","","","","","","","preload","19","332948","0.0-19.0","","","","","true","","","","","","","","","","","preload","","","0","2","false","[]","[]","[]","","","","","",""
"","","","","","","","","","","","canvas-keyboard-response","20","333249","0.0-20.0","null","null","","","","","","","","","","","","","","fixation","","","0","2","","","","","","","","","",""
"","","","","","","","","","","","canvas-keyboard-response","21","333564","0.0-21.0","null","null","","","","","","","","","","","","","","stimulus","","","0","2","","","","","","","","","",""
"","","","","","","","","","","","canvas-button-response","22","336115","0.0-22.0","2549","knife","","","","","","","","","","","","","","perceptual","","","0","2","","","","","92","knife","1","","1",""
"","","","","","","","","","","","canvas-button-response","23","336837","0.0-23.0","721","10","","","","","","","","","","","","","","confidence","","","0","2","","","","","","","","","","3"
"","","","","","","","","","","","html-keyboard-response","24","337843","0.0-24.0","null","null","","","","","","","","","","","","","","feedback","Mon Oct 13 2025 19:06:29 GMT-0400 (Eastern Daylight Time)","27758","0","2","","","","","","","","","",""
"","","","","","","","","","","","preload","25","337844","0.0-25.0","","","","","true","","","","","","","","","","","preload","","","0","3","false","[]","[]","[]","","","","","",""
"","","","","","","","","","","","canvas-keyboard-response","26","338150","0.0-26.0","null","null","","","","","","","","","","","","","","fixation","","","0","3","","","","","","","","","",""
"","","","","","","","","","","","canvas-keyboard-response","27","338466","0.0-27.0","null","null","","","","","","","","","","","","","","stimulus","","","0","3","","","","","","","","","",""
"","","","","","","","","","","","canvas-button-response","28","344704","0.0-28.0","6237","cat","","","","","","","","","","","","","","perceptual","","","0","3","","","","","82","elephant","1","","0",""
"","","","","","","","","","","","canvas-button-response","29","345398","0.0-29.0","693","10","","","","","","","","","","","","","","confidence","","","0","3","","","","","","","","","","3"
"","","","","","","","","","","","html-keyboard-response","30","346400","0.0-30.0","null","null","","","","","","","","","","","","","","feedback","Mon Oct 13 2025 19:06:38 GMT-0400 (Eastern Daylight Time)","27758","0","3","","","","","","","","","",""
"","","","","","","","","","","","preload","31","346400","0.0-31.0","","","","","true","","","","","","","","","","","preload","","","0","4","false","[]","[]","[]","","","","","",""
"","","","","","","","","","","","canvas-keyboard-response","32","346701","0.0-32.0","null","null","","","","","","","","","","","","","","fixation","","","0","4","","","","","","","","","",""
"","","","","","","","","","","","canvas-keyboard-response","33","347007","0.0-33.0","null","null","","","","","","","","","","","","","","stimulus","","","0","4","","","","","","","","","",""
"","","","","","","","","","","","canvas-button-response","34","349706","0.0-34.0","2698","train","","","","","","","","","","","","","","perceptual","","","0","4","","","","","62","train","1","","1",""
"","","","","","","","","","","","canvas-button-response","35","350531","0.0-35.0","824","10","","","","","","","","","","","","","","confidence","","","0","4","","","","","","","","","","4"
"","","","","","","","","","","","html-keyboard-response","36","351547","0.0-36.0","null","null","","","","","","","","","","","","","","feedback","Mon Oct 13 2025 19:06:43 GMT-0400 (Eastern Daylight Time)","27758","0","4","","","","","","","","","",""
"","","","","","","","","","","","preload","37","351548","0.0-37.0","","","","","true","","","","","","","","","","","preload","","","0","5","false","[]","[]","[]","","","","","",""
"","","","","","","","","","","","canvas-keyboard-response","38","351849","0.0-38.0","null","null","","","","","","","","","","","","","","fixation","","","0","5","","","","","","","","","",""
"","","","","","","","","","","","canvas-keyboard-response","39","352153","0.0-39.0","null","null","","","","","","","","","","","","","","stimulus","","","0","5","","","","","","","","","",""
"","","","","","","","","","","","canvas-button-response","40","353043","0.0-40.0","888","bed","","","","","","","","","","","","","","perceptual","","","0","5","","","","","32","bed","1","","1",""
"","","","","","","","","","","","canvas-button-response","41","353764","0.0-41.0","719","10","","","","","","","","","","","","","","confidence","","","0","5","","","","","","","","","","5"
"","","","","","","","","","","","html-keyboard-response","42","354773","0.0-42.0","null","null","","","","","","","","","","","","","","feedback","Mon Oct 13 2025 19:06:46 GMT-0400 (Eastern Daylight Time)","27758","0","5","","","","","","","","","",""
"","","","","","","","","","","","preload","43","354774","0.0-43.0","","","","","true","","","","","","","","","","","preload","","","0","6","false","[]","[]","[]","","","","","",""
"","","","","","","","","","","","canvas-keyboard-response","44","355085","0.0-44.0","null","null","","","","","","","","","","","","","","fixation","","","0","6","","","","","","","","","",""
"","","","","","","","","","","","canvas-keyboard-response","45","355400","0.0-45.0","null","null","","","","","","","","","","","","","","stimulus","","","0","6","","","","","","","","","",""
"","","","","","","","","","","","canvas-button-response","46","356075","0.0-46.0","673","car","","","","","","","","","","","","","","perceptual","","","0","6","","","","","12","car","1","","1",""
"","","","","","","","","","","","canvas-button-response","47","356913","0.0-47.0","837","10","","","","","","","","","","","","","","confidence","","","0","6","","","","","","","","","","6"
"","","","","","","","","","","","html-keyboard-response","48","357923","0.0-48.0","null","null","","","","","","","","","","","","","","feedback","Mon Oct 13 2025 19:06:49 GMT-0400 (Eastern Daylight Time)","27758","0","6","","","","","","","","","",""
"","","","","","","","","","","","preload","49","357923","0.0-49.0","","","","","true","","","","","","","","","","","preload","","","0","7","false","[]","[]","[]","","","","","",""
"","","","","","","","","","","","canvas-keyboard-response","50","358233","0.0-50.0","null","null","","","","","","","","","","","","","","fixation","","","0","7","","","","","","","","","",""
"","","","","","","","","","","","canvas-keyboard-response","51","358535","0.0-51.0","null","null","","","","","","","","","","","","","","stimulus","","","0","7","","","","","","","","","",""
"","","","","","","","","","","","canvas-button-response","52","360195","0.0-52.0","1658","house","","","","","","","","","","","","","","perceptual","","","0","7","","","","","52","flower","1","","0",""
"","","","","","","","","","","","canvas-button-response","53","361228","0.0-53.0","1033","10","","","","","","","","","","","","","","confidence","","","0","7","","","","","","","","","","6"
"","","","","","","","","","","","html-keyboard-response","54","362243","0.0-54.0","null","null","","","","","","","","","","","","","","feedback","Mon Oct 13 2025 19:06:54 GMT-0400 (Eastern Daylight Time)","27758","0","7","","","","","","","","","",""
"","","","","","","","","","","","preload","55","362243","0.0-55.0","","","","","true","","","","","","","","","","","preload","","","0","8","false","[]","[]","[]","","","","","",""
"","","","","","","","","","","","canvas-keyboard-response","56","362547","0.0-56.0","null","null","","","","","","","","","","","","","","fixation","","","0","8","","","","","","","","","",""
"","","","","","","","","","","","canvas-keyboard-response","57","362859","0.0-57.0","null","null","","","","","","","","","","","","","","stimulus","","","0","8","","","","","","","","","",""
"","","","","","","","","","","","canvas-button-response","58","364190","0.0-58.0","1331","cat","","","","","","","","","","","","","","perceptual","","","0","8","","","","","72","cat","1","","1",""
"","","","","","","","","","","","canvas-button-response","59","365210","0.0-59.0","1019","10","","","","","","","","","","","","","","confidence","","","0","8","","","","","","","","","","7"
"","","","","","","","","","","","html-keyboard-response","60","366214","0.0-60.0","null","null","","","","","","","","","","","","","","feedback","Mon Oct 13 2025 19:06:58 GMT-0400 (Eastern Daylight Time)","27758","0","8","","","","","","","","","",""
"","","","","","","","","","","","preload","61","366214","0.0-61.0","","","","","true","","","","","","","","","","","preload","","","0","9","false","[]","[]","[]","","","","","",""
"","","","","","","","","","","","canvas-keyboard-response","62","366517","0.0-62.0","null","null","","","","","","","","","","","","","","fixation","","","0","9","","","","","","","","","",""
"","","","","","","","","","","","canvas-keyboard-response","63","366834","0.0-63.0","null","null","","","","","","","","","","","","","","stimulus","","","0","9","","","","","","","","","",""
"","","","","","","","","","","","canvas-button-response","64","368527","0.0-64.0","1692","house","","","","","","","","","","","","","","perceptual","","","0","9","","","","","2","house","1","","1",""
"","","","","","","","","","","","canvas-button-response","65","369214","0.0-65.0","686","10","","","","","","","","","","","","","","confidence","","","0","9","","","","","","","","","","8"
"","","","","","","","","","","","html-keyboard-response","66","370224","0.0-66.0","null","null","","","","","","","","","","","","","","feedback","Mon Oct 13 2025 19:07:02 GMT-0400 (Eastern Daylight Time)","27758","0","9","","","","","","","","","",""
"","","","","","","","","","","","html-button-response","67","378058","0.0-67.0","7830","0","","","","","","","","","","","","","","start_practice","Mon Oct 13 2025 19:07:03 GMT-0400 (Eastern Daylight Time)","27758","0","9","","","","","","","","","",""
"","","","","","","","","","","","preload","68","378058","0.0-68.0","","","","","true","","","","","","","","","","","preload","","","1","0","false","[]","[]","[]","","","","","",""
"","","","","","","","","","","","canvas-keyboard-response","69","378362","0.0-69.0","null","null","","","","","","","","","","","","","","fixation","","","1","0","","","","","","","","","",""
"","","","","","","","","","","","canvas-keyboard-response","70","378670","0.0-70.0","null","null","","","","","","","","","","","","","","stimulus","","","1","0","","","","","","","","","",""
"","","","","","","","","","","","canvas-button-response","71","383006","0.0-71.0","4334","elephant","","","","","","","","","","","","","","perceptual","","","1","0","","","","","84","elephant","6","","1",""
"","","","","","","","","","","","canvas-button-response","72","383866","0.0-72.0","859","8","","","","","","","","","","","","","","confidence","","","1","0","","","","","","","","","","1"
"","","","","","","","","","","","html-keyboard-response","73","384867","0.0-73.0","null","null","","","","","","","","","","","","","","feedback","Mon Oct 13 2025 19:07:16 GMT-0400 (Eastern Daylight Time)","27758","1","0","","","","","","","","","",""
"","","","","","","","","","","","preload","74","384868","0.0-74.0","","","","","true","","","","","","","","","","","preload","","","1","1","false","[]","[]","[]","","","","","",""
"","","","","","","","","","","","canvas-keyboard-response","75","385170","0.0-75.0","null","null","","","","","","","","","","","","","","fixation","","","1","1","","","","","","","","","",""
"","","","","","","","","","","","canvas-keyboard-response","76","385487","0.0-76.0","null","null","","","","","","","","","","","","","","stimulus","","","1","1","","","","","","","","","",""
"","","","","","","","","","","","canvas-button-response","77","386252","0.0-77.0","764","train","","","","","","","","","","","","","","perceptual","","","1","1","","","","","64","train","6","","1",""
"","","","","","","","","","","","canvas-button-response","78","386780","0.0-78.0","526","10","","","","","","","","","","","","","","confidence","","","1","1","","","","","","","","","","2"
"","","","","","","","","","","","html-keyboard-response","79","387791","0.0-79.0","null","null","","","","","","","","","","","","","","feedback","Mon Oct 13 2025 19:07:19 GMT-0400 (Eastern Daylight Time)","27758","1","1","","","","","","","","","",""
"","","","","","","","","","","","preload","80","387791","0.0-80.0","","","","","true","","","","","","","","","","","preload","","","1","2","false","[]","[]","[]","","","","","",""
"","","","","","","","","","","","canvas-keyboard-response","81","388100","0.0-81.0","null","null","","","","","","","","","","","","","","fixation","","","1","2","","","","","","","","","",""
"","","","","","","","","","","","canvas-keyboard-response","82","388416","0.0-82.0","null","null","","","","","","","","","","","","","","stimulus","","","1","2","","","","","","","","","",""
"","","","","","","","","","","","canvas-button-response","83","389312","0.0-83.0","895","knife","","","","","","","","","","","","","","perceptual","","","1","2","","","","","97","knife","10","","1",""
"","","","","","","","","","","","canvas-button-response","84","389986","0.0-84.0","673","10","","","","","","","","","","","","","","confidence","","","1","2","","","","","","","","","","3"
"","","","","","","","","","","","html-keyboard-response","85","390989","0.0-85.0","null","null","","","","","","","","","","","","","","feedback","Mon Oct 13 2025 19:07:22 GMT-0400 (Eastern Daylight Time)","27758","1","2","","","","","","","","","",""
"","","","","","","","","","","","preload","86","390990","0.0-86.0","","","","","true","","","","","","","","","","","preload","","","1","3","false","[]","[]","[]","","","","","",""
"","","","","","","","","","","","canvas-keyboard-response","87","391307","0.0-87.0","null","null","","","","","","","","","","","","","","fixation","","","1","3","","","","","","","","","",""
"","","","","","","","","","","","canvas-keyboard-response","88","391613","0.0-88.0","null","null","","","","","","","","","","","","","","stimulus","","","1","3","","","","","","","","","",""
"","","","","","","","","","","","canvas-button-response","89","399837","0.0-89.0","8222","flower","","","","","","","","","","","","","","perceptual","","","1","3","","","","","57","flower","10","","1",""
"","","","","","","","","","","","canvas-button-response","90","400551","0.0-90.0","713","7","","","","","","","","","","","","","","confidence","","","1","3","","","","","","","","","","4"
"","","","","","","","","","","","html-keyboard-response","91","401567","0.0-91.0","null","null","","","","","","","","","","","","","","feedback","Mon Oct 13 2025 19:07:33 GMT-0400 (Eastern Daylight Time)","27758","1","3","","","","","","","","","",""
"","","","","","","","","","","","preload","92","401568","0.0-92.0","","","","","true","","","","","","","","","","","preload","","","1","4","false","[]","[]","[]","","","","","",""
"","","","","","","","","","","","canvas-keyboard-response","93","401882","0.0-93.0","null","null","","","","","","","","","","","","","","fixation","","","1","4","","","","","","","","","",""
"","","","","","","","","","","","canvas-keyboard-response","94","402198","0.0-94.0","null","null","","","","","","","","","","","","","","stimulus","","","1","4","","","","","","","","","",""
"","","","","","","","","","","","canvas-button-response","95","413372","0.0-95.0","11172","bed","","","","","","","","","","","","","","perceptual","","","1","4","","","","","27","phone","10","","0",""
"","","","","","","","","","","","canvas-button-response","96","414587","0.0-96.0","1214","5","","","","","","","","","","","","","","confidence","","","1","4","","","","","","","","","","4"
"","","","","","","","","","","","html-keyboard-response","97","415588","0.0-97.0","null","null","","","","","","","","","","","","","","feedback","Mon Oct 13 2025 19:07:47 GMT-0400 (Eastern Daylight Time)","27758","1","4","","","","","","","","","",""
"","","","","","","","","","","","preload","98","415589","0.0-98.0","","","","","true","","","","","","","","","","","preload","","","1","5","false","[]","[]","[]","","","","","",""
"","","","","","","","","","","","canvas-keyboard-response","99","415899","0.0-99.0","null","null","","","","","","","","","","","","","","fixation","","","1","5","","","","","","","","","",""
"","","","","","","","","","","","canvas-keyboard-response","100","416200","0.0-100.0","null","null","","","","","","","","","","","","","","stimulus","","","1","5","","","","","","","","","",""
"","","","","","","","","","","","canvas-button-response","101","417188","0.0-101.0","987","train","","","","","","","","","","","","","","perceptual","","","1","5","","","","","67","train","10","","1",""
"","","","","","","","","","","","canvas-button-response","102","418118","0.0-102.0","929","9","","","","","","","","","","","","","","confidence","","","1","5","","","","","","","","","","5"
"","","","","","","","","","","","html-keyboard-response","103","419126","0.0-103.0","null","null","","","","","","","","","","","","","","feedback","Mon Oct 13 2025 19:07:50 GMT-0400 (Eastern Daylight Time)","27758","1","5","","","","","","","","","",""
"","","","","","","","","","","","preload","104","419127","0.0-104.0","","","","","true","","","","","","","","","","","preload","","","1","6","false","[]","[]","[]","","","","","",""
"","","","","","","","","","","","canvas-keyboard-response","105","419432","0.0-105.0","null","null","","","","","","","","","","","","","","fixation","","","1","6","","","","","","","","","",""
"","","","","","","","","","","","canvas-keyboard-response","106","419747","0.0-106.0","null","null","","","","","","","","","","","","","","stimulus","","","1","6","","","","","","","","","",""
"","","","","","","","","","","","canvas-button-response","107","421391","0.0-107.0","1643","flower","","","","","","","","","","","","","","perceptual","","","1","6","","","","","87","elephant","10","","0",""
"","","","","","","","","","","","canvas-button-response","108","422841","0.0-108.0","1449","8","","","","","","","","","","","","","","confidence","","","1","6","","","","","","","","","","5"
"","","","","","","","","","","","html-keyboard-response","109","423854","0.0-109.0","null","null","","","","","","","","","","","","","","feedback","Mon Oct 13 2025 19:07:55 GMT-0400 (Eastern Daylight Time)","27758","1","6","","","","","","","","","",""
"","","","","","","","","","","","preload","110","423855","0.0-110.0","","","","","true","","","","","","","","","","","preload","","","1","7","false","[]","[]","[]","","","","","",""
"","","","","","","","","","","","canvas-keyboard-response","111","424156","0.0-111.0","null","null","","","","","","","","","","","","","","fixation","","","1","7","","","","","","","","","",""
"","","","","","","","","","","","canvas-keyboard-response","112","424471","0.0-112.0","null","null","","","","","","","","","","","","","","stimulus","","","1","7","","","","","","","","","",""
"","","","","","","","","","","","canvas-button-response","113","426573","0.0-113.0","2101","bridge","","","","","","","","","","","","","","perceptual","","","1","7","","","","","54","flower","6","","0",""
"","","","","","","","","","","","canvas-button-response","114","427246","0.0-114.0","672","7","","","","","","","","","","","","","","confidence","","","1","7","","","","","","","","","","5"
"","","","","","","","","","","","html-keyboard-response","115","428256","0.0-115.0","null","null","","","","","","","","","","","","","","feedback","Mon Oct 13 2025 19:08:00 GMT-0400 (Eastern Daylight Time)","27758","1","7","","","","","","","","","",""
"","","","","","","","","","","","preload","116","428256","0.0-116.0","","","","","true","","","","","","","","","","","preload","","","1","8","false","[]","[]","[]","","","","","",""
"","","","","","","","","","","","canvas-keyboard-response","117","428563","0.0-117.0","null","null","","","","","","","","","","","","","","fixation","","","1","8","","","","","","","","","",""
"","","","","","","","","","","","canvas-keyboard-response","118","428870","0.0-118.0","null","null","","","","","","","","","","","","","","stimulus","","","1","8","","","","","","","","","",""
"","","","","","","","","","","","canvas-button-response","119","432053","0.0-119.0","3182","cat","","","","","","","","","","","","","","perceptual","","","1","8","","","","","77","cat","10","","1",""
"","","","","","","","","","","","canvas-button-response","120","432720","0.0-120.0","665","8","","","","","","","","","","","","","","confidence","","","1","8","","","","","","","","","","6"
"","","","","","","","","","","","html-keyboard-response","121","433734","0.0-121.0","null","null","","","","","","","","","","","","","","feedback","Mon Oct 13 2025 19:08:05 GMT-0400 (Eastern Daylight Time)","27758","1","8","","","","","","","","","",""
"","","","","","","","","","","","preload","122","433735","0.0-122.0","","","","","true","","","","","","","","","","","preload","","","1","9","false","[]","[]","[]","","","","","",""
"","","","","","","","","","","","canvas-keyboard-response","123","434048","0.0-123.0","null","null","","","","","","","","","","","","","","fixation","","","1","9","","","","","","","","","",""
"","","","","","","","","","","","canvas-keyboard-response","124","434361","0.0-124.0","null","null","","","","","","","","","","","","","","stimulus","","","1","9","","","","","","","","","",""
"","","","","","","","","","","","canvas-button-response","125","452090","0.0-125.0","17728","phone","","","","","","","","","","","","","","perceptual","","","1","9","","","","","94","knife","6","","0",""
"","","","","","","","","","","","canvas-button-response","126","453266","0.0-126.0","1175","8","","","","","","","","","","","","","","confidence","","","1","9","","","","","","","","","","6"
"","","","","","","","","","","","html-keyboard-response","127","454276","0.0-127.0","null","null","","","","","","","","","","","","","","feedback","Mon Oct 13 2025 19:08:26 GMT-0400 (Eastern Daylight Time)","27758","1","9","","","","","","","","","",""
"","","","","","","","","","","","preload","128","454277","0.0-128.0","","","","","true","","","","","","","","","","","preload","","","1","10","false","[]","[]","[]","","","","","",""
"","","","","","","","","","","","canvas-keyboard-response","129","454582","0.0-129.0","null","null","","","","","","","","","","","","","","fixation","","","1","10","","","","","","","","","",""
"","","","","","","","","","","","canvas-keyboard-response","130","454897","0.0-130.0","null","null","","","","","","","","","","","","","","stimulus","","","1","10","","","","","","","","","",""
"","","","","","","","","","","","canvas-button-response","131","457685","0.0-131.0","2787","house","","","","","","","","","","","","","","perceptual","","","1","10","","","","","4","house","6","","1",""
"","","","","","","","","","","","canvas-button-response","132","458067","0.0-132.0","380","3","","","","","","","","","","","","","","confidence","","","1","10","","","","","","","","","","7"
"","","","","","","","","","","","html-keyboard-response","133","459070","0.0-133.0","null","null","","","","","","","","","","","","","","feedback","Mon Oct 13 2025 19:08:30 GMT-0400 (Eastern Daylight Time)","27758","1","10","","","","","","","","","",""
"","","","","","","","","","","","preload","134","459071","0.0-134.0","","","","","true","","","","","","","","","","","preload","","","1","11","false","[]","[]","[]","","","","","",""
"","","","","","","","","","","","canvas-keyboard-response","135","459382","0.0-135.0","null","null","","","","","","","","","","","","","","fixation","","","1","11","","","","","","","","","",""
"","","","","","","","","","","","canvas-keyboard-response","136","459684","0.0-136.0","null","null","","","","","","","","","","","","","","stimulus","","","1","11","","","","","","","","","",""
"","","","","","","","","","","","canvas-button-response","137","461146","0.0-137.0","1461","cat","","","","","","","","","","","","","","perceptual","","","1","11","","","","","74","cat","6","","1",""
"","","","","","","","","","","","canvas-button-response","138","461888","0.0-138.0","741","3","","","","","","","","","","","","","","confidence","","","1","11","","","","","","","","","","8"
"","","","","","","","","","","","html-keyboard-response","139","462905","0.0-139.0","null","null","","","","","","","","","","","","","","feedback","Mon Oct 13 2025 19:08:34 GMT-0400 (Eastern Daylight Time)","27758","1","11","","","","","","","","","",""
"","","","","","","","","","","","preload","140","462906","0.0-140.0","","","","","true","","","","","","","","","","","preload","","","1","12","false","[]","[]","[]","","","","","",""
"","","","","","","","","","","","canvas-keyboard-response","141","463213","0.0-141.0","null","null","","","","","","","","","","","","","","fixation","","","1","12","","","","","","","","","",""
"","","","","","","","","","","","canvas-keyboard-response","142","463516","0.0-142.0","null","null","","","","","","","","","","","","","","stimulus","","","1","12","","","","","","","","","",""
"","","","","","","","","","","","canvas-button-response","143","464757","0.0-143.0","1240","bed","","","","","","","","","","","","","","perceptual","","","1","12","","","","","34","bed","6","","1",""
"","","","","","","","","","","","canvas-button-response","144","465807","0.0-144.0","1048","10","","","","","","","","","","","","","","confidence","","","1","12","","","","","","","","","","9"
"","","","","","","","","","","","html-keyboard-response","145","466819","0.0-145.0","null","null","","","","","","","","","","","","","","feedback","Mon Oct 13 2025 19:08:38 GMT-0400 (Eastern Daylight Time)","27758","1","12","","","","","","","","","",""
"","","","","","","","","","","","preload","146","466820","0.0-146.0","","","","","true","","","","","","","","","","","preload","","","1","13","false","[]","[]","[]","","","","","",""
"","","","","","","","","","","","canvas-keyboard-response","147","467133","0.0-147.0","null","null","","","","","","","","","","","","","","fixation","","","1","13","","","","","","","","","",""
"","","","","","","","","","","","canvas-keyboard-response","148","467436","0.0-148.0","null","null","","","","","","","","","","","","","","stimulus","","","1","13","","","","","","","","","",""
"","","","","","","","","","","","canvas-button-response","149","468679","0.0-149.0","1241","train","","","","","","","","","","","","","","perceptual","","","1","13","","","","","17","car","10","","0",""
"","","","","","","","","","","","canvas-button-response","150","469130","0.0-150.0","451","9","","","","","","","","","","","","","","confidence","","","1","13","","","","","","","","","","9"
"","","","","","","","","","","","html-keyboard-response","151","470138","0.0-151.0","null","null","","","","","","","","","","","","","","feedback","Mon Oct 13 2025 19:08:41 GMT-0400 (Eastern Daylight Time)","27758","1","13","","","","","","","","","",""
"","","","","","","","","","","","preload","152","470139","0.0-152.0","","","","","true","","","","","","","","","","","preload","","","1","14","false","[]","[]","[]","","","","","",""
"","","","","","","","","","","","canvas-keyboard-response","153","470439","0.0-153.0","null","null","","","","","","","","","","","","","","fixation","","","1","14","","","","","","","","","",""
"","","","","","","","","","","","canvas-keyboard-response","154","470748","0.0-154.0","null","null","","","","","","","","","","","","","","stimulus","","","1","14","","","","","","","","","",""
"","","","","","","","","","","","canvas-button-response","155","477682","0.0-155.0","6933","flower","","","","","","","","","","","","","","perceptual","","","1","14","","","","","44","bridge","6","","0",""
"","","","","","","","","","","","canvas-button-response","156","478439","0.0-156.0","756","6","","","","","","","","","","","","","","confidence","","","1","14","","","","","","","","","","9"
"","","","","","","","","","","","html-keyboard-response","157","479446","0.0-157.0","null","null","","","","","","","","","","","","","","feedback","Mon Oct 13 2025 19:08:51 GMT-0400 (Eastern Daylight Time)","27758","1","14","","","","","","","","","",""
"","","","","","","","","","","","preload","158","479447","0.0-158.0","","","","","true","","","","","","","","","","","preload","","","1","15","false","[]","[]","[]","","","","","",""
"","","","","","","","","","","","canvas-keyboard-response","159","479763","0.0-159.0","null","null","","","","","","","","","","","","","","fixation","","","1","15","","","","","","","","","",""
"","","","","","","","","","","","canvas-keyboard-response","160","480079","0.0-160.0","null","null","","","","","","","","","","","","","","stimulus","","","1","15","","","","","","","","","",""
"","","","","","","","","","","","canvas-button-response","161","485868","0.0-161.0","5787","house","","","","","","","","","","","","","","perceptual","","","1","15","","","","","7","house","10","","1",""
"","","","","","","","","","","","canvas-button-response","162","486492","0.0-162.0","624","0","","","","","","","","","","","","","","confidence","","","1","15","","","","","","","","","","10"
"","","","","","","","","","","","html-keyboard-response","163","487498","0.0-163.0","null","null","","","","","","","","","","","","","","feedback","Mon Oct 13 2025 19:08:59 GMT-0400 (Eastern Daylight Time)","27758","1","15","","","","","","","","","",""
"","","","","","","","","","","","preload","164","487499","0.0-164.0","","","","","true","","","","","","","","","","","preload","","","1","16","false","[]","[]","[]","","","","","",""
"","","","","","","","","","","","canvas-keyboard-response","165","487813","0.0-165.0","null","null","","","","","","","","","","","","","","fixation","","","1","16","","","","","","","","","",""
"","","","","","","","","","","","canvas-keyboard-response","166","488115","0.0-166.0","null","null","","","","","","","","","","","","","","stimulus","","","1","16","","","","","","","","","",""
"","","","","","","","","","","","canvas-button-response","167","491222","0.0-167.0","3106","cat","","","","","","","","","","","","","","perceptual","","","1","16","","","","","47","bridge","10","","0",""
"","","","","","","","","","","","canvas-button-response","168","491973","0.0-168.0","750","1","","","","","","","","","","","","","","confidence","","","1","16","","","","","","","","","","10"
"","","","","","","","","","","","html-keyboard-response","169","492989","0.0-169.0","null","null","","","","","","","","","","","","","","feedback","Mon Oct 13 2025 19:09:04 GMT-0400 (Eastern Daylight Time)","27758","1","16","","","","","","","","","",""
"","","","","","","","","","","","preload","170","492990","0.0-170.0","","","","","true","","","","","","","","","","","preload","","","1","17","false","[]","[]","[]","","","","","",""
"","","","","","","","","","","","canvas-keyboard-response","171","493296","0.0-171.0","null","null","","","","","","","","","","","","","","fixation","","","1","17","","","","","","","","","",""
"","","","","","","","","","","","canvas-keyboard-response","172","493598","0.0-172.0","null","null","","","","","","","","","","","","","","stimulus","","","1","17","","","","","","","","","",""
"","","","","","","","","","","","canvas-button-response","173","498375","0.0-173.0","4776","train","","","","","","","","","","","","","","perceptual","","","1","17","","","","","14","car","6","","0",""
"","","","","","","","","","","","canvas-button-response","174","498861","0.0-174.0","485","6","","","","","","","","","","","","","","confidence","","","1","17","","","","","","","","","","10"
"","","","","","","","","","","","html-keyboard-response","175","499866","0.0-175.0","null","null","","","","","","","","","","","","","","feedback","Mon Oct 13 2025 19:09:11 GMT-0400 (Eastern Daylight Time)","27758","1","17","","","","","","","","","",""
"","","","","","","","","","","","preload","176","499867","0.0-176.0","","","","","true","","","","","","","","","","","preload","","","1","18","false","[]","[]","[]","","","","","",""
"","","","","","","","","","","","canvas-keyboard-response","177","500169","0.0-177.0","null","null","","","","","","","","","","","","","","fixation","","","1","18","","","","","","","","","",""
"","","","","","","","","","","","canvas-keyboard-response","178","500486","0.0-178.0","null","null","","","","","","","","","","","","","","stimulus","","","1","18","","","","","","","","","",""
"","","","","","","","","","","","canvas-button-response","179","501789","0.0-179.0","1301","cat","","","","","","","","","","","","","","perceptual","","","1","18","","","","","37","bed","10","","0",""
"","","","","","","","","","","","canvas-button-response","180","502205","0.0-180.0","415","4","","","","","","","","","","","","","","confidence","","","1","18","","","","","","","","","","10"
"","","","","","","","","","","","html-keyboard-response","181","503206","0.0-181.0","null","null","","","","","","","","","","","","","","feedback","Mon Oct 13 2025 19:09:15 GMT-0400 (Eastern Daylight Time)","27758","1","18","","","","","","","","","",""
"","","","","","","","","","","","preload","182","503207","0.0-182.0","","","","","true","","","","","","","","","","","preload","","","1","19","false","[]","[]","[]","","","","","",""
"","","","","","","","","","","","canvas-keyboard-response","183","503514","0.0-183.0","null","null","","","","","","","","","","","","","","fixation","","","1","19","","","","","","","","","",""
"","","","","","","","","","","","canvas-keyboard-response","184","503816","0.0-184.0","null","null","","","","","","","","","","","","","","stimulus","","","1","19","","","","","","","","","",""
"","","","","","","","","","","","canvas-button-response","185","505660","0.0-185.0","1842","phone","","","","","","","","","","","","","","perceptual","","","1","19","","","","","24","phone","6","","1",""
"","","","","","","","","","","","canvas-button-response","186","506479","0.0-186.0","818","8","","","","","","","","","","","","","","confidence","","","1","19","","","","","","","","","","11"
"","","","","","","","","","","","html-keyboard-response","187","507485","0.0-187.0","null","null","","","","","","","","","","","","","","feedback","Mon Oct 13 2025 19:09:19 GMT-0400 (Eastern Daylight Time)","27758","1","19","","","","","","","","","",""
"","","","","","","","","","","","html-button-response","188","509318","0.0-188.0","1831","0","","","","","","","","","","","","","","start experiment","Mon Oct 13 2025 19:09:20 GMT-0400 (Eastern Daylight Time)","27758","1","19","","","","","","","","","",""
"","","","","","","","","","","","preload","189","509318","0.0-189.0","","","","","true","","","","","","","","","","","preload","","","2","0","false","[]","[]","[]","","","","","",""
"","","","","","","","","","","","canvas-keyboard-response","190","509620","0.0-190.0","null","null","","","","","","","","","","","","","","fixation","","","2","0","","","","","","","","","",""
"","","","","","","","","","","","canvas-keyboard-response","191","509935","0.0-191.0","null","null","","","","","","","","","","","","","","stimulus","","","2","0","","","","","","","","","",""
"","","","","","","","","","","","canvas-button-response","192","512756","0.0-192.0","2820","bridge","","","","","","","","","","","","","","perceptual","","","2","0","","","","","386","knife","10","0","0",""
"","","","","","","","","","","","canvas-button-response","193","513409","0.0-193.0","652","3","","","","","","","","","","","","","","confidence","","","2","0","","","","","","","","","","0"
"","","","","","","","","","","","preload","194","513409","0.0-194.0","","","","","true","","","","","","","","","","","preload","","","2","1","false","[]","[]","[]","","","","","",""
"","","","","","","","","","","","canvas-keyboard-response","195","513714","0.0-195.0","null","null","","","","","","","","","","","","","","fixation","","","2","1","","","","","","","","","",""
"","","","","","","","","","","","canvas-keyboard-response","196","514016","0.0-196.0","null","null","","","","","","","","","","","","","","stimulus","","","2","1","","","","","","","","","",""
"","","","","","","","","","","","canvas-button-response","197","516093","0.0-197.0","2076","bed","","","","","","","","","","","","","","perceptual","","","2","1","","","","","144","bed","10","0","1",""
"","","","","","","","","","","","canvas-button-response","198","516807","0.0-198.0","713","7","","","","","","","","","","","","","","confidence","","","2","1","","","","","","","","","","1"
"","","","","","","","","","","","preload","199","516808","0.0-199.0","","","","","true","","","","","","","","","","","preload","","","2","2","false","[]","[]","[]","","","","","",""
"","","","","","","","","","","","canvas-keyboard-response","200","517112","0.0-200.0","null","null","","","","","","","","","","","","","","fixation","","","2","2","","","","","","","","","",""
"","","","","","","","","","","","canvas-keyboard-response","201","517415","0.0-201.0","null","null","","","","","","","","","","","","","","stimulus","","","2","2","","","","","","","","","",""
"","","","","","","","","","","","canvas-button-response","202","519228","0.0-202.0","1811","bed","","","","","","","","","","","","","","perceptual","","","2","2","","","","","156","bed","10","0","1",""
"","","","","","","","","","","","canvas-button-response","203","520053","0.0-203.0","825","8","","","","","","","","","","","","","","confidence","","","2","2","","","","","","","","","","2"
"","","","","","","","","","","","preload","204","520054","0.0-204.0","","","","","true","","","","","","","","","","","preload","","","2","3","false","[]","[]","[]","","","","","",""
"","","","","","","","","","","","canvas-keyboard-response","205","520364","0.0-205.0","null","null","","","","","","","","","","","","","","fixation","","","2","3","","","","","","","","","",""
"","","","","","","","","","","","canvas-keyboard-response","206","520682","0.0-206.0","null","null","","","","","","","","","","","","","","stimulus","","","2","3","","","","","","","","","",""
"","","","","","","","","","","","canvas-button-response","207","521420","0.0-207.0","736","train","","","","","","","","","","","","","","perceptual","","","2","3","","","","","267","train","10","0","1",""
"","","","","","","","","","","","canvas-button-response","208","522017","0.0-208.0","595","10","","","","","","","","","","","","","","confidence","","","2","3","","","","","","","","","","3"
"","","","","","","","","","","","preload","209","522017","0.0-209.0","","","","","true","","","","","","","","","","","preload","","","2","4","false","[]","[]","[]","","","","","",""
"","","","","","","","","","","","canvas-keyboard-response","210","522318","0.0-210.0","null","null","","","","","","","","","","","","","","fixation","","","2","4","","","","","","","","","",""
"","","","","","","","","","","","canvas-keyboard-response","211","522619","0.0-211.0","null","null","","","","","","","","","","","","","","stimulus","","","2","4","","","","","","","","","",""
"","","","","","","","","","","","canvas-button-response","212","525790","0.0-212.0","3170","cat","","","","","","","","","","","","","","perceptual","","","2","4","","","","","113","phone","10","0","0",""
"","","","","","","","","","","","canvas-button-response","213","526407","0.0-213.0","616","6","","","","","","","","","","","","","","confidence","","","2","4","","","","","","","","","","3"
"","","","","","","","","","","","preload","214","526408","0.0-214.0","","","","","true","","","","","","","","","","","preload","","","2","5","false","[]","[]","[]","","","","","",""
"","","","","","","","","","","","canvas-keyboard-response","215","526709","0.0-215.0","null","null","","","","","","","","","","","","","","fixation","","","2","5","","","","","","","","","",""
"","","","","","","","","","","","canvas-keyboard-response","216","527019","0.0-216.0","null","null","","","","","","","","","","","","","","stimulus","","","2","5","","","","","","","","","",""
"","","","","","","","","","","","canvas-button-response","217","531020","0.0-217.0","4000","flower","","","","","","","","","","","","","","perceptual","","","2","5","","","","","106","phone","10","0","0",""
"","","","","","","","","","","","canvas-button-response","218","531783","0.0-218.0","762","4","","","","","","","","","","","","","","confidence","","","2","5","","","","","","","","","","3"
"","","","","","","","","","","","preload","219","531783","0.0-219.0","","","","","true","","","","","","","","","","","preload","","","2","6","false","[]","[]","[]","","","","","",""
"","","","","","","","","","","","canvas-keyboard-response","220","532095","0.0-220.0","null","null","","","","","","","","","","","","","","fixation","","","2","6","","","","","","","","","",""
"","","","","","","","","","","","canvas-keyboard-response","221","532397","0.0-221.0","null","null","","","","","","","","","","","","","","stimulus","","","2","6","","","","","","","","","",""
"","","","","","","","","","","","canvas-button-response","222","534896","0.0-222.0","2498","car","","","","","","","","","","","","","","perceptual","","","2","6","","","","","236","flower","10","0","0",""
"","","","","","","","","","","","canvas-button-response","223","535624","0.0-223.0","726","4","","","","","","","","","","","","","","confidence","","","2","6","","","","","","","","","","3"
"","","","","","","","","","","","preload","224","535624","0.0-224.0","","","","","true","","","","","","","","","","","preload","","","2","7","false","[]","[]","[]","","","","","",""
"","","","","","","","","","","","canvas-keyboard-response","225","535929","0.0-225.0","null","null","","","","","","","","","","","","","","fixation","","","2","7","","","","","","","","","",""
"","","","","","","","","","","","canvas-keyboard-response","226","536236","0.0-226.0","null","null","","","","","","","","","","","","","","stimulus","","","2","7","","","","","","","","","",""
"","","","","","","","","","","","canvas-button-response","227","537206","0.0-227.0","969","knife","","","","","","","","","","","","","","perceptual","","","2","7","","","","","391","knife","10","0","1",""
"","","","","","","","","","","","canvas-button-response","228","537789","0.0-228.0","582","9","","","","","","","","","","","","","","confidence","","","2","7","","","","","","","","","","4"
"","","","","","","","","","","","preload","229","537789","0.0-229.0","","","","","true","","","","","","","","","","","preload","","","2","8","false","[]","[]","[]","","","","","",""
"","","","","","","","","","","","canvas-keyboard-response","230","538093","0.0-230.0","null","null","","","","","","","","","","","","","","fixation","","","2","8","","","","","","","","","",""
"","","","","","","","","","","","canvas-keyboard-response","231","538401","0.0-231.0","null","null","","","","","","","","","","","","","","stimulus","","","2","8","","","","","","","","","",""
"","","","","","","","","","","","canvas-button-response","232","539529","0.0-232.0","1127","bridge","","","","","","","","","","","","","","perceptual","","","2","8","","","","","187","bridge","10","0","1",""
"","","","","","","","","","","","canvas-button-response","233","540168","0.0-233.0","637","10","","","","","","","","","","","","","","confidence","","","2","8","","","","","","","","","","5"
"","","","","","","","","","","","preload","234","540168","0.0-234.0","","","","","true","","","","","","","","","","","preload","","","2","9","false","[]","[]","[]","","","","","",""
"","","","","","","","","","","","canvas-keyboard-response","235","540469","0.0-235.0","null","null","","","","","","","","","","","","","","fixation","","","2","9","","","","","","","","","",""
"","","","","","","","","","","","canvas-keyboard-response","236","540770","0.0-236.0","null","null","","","","","","","","","","","","","","stimulus","","","2","9","","","","","","","","","",""
"","","","","","","","","","","","canvas-button-response","237","541687","0.0-237.0","916","elephant","","","","","","","","","","","","","","perceptual","","","2","9","","","","","324","elephant","6","0","1",""
"","","","","","","","","","","","canvas-button-response","238","542595","0.0-238.0","907","7","","","","","","","","","","","","","","confidence","","","2","9","","","","","","","","","","6"
"","","","","","","","","","","","preload","239","542596","0.0-239.0","","","","","true","","","","","","","","","","","preload","","","2","10","false","[]","[]","[]","","","","","",""
"","","","","","","","","","","","canvas-keyboard-response","240","542912","0.0-240.0","null","null","","","","","","","","","","","","","","fixation","","","2","10","","","","","","","","","",""
"","","","","","","","","","","","canvas-keyboard-response","241","543214","0.0-241.0","null","null","","","","","","","","","","","","","","stimulus","","","2","10","","","","","","","","","",""
"","","","","","","","","","","","canvas-button-response","242","544004","0.0-242.0","789","knife","","","","","","","","","","","","","","perceptual","","","2","10","","","","","378","knife","6","0","1",""
"","","","","","","","","","","","canvas-button-response","243","544628","0.0-243.0","622","10","","","","","","","","","","","","","","confidence","","","2","10","","","","","","","","","","7"
"","","","","","","","","","","","preload","244","544628","0.0-244.0","","","","","true","","","","","","","","","","","preload","","","2","11","false","[]","[]","[]","","","","","",""
"","","","","","","","","","","","canvas-keyboard-response","245","544930","0.0-245.0","null","null","","","","","","","","","","","","","","fixation","","","2","11","","","","","","","","","",""
"","","","","","","","","","","","canvas-keyboard-response","246","545248","0.0-246.0","null","null","","","","","","","","","","","","","","stimulus","","","2","11","","","","","","","","","",""
"","","","","","","","","","","","canvas-button-response","247","545870","0.0-247.0","621","train","","","","","","","","","","","","","","perceptual","","","2","11","","","","","256","train","6","0","1",""
"","","","","","","","","","","","canvas-button-response","248","546369","0.0-248.0","498","10","","","","","","","","","","","","","","confidence","","","2","11","","","","","","","","","","8"
"","","","","","","","","","","","preload","249","546369","0.0-249.0","","","","","true","","","","","","","","","","","preload","","","2","12","false","[]","[]","[]","","","","","",""
"","","","","","","","","","","","canvas-keyboard-response","250","546675","0.0-250.0","null","null","","","","","","","","","","","","","","fixation","","","2","12","","","","","","","","","",""
"","","","","","","","","","","","canvas-keyboard-response","251","546984","0.0-251.0","null","null","","","","","","","","","","","","","","stimulus","","","2","12","","","","","","","","","",""
"","","","","","","","","","","","canvas-button-response","252","547873","0.0-252.0","888","train","","","","","","","","","","","","","","perceptual","","","2","12","","","","","250","train","6","0","1",""
"","","","","","","","","","","","canvas-button-response","253","548318","0.0-253.0","444","10","","","","","","","","","","","","","","confidence","","","2","12","","","","","","","","","","9"
"","","","","","","","","","","","preload","254","548319","0.0-254.0","","","","","true","","","","","","","","","","","preload","","","2","13","false","[]","[]","[]","","","","","",""
"","","","","","","","","","","","canvas-keyboard-response","255","548625","0.0-255.0","null","null","","","","","","","","","","","","","","fixation","","","2","13","","","","","","","","","",""
"","","","","","","","","","","","canvas-keyboard-response","256","548942","0.0-256.0","null","null","","","","","","","","","","","","","","stimulus","","","2","13","","","","","","","","","",""
"","","","","","","","","","","","canvas-button-response","257","549822","0.0-257.0","879","phone","","","","","","","","","","","","","","perceptual","","","2","13","","","","","86","phone","6","0","1",""
"","","","","","","","","","","","canvas-button-response","258","550468","0.0-258.0","644","10","","","","","","","","","","","","","","confidence","","","2","13","","","","","","","","","","10"
"","","","","","","","","","","","preload","259","550468","0.0-259.0","","","","","true","","","","","","","","","","","preload","","","2","14","false","[]","[]","[]","","","","","",""
"","","","","","","","","","","","canvas-keyboard-response","260","550775","0.0-260.0","null","null","","","","","","","","","","","","","","fixation","","","2","14","","","","","","","","","",""
"","","","","","","","","","","","canvas-keyboard-response","261","551081","0.0-261.0","null","null","","","","","","","","","","","","","","stimulus","","","2","14","","","","","","","","","",""
"","","","","","","","","","","","canvas-button-response","262","552243","0.0-262.0","1160","bridge","","","","","","","","","","","","","","perceptual","","","2","14","","","","","168","bridge","6","0","1",""
"","","","","","","","","","","","canvas-button-response","263","553123","0.0-263.0","880","10","","","","","","","","","","","","","","confidence","","","2","14","","","","","","","","","","11"
"","","","","","","","","","","","preload","264","553124","0.0-264.0","","","","","true","","","","","","","","","","","preload","","","2","15","false","[]","[]","[]","","","","","",""
"","","","","","","","","","","","canvas-keyboard-response","265","553430","0.0-265.0","null","null","","","","","","","","","","","","","","fixation","","","2","15","","","","","","","","","",""
"","","","","","","","","","","","canvas-keyboard-response","266","553745","0.0-266.0","null","null","","","","","","","","","","","","","","stimulus","","","2","15","","","","","","","","","",""
"","","","","","","","","","","","canvas-button-response","267","554698","0.0-267.0","951","bed","","","","","","","","","","","","","","perceptual","","","2","15","","","","","127","bed","6","0","1",""
"","","","","","","","","","","","canvas-button-response","268","555322","0.0-268.0","623","10","","","","","","","","","","","","","","confidence","","","2","15","","","","","","","","","","12"
"","","","","","","","","","","","preload","269","555323","0.0-269.0","","","","","true","","","","","","","","","","","preload","","","2","16","false","[]","[]","[]","","","","","",""
"","","","","","","","","","","","canvas-keyboard-response","270","555630","0.0-270.0","null","null","","","","","","","","","","","","","","fixation","","","2","16","","","","","","","","","",""
"","","","","","","","","","","","canvas-keyboard-response","271","555945","0.0-271.0","null","null","","","","","","","","","","","","","","stimulus","","","2","16","","","","","","","","","",""
"","","","","","","","","","","","canvas-button-response","272","556578","0.0-272.0","631","phone","","","","","","","","","","","","","","perceptual","","","2","16","","","","","97","phone","6","0","1",""
"","","","","","","","","","","","canvas-button-response","273","557390","0.0-273.0","811","10","","","","","","","","","","","","","","confidence","","","2","16","","","","","","","","","","13"
"","","","","","","","","","","","preload","274","557390","0.0-274.0","","","","","true","","","","","","","","","","","preload","","","2","17","false","[]","[]","[]","","","","","",""
"","","","","","","","","","","","canvas-keyboard-response","275","557695","0.0-275.0","null","null","","","","","","","","","","","","","","fixation","","","2","17","","","","","","","","","",""
"","","","","","","","","","","","canvas-keyboard-response","276","557998","0.0-276.0","null","null","","","","","","","","","","","","","","stimulus","","","2","17","","","","","","","","","",""
"","","","","","","","","","","","canvas-button-response","277","561217","0.0-277.0","3218","flower","","","","","","","","","","","","","","perceptual","","","2","17","","","","","9","house","6","0","0",""
"","","","","","","","","","","","canvas-button-response","278","562196","0.0-278.0","978","4","","","","","","","","","","","","","","confidence","","","2","17","","","","","","","","","","13"
"","","","","","","","","","","","preload","279","562197","0.0-279.0","","","","","true","","","","","","","","","","","preload","","","2","18","false","[]","[]","[]","","","","","",""
"","","","","","","","","","","","canvas-keyboard-response","280","562510","0.0-280.0","null","null","","","","","","","","","","","","","","fixation","","","2","18","","","","","","","","","",""
"","","","","","","","","","","","canvas-keyboard-response","281","562820","0.0-281.0","null","null","","","","","","","","","","","","","","stimulus","","","2","18","","","","","","","","","",""
"","","","","","","","","","","","canvas-button-response","282","564659","0.0-282.0","1837","phone","","","","","","","","","","","","","","perceptual","","","2","18","","","","","116","phone","10","0","1",""
"","","","","","","","","","","","canvas-button-response","283","565324","0.0-283.0","664","9","","","","","","","","","","","","","","confidence","","","2","18","","","","","","","","","","14"
"","","","","","","","","","","","preload","284","565324","0.0-284.0","","","","","true","","","","","","","","","","","preload","","","2","19","false","[]","[]","[]","","","","","",""
"","","","","","","","","","","","canvas-keyboard-response","285","565629","0.0-285.0","null","null","","","","","","","","","","","","","","fixation","","","2","19","","","","","","","","","",""
"","","","","","","","","","","","canvas-keyboard-response","286","565947","0.0-286.0","null","null","","","","","","","","","","","","","","stimulus","","","2","19","","","","","","","","","",""
"","","","","","","","","","","","canvas-button-response","287","566822","0.0-287.0","874","flower","","","","","","","","","","","","","","perceptual","","","2","19","","","","","215","flower","6","0","1",""
"","","","","","","","","","","","canvas-button-response","288","567523","0.0-288.0","700","10","","","","","","","","","","","","","","confidence","","","2","19","","","","","","","","","","15"
"","","","","","","","","","","","preload","289","567523","0.0-289.0","","","","","true","","","","","","","","","","","preload","","","2","20","false","[]","[]","[]","","","","","",""
"","","","","","","","","","","","canvas-keyboard-response","290","567830","0.0-290.0","null","null","","","","","","","","","","","","","","fixation","","","2","20","","","","","","","","","",""
"","","","","","","","","","","","canvas-keyboard-response","291","568147","0.0-291.0","null","null","","","","","","","","","","","","","","stimulus","","","2","20","","","","","","","","","",""
"","","","","","","","","","","","canvas-button-response","292","568904","0.0-292.0","755","phone","","","","","","","","","","","","","","perceptual","","","2","20","","","","","94","phone","6","0","1",""
"","","","","","","","","","","","canvas-button-response","293","569438","0.0-293.0","533","7","","","","","","","","","","","","","","confidence","","","2","20","","","","","","","","","","16"
"","","","","","","","","","","","preload","294","569438","0.0-294.0","","","","","true","","","","","","","","","","","preload","","","2","21","false","[]","[]","[]","","","","","",""
"","","","","","","","","","","","canvas-keyboard-response","295","569741","0.0-295.0","null","null","","","","","","","","","","","","","","fixation","","","2","21","","","","","","","","","",""
"","","","","","","","","","","","canvas-keyboard-response","296","570050","0.0-296.0","null","null","","","","","","","","","","","","","","stimulus","","","2","21","","","","","","","","","",""
"","","","","","","","","","","","canvas-button-response","297","571192","0.0-297.0","1141","flower","","","","","","","","","","","","","","perceptual","","","2","21","","","","","230","flower","10","0","1",""
"","","","","","","","","","","","canvas-button-response","298","571893","0.0-298.0","700","5","","","","","","","","","","","","","","confidence","","","2","21","","","","","","","","","","17"
"","","","","","","","","","","","preload","299","571894","0.0-299.0","","","","","true","","","","","","","","","","","preload","","","2","22","false","[]","[]","[]","","","","","",""
"","","","","","","","","","","","canvas-keyboard-response","300","572208","0.0-300.0","null","null","","","","","","","","","","","","","","fixation","","","2","22","","","","","","","","","",""
"","","","","","","","","","","","canvas-keyboard-response","301","572518","0.0-301.0","null","null","","","","","","","","","","","","","","stimulus","","","2","22","","","","","","","","","",""
"","","","","","","","","","","","canvas-button-response","302","573842","0.0-302.0","1323","elephant","","","","","","","","","","","","","","perceptual","","","2","22","","","","","320","elephant","6","0","1",""
"","","","","","","","","","","","canvas-button-response","303","574287","0.0-303.0","444","6","","","","","","","","","","","","","","confidence","","","2","22","","","","","","","","","","18"
"","","","","","","","","","","","preload","304","574288","0.0-304.0","","","","","true","","","","","","","","","","","preload","","","2","23","false","[]","[]","[]","","","","","",""
"","","","","","","","","","","","canvas-keyboard-response","305","574589","0.0-305.0","null","null","","","","","","","","","","","","","","fixation","","","2","23","","","","","","","","","",""
"","","","","","","","","","","","canvas-keyboard-response","306","574902","0.0-306.0","null","null","","","","","","","","","","","","","","stimulus","","","2","23","","","","","","","","","",""
"","","","","","","","","","","","canvas-button-response","307","576229","0.0-307.0","1326","bed","","","","","","","","","","","","","","perceptual","","","2","23","","","","","139","bed","6","0","1",""
"","","","","","","","","","","","canvas-button-response","308","577201","0.0-308.0","971","10","","","","","","","","","","","","","","confidence","","","2","23","","","","","","","","","","19"
"","","","","","","","","","","","preload","309","577202","0.0-309.0","","","","","true","","","","","","","","","","","preload","","","2","24","false","[]","[]","[]","","","","","",""
"","","","","","","","","","","","canvas-keyboard-response","310","577508","0.0-310.0","null","null","","","","","","","","","","","","","","fixation","","","2","24","","","","","","","","","",""
"","","","","","","","","","","","canvas-keyboard-response","311","577819","0.0-311.0","null","null","","","","","","","","","","","","","","stimulus","","","2","24","","","","","","","","","",""
"","","","","","","","","","","","canvas-button-response","312","578406","0.0-312.0","586","train","","","","","","","","","","","","","","perceptual","","","2","24","","","","","241","train","6","0","1",""
"","","","","","","","","","","","canvas-button-response","313","578906","0.0-313.0","499","10","","","","","","","","","","","","","","confidence","","","2","24","","","","","","","","","","20"
"","","","","","","","","","","","preload","314","578907","0.0-314.0","","","","","true","","","","","","","","","","","preload","","","2","25","false","[]","[]","[]","","","","","",""
"","","","","","","","","","","","canvas-keyboard-response","315","579211","0.0-315.0","null","null","","","","","","","","","","","","","","fixation","","","2","25","","","","","","","","","",""
"","","","","","","","","","","","canvas-keyboard-response","316","579515","0.0-316.0","null","null","","","","","","","","","","","","","","stimulus","","","2","25","","","","","","","","","",""
"","","","","","","","","","","","canvas-button-response","317","581584","0.0-317.0","2068","bridge","","","","","","","","","","","","","","perceptual","","","2","25","","","","","13","house","6","0","0",""
"","","","","","","","","","","","canvas-button-response","318","582168","0.0-318.0","582","3","","","","","","","","","","","","","","confidence","","","2","25","","","","","","","","","","20"
"","","","","","","","","","","","preload","319","582168","0.0-319.0","","","","","true","","","","","","","","","","","preload","","","2","26","false","[]","[]","[]","","","","","",""
"","","","","","","","","","","","canvas-keyboard-response","320","582469","0.0-320.0","null","null","","","","","","","","","","","","","","fixation","","","2","26","","","","","","","","","",""
"","","","","","","","","","","","canvas-keyboard-response","321","582784","0.0-321.0","null","null","","","","","","","","","","","","","","stimulus","","","2","26","","","","","","","","","",""
"","","","","","","","","","","","canvas-button-response","322","583583","0.0-322.0","797","bed","","","","","","","","","","","","","","perceptual","","","2","26","","","","","132","bed","6","0","1",""
"","","","","","","","","","","","canvas-button-response","323","584380","0.0-323.0","797","10","","","","","","","","","","","","","","confidence","","","2","26","","","","","","","","","","21"
"","","","","","","","","","","","preload","324","584381","0.0-324.0","","","","","true","","","","","","","","","","","preload","","","2","27","false","[]","[]","[]","","","","","",""
"","","","","","","","","","","","canvas-keyboard-response","325","584695","0.0-325.0","null","null","","","","","","","","","","","","","","fixation","","","2","27","","","","","","","","","",""
"","","","","","","","","","","","canvas-keyboard-response","326","585011","0.0-326.0","null","null","","","","","","","","","","","","","","stimulus","","","2","27","","","","","","","","","",""
"","","","","","","","","","","","canvas-button-response","327","588368","0.0-327.0","3356","train","","","","","","","","","","","","","","perceptual","","","2","27","","","","","114","phone","10","0","0",""
"","","","","","","","","","","","canvas-button-response","328","588749","0.0-328.0","380","7","","","","","","","","","","","","","","confidence","","","2","27","","","","","","","","","","21"
"","","","","","","","","","","","preload","329","588749","0.0-329.0","","","","","true","","","","","","","","","","","preload","","","2","28","false","[]","[]","[]","","","","","",""
"","","","","","","","","","","","canvas-keyboard-response","330","589060","0.0-330.0","null","null","","","","","","","","","","","","","","fixation","","","2","28","","","","","","","","","",""
"","","","","","","","","","","","canvas-keyboard-response","331","589367","0.0-331.0","null","null","","","","","","","","","","","","","","stimulus","","","2","28","","","","","","","","","",""
"","","","","","","","","","","","canvas-button-response","332","590054","0.0-332.0","687","bed","","","","","","","","","","","","","","perceptual","","","2","28","","","","","155","bed","10","0","1",""
"","","","","","","","","","","","canvas-button-response","333","590740","0.0-333.0","686","10","","","","","","","","","","","","","","confidence","","","2","28","","","","","","","","","","22"
"","","","","","","","","","","","preload","334","590741","0.0-334.0","","","","","true","","","","","","","","","","","preload","","","2","29","false","[]","[]","[]","","","","","",""
"","","","","","","","","","","","canvas-keyboard-response","335","591044","0.0-335.0","null","null","","","","","","","","","","","","","","fixation","","","2","29","","","","","","","","","",""
"","","","","","","","","","","","canvas-keyboard-response","336","591347","0.0-336.0","null","null","","","","","","","","","","","","","","stimulus","","","2","29","","","","","","","","","",""
"","","","","","","","","","","","canvas-button-response","337","600529","0.0-337.0","9180","flower","","","","","","","","","","","","","","perceptual","","","2","29","","","","","140","bed","10","0","0",""
"","","","","","","","","","","","canvas-button-response","338","601230","0.0-338.0","700","5","","","","","","","","","","","","","","confidence","","","2","29","","","","","","","","","","22"
"","","","","","","","","","","","preload","339","601230","0.0-339.0","","","","","true","","","","","","","","","","","preload","","","2","30","false","[]","[]","[]","","","","","",""
"","","","","","","","","","","","canvas-keyboard-response","340","601544","0.0-340.0","null","null","","","","","","","","","","","","","","fixation","","","2","30","","","","","","","","","",""
"","","","","","","","","","","","canvas-keyboard-response","341","601851","0.0-341.0","null","null","","","","","","","","","","","","","","stimulus","","","2","30","","","","","","","","","",""
"","","","","","","","","","","","canvas-button-response","342","604864","0.0-342.0","3012","elephant","","","","","","","","","","","","","","perceptual","","","2","30","","","","","348","elephant","10","0","1",""
"","","","","","","","","","","","canvas-button-response","343","605863","0.0-343.0","998","4","","","","","","","","","","","","","","confidence","","","2","30","","","","","","","","","","23"
"","","","","","","","","","","","preload","344","605864","0.0-344.0","","","","","true","","","","","","","","","","","preload","","","2","31","false","[]","[]","[]","","","","","",""
"","","","","","","","","","","","canvas-keyboard-response","345","606179","0.0-345.0","null","null","","","","","","","","","","","","","","fixation","","","2","31","","","","","","","","","",""
"","","","","","","","","","","","canvas-keyboard-response","346","606480","0.0-346.0","null","null","","","","","","","","","","","","","","stimulus","","","2","31","","","","","","","","","",""
"","","","","","","","","","","","canvas-button-response","347","607077","0.0-347.0","596","phone","","","","","","","","","","","","","","perceptual","","","2","31","","","","","92","phone","6","0","1",""
"","","","","","","","","","","","canvas-button-response","348","607702","0.0-348.0","624","10","","","","","","","","","","","","","","confidence","","","2","31","","","","","","","","","","24"
"","","","","","","","","","","","preload","349","607702","0.0-349.0","","","","","true","","","","","","","","","","","preload","","","2","32","false","[]","[]","[]","","","","","",""
"","","","","","","","","","","","canvas-keyboard-response","350","608012","0.0-350.0","null","null","","","","","","","","","","","","","","fixation","","","2","32","","","","","","","","","",""
"","","","","","","","","","","","canvas-keyboard-response","351","608319","0.0-351.0","null","null","","","","","","","","","","","","","","stimulus","","","2","32","","","","","","","","","",""
"","","","","","","","","","","","canvas-button-response","352","608971","0.0-352.0","651","bed","","","","","","","","","","","","","","perceptual","","","2","32","","","","","120","bed","6","0","1",""
"","","","","","","","","","","","canvas-button-response","353","609755","0.0-353.0","783","10","","","","","","","","","","","","","","confidence","","","2","32","","","","","","","","","","25"
"","","","","","","","","","","","preload","354","609756","0.0-354.0","","","","","true","","","","","","","","","","","preload","","","2","33","false","[]","[]","[]","","","","","",""
"","","","","","","","","","","","canvas-keyboard-response","355","610061","0.0-355.0","null","null","","","","","","","","","","","","","","fixation","","","2","33","","","","","","","","","",""
"","","","","","","","","","","","canvas-keyboard-response","356","610363","0.0-356.0","null","null","","","","","","","","","","","","","","stimulus","","","2","33","","","","","","","","","",""
"","","","","","","","","","","","canvas-button-response","357","611108","0.0-357.0","743","train","","","","","","","","","","","","","","perceptual","","","2","33","","","","","244","train","6","0","1",""
"","","","","","","","","","","","canvas-button-response","358","611947","0.0-358.0","838","10","","","","","","","","","","","","","","confidence","","","2","33","","","","","","","","","","26"
"","","","","","","","","","","","preload","359","611947","0.0-359.0","","","","","true","","","","","","","","","","","preload","","","2","34","false","[]","[]","[]","","","","","",""
"","","","","","","","","","","","canvas-keyboard-response","360","612260","0.0-360.0","null","null","","","","","","","","","","","","","","fixation","","","2","34","","","","","","","","","",""
"","","","","","","","","","","","canvas-keyboard-response","361","612562","0.0-361.0","null","null","","","","","","","","","","","","","","stimulus","","","2","34","","","","","","","","","",""
"","","","","","","","","","","","canvas-button-response","362","616449","0.0-362.0","3886","car","","","","","","","","","","","","","","perceptual","","","2","34","","","","","247","train","6","0","0",""
"","","","","","","","","","","","canvas-button-response","363","617219","0.0-363.0","769","10","","","","","","","","","","","","","","confidence","","","2","34","","","","","","","","","","26"
"","","","","","","","","","","","preload","364","617219","0.0-364.0","","","","","true","","","","","","","","","","","preload","","","2","35","false","[]","[]","[]","","","","","",""
"","","","","","","","","","","","canvas-keyboard-response","365","617528","0.0-365.0","null","null","","","","","","","","","","","","","","fixation","","","2","35","","","","","","","","","",""
"","","","","","","","","","","","canvas-keyboard-response","366","617830","0.0-366.0","null","null","","","","","","","","","","","","","","stimulus","","","2","35","","","","","","","","","",""
"","","","","","","","","","","","canvas-button-response","367","618711","0.0-367.0","879","phone","","","","","","","","","","","","","","perceptual","","","2","35","","","","","371","knife","6","0","0",""
"","","","","","","","","","","","canvas-button-response","368","619273","0.0-368.0","561","10","","","","","","","","","","","","","","confidence","","","2","35","","","","","","","","","","26"
"","","","","","","","","","","","preload","369","619273","0.0-369.0","","","","","true","","","","","","","","","","","preload","","","2","36","false","[]","[]","[]","","","","","",""
"","","","","","","","","","","","canvas-keyboard-response","370","619577","0.0-370.0","null","null","","","","","","","","","","","","","","fixation","","","2","36","","","","","","","","","",""
"","","","","","","","","","","","canvas-keyboard-response","371","619893","0.0-371.0","null","null","","","","","","","","","","","","","","stimulus","","","2","36","","","","","","","","","",""
"","","","","","","","","","","","canvas-button-response","372","620667","0.0-372.0","773","train","","","","","","","","","","","","","","perceptual","","","2","36","","","","","274","train","10","0","1",""
"","","","","","","","","","","","canvas-button-response","373","621168","0.0-373.0","499","10","","","","","","","","","","","","","","confidence","","","2","36","","","","","","","","","","27"
"","","","","","","","","","","","preload","374","621168","0.0-374.0","","","","","true","","","","","","","","","","","preload","","","2","37","false","[]","[]","[]","","","","","",""
"","","","","","","","","","","","canvas-keyboard-response","375","621475","0.0-375.0","null","null","","","","","","","","","","","","","","fixation","","","2","37","","","","","","","","","",""
"","","","","","","","","","","","canvas-keyboard-response","376","621777","0.0-376.0","null","null","","","","","","","","","","","","","","stimulus","","","2","37","","","","","","","","","",""
"","","","","","","","","","","","canvas-button-response","377","623838","0.0-377.0","2060","bed","","","","","","","","","","","","","","perceptual","","","2","37","","","","","270","train","10","0","0",""
"","","","","","","","","","","","canvas-button-response","378","624428","0.0-378.0","589","0","","","","","","","","","","","","","","confidence","","","2","37","","","","","","","","","","27"
"","","","","","","","","","","","preload","379","624428","0.0-379.0","","","","","true","","","","","","","","","","","preload","","","2","38","false","[]","[]","[]","","","","","",""
"","","","","","","","","","","","canvas-keyboard-response","380","624729","0.0-380.0","null","null","","","","","","","","","","","","","","fixation","","","2","38","","","","","","","","","",""
"","","","","","","","","","","","canvas-keyboard-response","381","625044","0.0-381.0","null","null","","","","","","","","","","","","","","stimulus","","","2","38","","","","","","","","","",""
"","","","","","","","","","","","canvas-button-response","382","626009","0.0-382.0","964","bed","","","","","","","","","","","","","","perceptual","","","2","38","","","","","129","bed","6","0","1",""
"","","","","","","","","","","","canvas-button-response","383","626855","0.0-383.0","845","10","","","","","","","","","","","","","","confidence","","","2","38","","","","","","","","","","28"
"","","","","","","","","","","","preload","384","626856","0.0-384.0","","","","","true","","","","","","","","","","","preload","","","2","39","false","[]","[]","[]","","","","","",""
"","","","","","","","","","","","canvas-keyboard-response","385","627162","0.0-385.0","null","null","","","","","","","","","","","","","","fixation","","","2","39","","","","","","","","","",""
"","","","","","","","","","","","canvas-keyboard-response","386","627479","0.0-386.0","null","null","","","","","","","","","","","","","","stimulus","","","2","39","","","","","","","","","",""
"","","","","","","","","","","","canvas-button-response","387","628687","0.0-387.0","1207","bed","","","","","","","","","","","","","","perceptual","","","2","39","","","","","290","cat","6","0","0",""
"","","","","","","","","","","","canvas-button-response","388","629485","0.0-388.0","797","1","","","","","","","","","","","","","","confidence","","","2","39","","","","","","","","","","28"
"","","","","","","","","","","","preload","389","629486","0.0-389.0","","","","","true","","","","","","","","","","","preload","","","2","40","false","[]","[]","[]","","","","","",""
"","","","","","","","","","","","canvas-keyboard-response","390","629795","0.0-390.0","null","null","","","","","","","","","","","","","","fixation","","","2","40","","","","","","","","","",""
"","","","","","","","","","","","canvas-keyboard-response","391","630113","0.0-391.0","null","null","","","","","","","","","","","","","","stimulus","","","2","40","","","","","","","","","",""
"","","","","","","","","","","","canvas-button-response","392","631011","0.0-392.0","897","bed","","","","","","","","","","","","","","perceptual","","","2","40","","","","","191","bridge","10","0","0",""
"","","","","","","","","","","","canvas-button-response","393","631601","0.0-393.0","589","1","","","","","","","","","","","","","","confidence","","","2","40","","","","","","","","","","28"
"","","","","","","","","","","","preload","394","631601","0.0-394.0","","","","","true","","","","","","","","","","","preload","","","2","41","false","[]","[]","[]","","","","","",""
"","","","","","","","","","","","canvas-keyboard-response","395","631911","0.0-395.0","null","null","","","","","","","","","","","","","","fixation","","","2","41","","","","","","","","","",""
"","","","","","","","","","","","canvas-keyboard-response","396","632228","0.0-396.0","null","null","","","","","","","","","","","","","","stimulus","","","2","41","","","","","","","","","",""
"","","","","","","","","","","","canvas-button-response","397","633342","0.0-397.0","1112","car","","","","","","","","","","","","","","perceptual","","","2","41","","","","","143","bed","10","0","0",""
"","","","","","","","","","","","canvas-button-response","398","633952","0.0-398.0","609","1","","","","","","","","","","","","","","confidence","","","2","41","","","","","","","","","","28"
"","","","","","","","","","","","preload","399","633953","0.0-399.0","","","","","true","","","","","","","","","","","preload","","","2","42","false","[]","[]","[]","","","","","",""
"","","","","","","","","","","","canvas-keyboard-response","400","634259","0.0-400.0","null","null","","","","","","","","","","","","","","fixation","","","2","42","","","","","","","","","",""
"","","","","","","","","","","","canvas-keyboard-response","401","634562","0.0-401.0","null","null","","","","","","","","","","","","","","stimulus","","","2","42","","","","","","","","","",""
"","","","","","","","","","","","canvas-button-response","402","635277","0.0-402.0","715","knife","","","","","","","","","","","","","","perceptual","","","2","42","","","","","387","knife","10","0","1",""
"","","","","","","","","","","","canvas-button-response","403","635901","0.0-403.0","623","9","","","","","","","","","","","","","","confidence","","","2","42","","","","","","","","","","29"
"","","","","","","","","","","","preload","404","635902","0.0-404.0","","","","","true","","","","","","","","","","","preload","","","2","43","false","[]","[]","[]","","","","","",""
"","","","","","","","","","","","canvas-keyboard-response","405","636208","0.0-405.0","null","null","","","","","","","","","","","","","","fixation","","","2","43","","","","","","","","","",""
"","","","","","","","","","","","canvas-keyboard-response","406","636516","0.0-406.0","null","null","","","","","","","","","","","","","","stimulus","","","2","43","","","","","","","","","",""
"","","","","","","","","","","","canvas-button-response","407","637768","0.0-407.0","1251","bed","","","","","","","","","","","","","","perceptual","","","2","43","","","","","136","bed","6","0","1",""
"","","","","","","","","","","","canvas-button-response","408","638641","0.0-408.0","872","8","","","","","","","","","","","","","","confidence","","","2","43","","","","","","","","","","30"
"","","","","","","","","","","","preload","409","638642","0.0-409.0","","","","","true","","","","","","","","","","","preload","","","2","44","false","[]","[]","[]","","","","","",""
"","","","","","","","","","","","canvas-keyboard-response","410","638944","0.0-410.0","null","null","","","","","","","","","","","","","","fixation","","","2","44","","","","","","","","","",""
"","","","","","","","","","","","canvas-keyboard-response","411","639261","0.0-411.0","null","null","","","","","","","","","","","","","","stimulus","","","2","44","","","","","","","","","",""
"","","","","","","","","","","","canvas-button-response","412","639911","0.0-412.0","649","cat","","","","","","","","","","","","","","perceptual","","","2","44","","","","","303","cat","10","0","1",""
"","","","","","","","","","","","canvas-button-response","413","640529","0.0-413.0","617","10","","","","","","","","","","","","","","confidence","","","2","44","","","","","","","","","","31"
"","","","","","","","","","","","preload","414","640529","0.0-414.0","","","","","true","","","","","","","","","","","preload","","","2","45","false","[]","[]","[]","","","","","",""
"","","","","","","","","","","","canvas-keyboard-response","415","640844","0.0-415.0","null","null","","","","","","","","","","","","","","fixation","","","2","45","","","","","","","","","",""
"","","","","","","","","","","","canvas-keyboard-response","416","641152","0.0-416.0","null","null","","","","","","","","","","","","","","stimulus","","","2","45","","","","","","","","","",""
"","","","","","","","","","","","canvas-button-response","417","642255","0.0-417.0","1103","flower","","","","","","","","","","","","","","perceptual","","","2","45","","","","","222","flower","10","0","1",""
"","","","","","","","","","","","canvas-button-response","418","643033","0.0-418.0","776","10","","","","","","","","","","","","","","confidence","","","2","45","","","","","","","","","","32"
"","","","","","","","","","","","preload","419","643033","0.0-419.0","","","","","true","","","","","","","","","","","preload","","","2","46","false","[]","[]","[]","","","","","",""
"","","","","","","","","","","","canvas-keyboard-response","420","643337","0.0-420.0","null","null","","","","","","","","","","","","","","fixation","","","2","46","","","","","","","","","",""
"","","","","","","","","","","","canvas-keyboard-response","421","643639","0.0-421.0","null","null","","","","","","","","","","","","","","stimulus","","","2","46","","","","","","","","","",""
"","","","","","","","","","","","canvas-button-response","422","644530","0.0-422.0","889","knife","","","","","","","","","","","","","","perceptual","","","2","46","","","","","379","knife","6","0","1",""
"","","","","","","","","","","","canvas-button-response","423","645329","0.0-423.0","798","10","","","","","","","","","","","","","","confidence","","","2","46","","","","","","","","","","33"
"","","","","","","","","","","","preload","424","645329","0.0-424.0","","","","","true","","","","","","","","","","","preload","","","2","47","false","[]","[]","[]","","","","","",""
"","","","","","","","","","","","canvas-keyboard-response","425","645643","0.0-425.0","null","null","","","","","","","","","","","","","","fixation","","","2","47","","","","","","","","","",""
"","","","","","","","","","","","canvas-keyboard-response","426","645946","0.0-426.0","null","null","","","","","","","","","","","","","","stimulus","","","2","47","","","","","","","","","",""
"","","","","","","","","","","","canvas-button-response","427","646501","0.0-427.0","554","train","","","","","","","","","","","","","","perceptual","","","2","47","","","","","276","train","10","0","1",""
"","","","","","","","","","","","canvas-button-response","428","646994","0.0-428.0","491","10","","","","","","","","","","","","","","confidence","","","2","47","","","","","","","","","","34"
"","","","","","","","","","","","preload","429","646994","0.0-429.0","","","","","true","","","","","","","","","","","preload","","","2","48","false","[]","[]","[]","","","","","",""
"","","","","","","","","","","","canvas-keyboard-response","430","647310","0.0-430.0","null","null","","","","","","","","","","","","","","fixation","","","2","48","","","","","","","","","",""
"","","","","","","","","","","","canvas-keyboard-response","431","647626","0.0-431.0","null","null","","","","","","","","","","","","","","stimulus","","","2","48","","","","","","","","","",""
"","","","","","","","","","","","canvas-button-response","432","648374","0.0-432.0","746","bed","","","","","","","","","","","","","","perceptual","","","2","48","","","","","154","bed","10","0","1",""
"","","","","","","","","","","","canvas-button-response","433","649206","0.0-433.0","831","10","","","","","","","","","","","","","","confidence","","","2","48","","","","","","","","","","35"
"","","","","","","","","","","","preload","434","649206","0.0-434.0","","","","","true","","","","","","","","","","","preload","","","2","49","false","[]","[]","[]","","","","","",""
"","","","","","","","","","","","canvas-keyboard-response","435","649511","0.0-435.0","null","null","","","","","","","","","","","","","","fixation","","","2","49","","","","","","","","","",""
"","","","","","","","","","","","canvas-keyboard-response","436","649828","0.0-436.0","null","null","","","","","","","","","","","","","","stimulus","","","2","49","","","","","","","","","",""
"","","","","","","","","","","","canvas-button-response","437","650441","0.0-437.0","611","phone","","","","","","","","","","","","","","perceptual","","","2","49","","","","","98","phone","6","0","1",""
"","","","","","","","","","","","canvas-button-response","438","651031","0.0-438.0","589","10","","","","","","","","","","","","","","confidence","","","2","49","","","","","","","","","","36"
"","","","","","","","","","","","html-button-response","439","657350","0.0-439.0","6317","0","","","","","","","","","","","","","","<p style=""font-size:20px;color:#000000"">You got 36 out of 50 trials correct in this block.<br><br>You have completed 6% of the experiment.<br><br>Take a short break.<br><br>When you are ready, click Continue to proceed.","","","2","49","","","","","","","","","",""
"","","","","","","","","","","","html-keyboard-response","440","658362","0.0-440.0","null","null","","","","","","","","","","","","","","<p style=""font-size:32px;color:#000000""><br><br> RUN: &nbsp 1/4 <br><br> BLOCK: 2/4 ","","","2","49","","","","","","","","","",""
"","","","","","","","","","","","preload","441","658362","0.0-441.0","","","","","true","","","","","","","","","","","preload","","","2","50","false","[]","[]","[]","","","","","",""
"","","","","","","","","","","","canvas-keyboard-response","442","658678","0.0-442.0","null","null","","","","","","","","","","","","","","fixation","","","2","50","","","","","","","","","",""
"","","","","","","","","","","","canvas-keyboard-response","443","658994","0.0-443.0","null","null","","","","","","","","","","","","","","stimulus","","","2","50","","","","","","","","","",""
"","","","","","","","","","","","canvas-button-response","444","660242","0.0-444.0","1246","train","","","","","","","","","","","","","","perceptual","","","2","50","","","","","75","car","10","0","0",""
"","","","","","","","","","","","canvas-button-response","445","661352","0.0-445.0","1109","9","","","","","","","","","","","","","","confidence","","","2","50","","","","","","","","","","0"
"","","","","","","","","","","","preload","446","661352","0.0-446.0","","","","","true","","","","","","","","","","","preload","","","2","51","false","[]","[]","[]","","","","","",""
"","","","","","","","","","","","canvas-keyboard-response","447","661662","0.0-447.0","null","null","","","","","","","","","","","","","","fixation","","","2","51","","","","","","","","","",""
"","","","","","","","","","","","canvas-keyboard-response","448","661968","0.0-448.0","null","null","","","","","","","","","","","","","","stimulus","","","2","51","","","","","","","","","",""
"","","","","","","","","","","","canvas-button-response","449","663579","0.0-449.0","1610","flower","","","","","","","","","","","","","","perceptual","","","2","51","","","","","316","cat","10","0","0",""
"","","","","","","","","","","","canvas-button-response","450","663981","0.0-450.0","401","6","","","","","","","","","","","","","","confidence","","","2","51","","","","","","","","","","0"
"","","","","","","","","","","","preload","451","663981","0.0-451.0","","","","","true","","","","","","","","","","","preload","","","2","52","false","[]","[]","[]","","","","","",""
"","","","","","","","","","","","canvas-keyboard-response","452","664282","0.0-452.0","null","null","","","","","","","","","","","","","","fixation","","","2","52","","","","","","","","","",""
"","","","","","","","","","","","canvas-keyboard-response","453","664585","0.0-453.0","null","null","","","","","","","","","","","","","","stimulus","","","2","52","","","","","","","","","",""
"","","","","","","","","","","","canvas-button-response","454","665583","0.0-454.0","997","car","","","","","","","","","","","","","","perceptual","","","2","52","","","","","40","car","6","0","1",""
"","","","","","","","","","","","canvas-button-response","455","666339","0.0-455.0","755","6","","","","","","","","","","","","","","confidence","","","2","52","","","","","","","","","","1"
"","","","","","","","","","","","preload","456","666339","0.0-456.0","","","","","true","","","","","","","","","","","preload","","","2","53","false","[]","[]","[]","","","","","",""
"","","","","","","","","","","","canvas-keyboard-response","457","666643","0.0-457.0","null","null","","","","","","","","","","","","","","fixation","","","2","53","","","","","","","","","",""
"","","","","","","","","","","","canvas-keyboard-response","458","666945","0.0-458.0","null","null","","","","","","","","","","","","","","stimulus","","","2","53","","","","","","","","","",""
"","","","","","","","","","","","canvas-button-response","459","667892","0.0-459.0","946","phone","","","","","","","","","","","","","","perceptual","","","2","53","","","","","375","knife","6","0","0",""
"","","","","","","","","","","","canvas-button-response","460","668330","0.0-460.0","436","5","","","","","","","","","","","","","","confidence","","","2","53","","","","","","","","","","1"
"","","","","","","","","","","","preload","461","668330","0.0-461.0","","","","","true","","","","","","","","","","","preload","","","2","54","false","[]","[]","[]","","","","","",""
"","","","","","","","","","","","canvas-keyboard-response","462","668639","0.0-462.0","null","null","","","","","","","","","","","","","","fixation","","","2","54","","","","","","","","","",""
"","","","","","","","","","","","canvas-keyboard-response","463","668952","0.0-463.0","null","null","","","","","","","","","","","","","","stimulus","","","2","54","","","","","","","","","",""
"","","","","","","","","","","","canvas-button-response","464","670341","0.0-464.0","1388","car","","","","","","","","","","","","","","perceptual","","","2","54","","","","","293","cat","6","0","0",""
"","","","","","","","","","","","canvas-button-response","465","671264","0.0-465.0","922","4","","","","","","","","","","","","","","confidence","","","2","54","","","","","","","","","","1"
"","","","","","","","","","","","preload","466","671265","0.0-466.0","","","","","true","","","","","","","","","","","preload","","","2","55","false","[]","[]","[]","","","","","",""
"","","","","","","","","","","","canvas-keyboard-response","467","671577","0.0-467.0","null","null","","","","","","","","","","","","","","fixation","","","2","55","","","","","","","","","",""
"","","","","","","","","","","","canvas-keyboard-response","468","671893","0.0-468.0","null","null","","","","","","","","","","","","","","stimulus","","","2","55","","","","","","","","","",""
"","","","","","","","","","","","canvas-button-response","469","673296","0.0-469.0","1402","train","","","","","","","","","","","","","","perceptual","","","2","55","","","","","381","knife","10","0","0",""
"","","","","","","","","","","","canvas-button-response","470","673837","0.0-470.0","540","9","","","","","","","","","","","","","","confidence","","","2","55","","","","","","","","","","1"
"","","","","","","","","","","","preload","471","673837","0.0-471.0","","","","","true","","","","","","","","","","","preload","","","2","56","false","[]","[]","[]","","","","","",""
"","","","","","","","","","","","canvas-keyboard-response","472","674143","0.0-472.0","null","null","","","","","","","","","","","","","","fixation","","","2","56","","","","","","","","","",""
"","","","","","","","","","","","canvas-keyboard-response","473","674460","0.0-473.0","null","null","","","","","","","","","","","","","","stimulus","","","2","56","","","","","","","","","",""
"","","","","","","","","","","","canvas-button-response","474","675037","0.0-474.0","575","bed","","","","","","","","","","","","","","perceptual","","","2","56","","","","","133","bed","6","0","1",""
"","","","","","","","","","","","canvas-button-response","475","675891","0.0-475.0","852","10","","","","","","","","","","","","","","confidence","","","2","56","","","","","","","","","","2"
"","","","","","","","","","","","preload","476","675891","0.0-476.0","","","","","true","","","","","","","","","","","preload","","","2","57","false","[]","[]","[]","","","","","",""
"","","","","","","","","","","","canvas-keyboard-response","477","676195","0.0-477.0","null","null","","","","","","","","","","","","","","fixation","","","2","57","","","","","","","","","",""
"","","","","","","","","","","","canvas-keyboard-response","478","676512","0.0-478.0","null","null","","","","","","","","","","","","","","stimulus","","","2","57","","","","","","","","","",""
"","","","","","","","","","","","canvas-button-response","479","677389","0.0-479.0","875","phone","","","","","","","","","","","","","","perceptual","","","2","57","","","","","68","car","10","0","0",""
"","","","","","","","","","","","canvas-button-response","480","678547","0.0-480.0","1157","10","","","","","","","","","","","","","","confidence","","","2","57","","","","","","","","","","2"
"","","","","","","","","","","","preload","481","678548","0.0-481.0","","","","","true","","","","","","","","","","","preload","","","2","58","false","[]","[]","[]","","","","","",""
"","","","","","","","","","","","canvas-keyboard-response","482","678858","0.0-482.0","null","null","","","","","","","","","","","","","","fixation","","","2","58","","","","","","","","","",""
"","","","","","","","","","","","canvas-keyboard-response","483","679162","0.0-483.0","null","null","","","","","","","","","","","","","","stimulus","","","2","58","","","","","","","","","",""
"","","","","","","","","","","","canvas-button-response","484","679788","0.0-484.0","624","train","","","","","","","","","","","","","","perceptual","","","2","58","","","","","279","train","10","0","1",""
"","","","","","","","","","","","canvas-button-response","485","680448","0.0-485.0","659","10","","","","","","","","","","","","","","confidence","","","2","58","","","","","","","","","","3"
"","","","","","","","","","","","preload","486","680448","0.0-486.0","","","","","true","","","","","","","","","","","preload","","","2","59","false","[]","[]","[]","","","","","",""
"","","","","","","","","","","","canvas-keyboard-response","487","680760","0.0-487.0","null","null","","","","","","","","","","","","","","fixation","","","2","59","","","","","","","","","",""
"","","","","","","","","","","","canvas-keyboard-response","488","681076","0.0-488.0","null","null","","","","","","","","","","","","","","stimulus","","","2","59","","","","","","","","","",""
"","","","","","","","","","","","canvas-button-response","489","681704","0.0-489.0","625","flower","","","","","","","","","","","","","","perceptual","","","2","59","","","","","201","flower","6","0","1",""
"","","","","","","","","","","","canvas-button-response","490","683146","0.0-490.0","1442","10","","","","","","","","","","","","","","confidence","","","2","59","","","","","","","","","","4"
"","","","","","","","","","","","preload","491","683147","0.0-491.0","","","","","true","","","","","","","","","","","preload","","","2","60","false","[]","[]","[]","","","","","",""
