"width","height","webaudio","browser","browser_version","mobile","os","fullscreen","vsync_rate","webcam","microphone","trial_type","trial_index","time_elapsed","internal_node_id","rt","response","accuracy","view_history","success","item_width_mm","item_height_mm","item_width_px","px2mm","view_dist_mm","item_width_deg","px2deg","scale_factor","win_width_deg","win_height_deg","stimulus","datetime","subjectID","curr_triallist","trial_no","timeout","failed_images","failed_audio","failed_video","image_index","category","blur","reps","correct","running_score"
"1536","742","true","chrome","141.0.0","false","Windows 10","true","143.75","true","true","browser-check","0","423","0.0-0.0","","","","","","","","","","","","","","","","","","","","","","","","","","","","","",""
"","","","","","","","","","","","survey","1","28761","0.0-1.0","28309","{""P0_Q0"":""904125953"",""P0_Q1"":""19"",""P1_Q0"":""Male"",""P1_Q1"":""Not Hispanic or Latino"",""P1_Q2"":""Asian"",""P1_Q3"":""Corrected-to-Normal (using glasses/contacts)"",""P1_Q4"":""Right-Handed""}","[]","","","","","","","","","","","","","","","","","","","","","","","","","","",""
"","","","","","","","","","","","instructions","2","43123","0.0-2.0","14362","","","[{""page_index"":0,""viewing_time"":2054},{""page_index"":1,""viewing_time"":1304},{""page_index"":2,""viewing_time"":713},{""page_index"":3,""viewing_time"":10291}]","","","","","","","","","","","","","","","","","","","","","","","","","",""
"","","","","","","","","","","","fullscreen","3","46400","0.0-3.0","2271","","","","true","","","","","","","","","","","","","","","","","","","","","","","","",""
"","","","","","","","","","","","virtual-chinrest","4","97597","0.0-4.0","51196","","","","","85.6","53.98","239.19309844140489","2.796719304853349","614.14","7.973103281380163","30","1.630481826362303","51.2","28.8","","","","","","","","","","","","","","",""
"","","","","","","","","","","","instructions","5","185802","0.0-5.0","88204","","","[{""page_index"":0,""viewing_time"":5506},{""page_index"":1,""viewing_time"":4400},{""page_index"":2,""viewing_time"":17336},{""page_index"":3,""viewing_time"":6490},{""page_index"":4,""viewing_time"":4090},{""page_index"":5,""viewing_time"":38567},{""page_index"":6,""viewing_time"":5063},{""page_index"":5,""viewing_time"":6075},{""page_index"":6,""viewing_time"":679}]","","","","","","","","","","","","","","","","","","","","","","","","","",""
"","","","","","","","","","","","html-button-response","6","195606","0.0-6.0","9803","0","","","","","","","","","","","","","","start_practice","Tue Oct 21 2025 06:24:20 GMT+0800 (台北標準時間)","27791","","","","","","","","","","","",""
"","","","","","","","","","","","preload","7","195607","0.0-7.0","","","","","true","","","","","","","","","","","preload","","","0","0","false","[]","[]","[]","","","","","",""
"","","","","","","","","","","","canvas-keyboard-response","8","195916","0.0-8.0","null","null","","","","","","","","","","","","","","fixation","","","0","0","","","","","","","","","",""
"","","","","","","","","","","","canvas-keyboard-response","9","196226","0.0-9.0","null","null","","","","","","","","","","","","","","stimulus","","","0","0","","","","","","","","","",""
"","","","","","","","","","","","canvas-button-response","10","198873","0.0-10.0","2645","knife","","","","","","","","","","","","","","perceptual","","","0","0","","","","","92","knife","1","","1",""
"","","","","","","","","","","","canvas-button-response","11","200445","0.0-11.0","1571","4","","","","","","","","","","","","","","confidence","","","0","0","","","","","","","","","","1"
"","","","","","","","","","","","html-keyboard-response","12","201461","0.0-12.0","null","null","","","","","","","","","","","","","","feedback","Tue Oct 21 2025 06:24:34 GMT+0800 (台北標準時間)","27791","0","0","","","","","","","","","",""
"","","","","","","","","","","","preload","13","201461","0.0-13.0","","","","","true","","","","","","","","","","","preload","","","0","1","false","[]","[]","[]","","","","","",""
"","","","","","","","","","","","canvas-keyboard-response","14","201772","0.0-14.0","null","null","","","","","","","","","","","","","","fixation","","","0","1","","","","","","","","","",""
"","","","","","","","","","","","canvas-keyboard-response","15","202084","0.0-15.0","null","null","","","","","","","","","","","","","","stimulus","","","0","1","","","","","","","","","",""
"","","","","","","","","","","","canvas-button-response","16","203240","0.0-16.0","1154","train","","","","","","","","","","","","","","perceptual","","","0","1","","","","","62","train","1","","1",""
"","","","","","","","","","","","canvas-button-response","17","204131","0.0-17.0","891","10","","","","","","","","","","","","","","confidence","","","0","1","","","","","","","","","","2"
"","","","","","","","","","","","html-keyboard-response","18","205142","0.0-18.0","null","null","","","","","","","","","","","","","","feedback","Tue Oct 21 2025 06:24:38 GMT+0800 (台北標準時間)","27791","0","1","","","","","","","","","",""
"","","","","","","","","","","","preload","19","205143","0.0-19.0","","","","","true","","","","","","","","","","","preload","","","0","2","false","[]","[]","[]","","","","","",""
"","","","","","","","","","","","canvas-keyboard-response","20","205447","0.0-20.0","null","null","","","","","","","","","","","","","","fixation","","","0","2","","","","","","","","","",""
"","","","","","","","","","","","canvas-keyboard-response","21","205759","0.0-21.0","null","null","","","","","","","","","","","","","","stimulus","","","0","2","","","","","","","","","",""
"","","","","","","","","","","","canvas-button-response","22","206647","0.0-22.0","887","car","","","","","","","","","","","","","","perceptual","","","0","2","","","","","12","car","1","","1",""
"","","","","","","","","","","","canvas-button-response","23","207451","0.0-23.0","803","10","","","","","","","","","","","","","","confidence","","","0","2","","","","","","","","","","3"
"","","","","","","","","","","","html-keyboard-response","24","208462","0.0-24.0","null","null","","","","","","","","","","","","","","feedback","Tue Oct 21 2025 06:24:41 GMT+0800 (台北標準時間)","27791","0","2","","","","","","","","","",""
"","","","","","","","","","","","preload","25","208463","0.0-25.0","","","","","true","","","","","","","","","","","preload","","","0","3","false","[]","[]","[]","","","","","",""
"","","","","","","","","","","","canvas-keyboard-response","26","208772","0.0-26.0","null","null","","","","","","","","","","","","","","fixation","","","0","3","","","","","","","","","",""
"","","","","","","","","","","","canvas-keyboard-response","27","209075","0.0-27.0","null","null","","","","","","","","","","","","","","stimulus","","","0","3","","","","","","","","","",""
"","","","","","","","","","","","canvas-button-response","28","209986","0.0-28.0","909","bridge","","","","","","","","","","","","","","perceptual","","","0","3","","","","","42","bridge","1","","1",""
"","","","","","","","","","","","canvas-button-response","29","210645","0.0-29.0","658","10","","","","","","","","","","","","","","confidence","","","0","3","","","","","","","","","","4"
"","","","","","","","","","","","html-keyboard-response","30","211646","0.0-30.0","null","null","","","","","","","","","","","","","","feedback","Tue Oct 21 2025 06:24:45 GMT+0800 (台北標準時間)","27791","0","3","","","","","","","","","",""
"","","","","","","","","","","","preload","31","211646","0.0-31.0","","","","","true","","","","","","","","","","","preload","","","0","4","false","[]","[]","[]","","","","","",""
"","","","","","","","","","","","canvas-keyboard-response","32","211963","0.0-32.0","null","null","","","","","","","","","","","","","","fixation","","","0","4","","","","","","","","","",""
"","","","","","","","","","","","canvas-keyboard-response","33","212273","0.0-33.0","null","null","","","","","","","","","","","","","","stimulus","","","0","4","","","","","","","","","",""
"","","","","","","","","","","","canvas-button-response","34","212970","0.0-34.0","696","house","","","","","","","","","","","","","","perceptual","","","0","4","","","","","2","house","1","","1",""
"","","","","","","","","","","","canvas-button-response","35","213626","0.0-35.0","655","10","","","","","","","","","","","","","","confidence","","","0","4","","","","","","","","","","5"
"","","","","","","","","","","","html-keyboard-response","36","214630","0.0-36.0","null","null","","","","","","","","","","","","","","feedback","Tue Oct 21 2025 06:24:48 GMT+0800 (台北標準時間)","27791","0","4","","","","","","","","","",""
"","","","","","","","","","","","preload","37","214630","0.0-37.0","","","","","true","","","","","","","","","","","preload","","","0","5","false","[]","[]","[]","","","","","",""
"","","","","","","","","","","","canvas-keyboard-response","38","214936","0.0-38.0","null","null","","","","","","","","","","","","","","fixation","","","0","5","","","","","","","","","",""
"","","","","","","","","","","","canvas-keyboard-response","39","215240","0.0-39.0","null","null","","","","","","","","","","","","","","stimulus","","","0","5","","","","","","","","","",""
"","","","","","","","","","","","canvas-button-response","40","215927","0.0-40.0","686","phone","","","","","","","","","","","","","","perceptual","","","0","5","","","","","22","phone","1","","1",""
"","","","","","","","","","","","canvas-button-response","41","216821","0.0-41.0","893","10","","","","","","","","","","","","","","confidence","","","0","5","","","","","","","","","","6"
"","","","","","","","","","","","html-keyboard-response","42","217835","0.0-42.0","null","null","","","","","","","","","","","","","","feedback","Tue Oct 21 2025 06:24:51 GMT+0800 (台北標準時間)","27791","0","5","","","","","","","","","",""
"","","","","","","","","","","","preload","43","217835","0.0-43.0","","","","","true","","","","","","","","","","","preload","","","0","6","false","[]","[]","[]","","","","","",""
"","","","","","","","","","","","canvas-keyboard-response","44","218149","0.0-44.0","null","null","","","","","","","","","","","","","","fixation","","","0","6","","","","","","","","","",""
"","","","","","","","","","","","canvas-keyboard-response","45","218466","0.0-45.0","null","null","","","","","","","","","","","","","","stimulus","","","0","6","","","","","","","","","",""
"","","","","","","","","","","","canvas-button-response","46","219247","0.0-46.0","781","elephant","","","","","","","","","","","","","","perceptual","","","0","6","","","","","82","elephant","1","","1",""
"","","","","","","","","","","","canvas-button-response","47","219765","0.0-47.0","517","10","","","","","","","","","","","","","","confidence","","","0","6","","","","","","","","","","7"
"","","","","","","","","","","","html-keyboard-response","48","220772","0.0-48.0","null","null","","","","","","","","","","","","","","feedback","Tue Oct 21 2025 06:24:54 GMT+0800 (台北標準時間)","27791","0","6","","","","","","","","","",""
"","","","","","","","","","","","preload","49","220772","0.0-49.0","","","","","true","","","","","","","","","","","preload","","","0","7","false","[]","[]","[]","","","","","",""
"","","","","","","","","","","","canvas-keyboard-response","50","221078","0.0-50.0","null","null","","","","","","","","","","","","","","fixation","","","0","7","","","","","","","","","",""
"","","","","","","","","","","","canvas-keyboard-response","51","221393","0.0-51.0","null","null","","","","","","","","","","","","","","stimulus","","","0","7","","","","","","","","","",""
"","","","","","","","","","","","canvas-button-response","52","222424","0.0-52.0","1030","bed","","","","","","","","","","","","","","perceptual","","","0","7","","","","","32","bed","1","","1",""
"","","","","","","","","","","","canvas-button-response","53","223151","0.0-53.0","726","10","","","","","","","","","","","","","","confidence","","","0","7","","","","","","","","","","8"
"","","","","","","","","","","","html-keyboard-response","54","224161","0.0-54.0","null","null","","","","","","","","","","","","","","feedback","Tue Oct 21 2025 06:24:57 GMT+0800 (台北標準時間)","27791","0","7","","","","","","","","","",""
"","","","","","","","","","","","preload","55","224161","0.0-55.0","","","","","true","","","","","","","","","","","preload","","","0","8","false","[]","[]","[]","","","","","",""
"","","","","","","","","","","","canvas-keyboard-response","56","224473","0.0-56.0","null","null","","","","","","","","","","","","","","fixation","","","0","8","","","","","","","","","",""
"","","","","","","","","","","","canvas-keyboard-response","57","224787","0.0-57.0","null","null","","","","","","","","","","","","","","stimulus","","","0","8","","","","","","","","","",""
"","","","","","","","","","","","canvas-button-response","58","226173","0.0-58.0","1385","house","","","","","","","","","","","","","","perceptual","","","0","8","","","","","52","flower","1","","0",""
"","","","","","","","","","","","canvas-button-response","59","227664","0.0-59.0","1490","2","","","","","","","","","","","","","","confidence","","","0","8","","","","","","","","","","8"
"","","","","","","","","","","","html-keyboard-response","60","228675","0.0-60.0","null","null","","","","","","","","","","","","","","feedback","Tue Oct 21 2025 06:25:02 GMT+0800 (台北標準時間)","27791","0","8","","","","","","","","","",""
"","","","","","","","","","","","preload","61","228676","0.0-61.0","","","","","true","","","","","","","","","","","preload","","","0","9","false","[]","[]","[]","","","","","",""
"","","","","","","","","","","","canvas-keyboard-response","62","228979","0.0-62.0","null","null","","","","","","","","","","","","","","fixation","","","0","9","","","","","","","","","",""
"","","","","","","","","","","","canvas-keyboard-response","63","229282","0.0-63.0","null","null","","","","","","","","","","","","","","stimulus","","","0","9","","","","","","","","","",""
"","","","","","","","","","","","canvas-button-response","64","229969","0.0-64.0","686","cat","","","","","","","","","","","","","","perceptual","","","0","9","","","","","72","cat","1","","1",""
"","","","","","","","","","","","canvas-button-response","65","230745","0.0-65.0","775","10","","","","","","","","","","","","","","confidence","","","0","9","","","","","","","","","","9"
"","","","","","","","","","","","html-keyboard-response","66","231746","0.0-66.0","null","null","","","","","","","","","","","","","","feedback","Tue Oct 21 2025 06:25:05 GMT+0800 (台北標準時間)","27791","0","9","","","","","","","","","",""
"","","","","","","","","","","","html-button-response","67","245715","0.0-67.0","13968","0","","","","","","","","","","","","","","start_practice","Tue Oct 21 2025 06:25:06 GMT+0800 (台北標準時間)","27791","0","9","","","","","","","","","",""
"","","","","","","","","","","","preload","68","245716","0.0-68.0","","","","","true","","","","","","","","","","","preload","","","1","0","false","[]","[]","[]","","","","","",""
"","","","","","","","","","","","canvas-keyboard-response","69","246017","0.0-69.0","null","null","","","","","","","","","","","","","","fixation","","","1","0","","","","","","","","","",""
"","","","","","","","","","","","canvas-keyboard-response","70","246327","0.0-70.0","null","null","","","","","","","","","","","","","","stimulus","","","1","0","","","","","","","","","",""
"","","","","","","","","","","","canvas-button-response","71","250596","0.0-71.0","4268","bridge","","","","","","","","","","","","","","perceptual","","","1","0","","","","","44","bridge","6","","1",""
"","","","","","","","","","","","canvas-button-response","72","251748","0.0-72.0","1151","2","","","","","","","","","","","","","","confidence","","","1","0","","","","","","","","","","1"
"","","","","","","","","","","","html-keyboard-response","73","252762","0.0-73.0","null","null","","","","","","","","","","","","","","feedback","Tue Oct 21 2025 06:25:26 GMT+0800 (台北標準時間)","27791","1","0","","","","","","","","","",""
"","","","","","","","","","","","preload","74","252763","0.0-74.0","","","","","true","","","","","","","","","","","preload","","","1","1","false","[]","[]","[]","","","","","",""
"","","","","","","","","","","","canvas-keyboard-response","75","253077","0.0-75.0","null","null","","","","","","","","","","","","","","fixation","","","1","1","","","","","","","","","",""
"","","","","","","","","","","","canvas-keyboard-response","76","253385","0.0-76.0","null","null","","","","","","","","","","","","","","stimulus","","","1","1","","","","","","","","","",""
"","","","","","","","","","","","canvas-button-response","77","258120","0.0-77.0","4734","car","","","","","","","","","","","","","","perceptual","","","1","1","","","","","37","bed","10","","0",""
"","","","","","","","","","","","canvas-button-response","78","259204","0.0-78.0","1083","2","","","","","","","","","","","","","","confidence","","","1","1","","","","","","","","","","1"
"","","","","","","","","","","","html-keyboard-response","79","260208","0.0-79.0","null","null","","","","","","","","","","","","","","feedback","Tue Oct 21 2025 06:25:33 GMT+0800 (台北標準時間)","27791","1","1","","","","","","","","","",""
"","","","","","","","","","","","preload","80","260209","0.0-80.0","","","","","true","","","","","","","","","","","preload","","","1","2","false","[]","[]","[]","","","","","",""
"","","","","","","","","","","","canvas-keyboard-response","81","260510","0.0-81.0","null","null","","","","","","","","","","","","","","fixation","","","1","2","","","","","","","","","",""
"","","","","","","","","","","","canvas-keyboard-response","82","260815","0.0-82.0","null","null","","","","","","","","","","","","","","stimulus","","","1","2","","","","","","","","","",""
"","","","","","","","","","","","canvas-button-response","83","261622","0.0-83.0","806","knife","","","","","","","","","","","","","","perceptual","","","1","2","","","","","97","knife","10","","1",""
"","","","","","","","","","","","canvas-button-response","84","262504","0.0-84.0","882","10","","","","","","","","","","","","","","confidence","","","1","2","","","","","","","","","","2"
"","","","","","","","","","","","html-keyboard-response","85","263519","0.0-85.0","null","null","","","","","","","","","","","","","","feedback","Tue Oct 21 2025 06:25:36 GMT+0800 (台北標準時間)","27791","1","2","","","","","","","","","",""
"","","","","","","","","","","","preload","86","263519","0.0-86.0","","","","","true","","","","","","","","","","","preload","","","1","3","false","[]","[]","[]","","","","","",""
"","","","","","","","","","","","canvas-keyboard-response","87","263824","0.0-87.0","null","null","","","","","","","","","","","","","","fixation","","","1","3","","","","","","","","","",""
"","","","","","","","","","","","canvas-keyboard-response","88","264126","0.0-88.0","null","null","","","","","","","","","","","","","","stimulus","","","1","3","","","","","","","","","",""
"","","","","","","","","","","","canvas-button-response","89","265234","0.0-89.0","1106","cat","","","","","","","","","","","","","","perceptual","","","1","3","","","","","77","cat","10","","1",""
"","","","","","","","","","","","canvas-button-response","90","265764","0.0-90.0","529","10","","","","","","","","","","","","","","confidence","","","1","3","","","","","","","","","","3"
"","","","","","","","","","","","html-keyboard-response","91","266779","0.0-91.0","null","null","","","","","","","","","","","","","","feedback","Tue Oct 21 2025 06:25:40 GMT+0800 (台北標準時間)","27791","1","3","","","","","","","","","",""
"","","","","","","","","","","","preload","92","266779","0.0-92.0","","","","","true","","","","","","","","","","","preload","","","1","4","false","[]","[]","[]","","","","","",""
"","","","","","","","","","","","canvas-keyboard-response","93","267089","0.0-93.0","null","null","","","","","","","","","","","","","","fixation","","","1","4","","","","","","","","","",""
"","","","","","","","","","","","canvas-keyboard-response","94","267399","0.0-94.0","null","null","","","","","","","","","","","","","","stimulus","","","1","4","","","","","","","","","",""
"","","","","","","","","","","","canvas-button-response","95","267955","0.0-95.0","555","train","","","","","","","","","","","","","","perceptual","","","1","4","","","","","64","train","6","","1",""
"","","","","","","","","","","","canvas-button-response","96","268414","0.0-96.0","458","10","","","","","","","","","","","","","","confidence","","","1","4","","","","","","","","","","4"
"","","","","","","","","","","","html-keyboard-response","97","269421","0.0-97.0","null","null","","","","","","","","","","","","","","feedback","Tue Oct 21 2025 06:25:42 GMT+0800 (台北標準時間)","27791","1","4","","","","","","","","","",""
"","","","","","","","","","","","preload","98","269422","0.0-98.0","","","","","true","","","","","","","","","","","preload","","","1","5","false","[]","[]","[]","","","","","",""
"","","","","","","","","","","","canvas-keyboard-response","99","269734","0.0-99.0","null","null","","","","","","","","","","","","","","fixation","","","1","5","","","","","","","","","",""
"","","","","","","","","","","","canvas-keyboard-response","100","270044","0.0-100.0","null","null","","","","","","","","","","","","","","stimulus","","","1","5","","","","","","","","","",""
"","","","","","","","","","","","canvas-button-response","101","274418","0.0-101.0","4373","bed","","","","","","","","","","","","","","perceptual","","","1","5","","","","","94","knife","6","","0",""
"","","","","","","","","","","","canvas-button-response","102","275807","0.0-102.0","1388","1","","","","","","","","","","","","","","confidence","","","1","5","","","","","","","","","","4"
"","","","","","","","","","","","html-keyboard-response","103","276816","0.0-103.0","null","null","","","","","","","","","","","","","","feedback","Tue Oct 21 2025 06:25:50 GMT+0800 (台北標準時間)","27791","1","5","","","","","","","","","",""
"","","","","","","","","","","","preload","104","276816","0.0-104.0","","","","","true","","","","","","","","","","","preload","","","1","6","false","[]","[]","[]","","","","","",""
"","","","","","","","","","","","canvas-keyboard-response","105","277124","0.0-105.0","null","null","","","","","","","","","","","","","","fixation","","","1","6","","","","","","","","","",""
"","","","","","","","","","","","canvas-keyboard-response","106","277438","0.0-106.0","null","null","","","","","","","","","","","","","","stimulus","","","1","6","","","","","","","","","",""
"","","","","","","","","","","","canvas-button-response","107","278695","0.0-107.0","1256","car","","","","","","","","","","","","","","perceptual","","","1","6","","","","","17","car","10","","1",""
"","","","","","","","","","","","canvas-button-response","108","279547","0.0-108.0","851","10","","","","","","","","","","","","","","confidence","","","1","6","","","","","","","","","","5"
"","","","","","","","","","","","html-keyboard-response","109","280549","0.0-109.0","null","null","","","","","","","","","","","","","","feedback","Tue Oct 21 2025 06:25:53 GMT+0800 (台北標準時間)","27791","1","6","","","","","","","","","",""
"","","","","","","","","","","","preload","110","280549","0.0-110.0","","","","","true","","","","","","","","","","","preload","","","1","7","false","[]","[]","[]","","","","","",""
"","","","","","","","","","","","canvas-keyboard-response","111","280860","0.0-111.0","null","null","","","","","","","","","","","","","","fixation","","","1","7","","","","","","","","","",""
"","","","","","","","","","","","canvas-keyboard-response","112","281177","0.0-112.0","null","null","","","","","","","","","","","","","","stimulus","","","1","7","","","","","","","","","",""
"","","","","","","","","","","","canvas-button-response","113","281906","0.0-113.0","728","house","","","","","","","","","","","","","","perceptual","","","1","7","","","","","4","house","6","","1",""
"","","","","","","","","","","","canvas-button-response","114","282558","0.0-114.0","651","10","","","","","","","","","","","","","","confidence","","","1","7","","","","","","","","","","6"
"","","","","","","","","","","","html-keyboard-response","115","283565","0.0-115.0","null","null","","","","","","","","","","","","","","feedback","Tue Oct 21 2025 06:25:56 GMT+0800 (台北標準時間)","27791","1","7","","","","","","","","","",""
"","","","","","","","","","","","preload","116","283565","0.0-116.0","","","","","true","","","","","","","","","","","preload","","","1","8","false","[]","[]","[]","","","","","",""
"","","","","","","","","","","","canvas-keyboard-response","117","283880","0.0-117.0","null","null","","","","","","","","","","","","","","fixation","","","1","8","","","","","","","","","",""
"","","","","","","","","","","","canvas-keyboard-response","118","284193","0.0-118.0","null","null","","","","","","","","","","","","","","stimulus","","","1","8","","","","","","","","","",""
"","","","","","","","","","","","canvas-button-response","119","284826","0.0-119.0","631","cat","","","","","","","","","","","","","","perceptual","","","1","8","","","","","74","cat","6","","1",""
"","","","","","","","","","","","canvas-button-response","120","285333","0.0-120.0","506","10","","","","","","","","","","","","","","confidence","","","1","8","","","","","","","","","","7"
"","","","","","","","","","","","html-keyboard-response","121","286335","0.0-121.0","null","null","","","","","","","","","","","","","","feedback","Tue Oct 21 2025 06:25:59 GMT+0800 (台北標準時間)","27791","1","8","","","","","","","","","",""
"","","","","","","","","","","","preload","122","286335","0.0-122.0","","","","","true","","","","","","","","","","","preload","","","1","9","false","[]","[]","[]","","","","","",""
"","","","","","","","","","","","canvas-keyboard-response","123","286637","0.0-123.0","null","null","","","","","","","","","","","","","","fixation","","","1","9","","","","","","","","","",""
"","","","","","","","","","","","canvas-keyboard-response","124","286939","0.0-124.0","null","null","","","","","","","","","","","","","","stimulus","","","1","9","","","","","","","","","",""
"","","","","","","","","","","","canvas-button-response","125","287855","0.0-125.0","915","phone","","","","","","","","","","","","","","perceptual","","","1","9","","","","","24","phone","6","","1",""
"","","","","","","","","","","","canvas-button-response","126","288376","0.0-126.0","520","10","","","","","","","","","","","","","","confidence","","","1","9","","","","","","","","","","8"
"","","","","","","","","","","","html-keyboard-response","127","289377","0.0-127.0","null","null","","","","","","","","","","","","","","feedback","Tue Oct 21 2025 06:26:02 GMT+0800 (台北標準時間)","27791","1","9","","","","","","","","","",""
"","","","","","","","","","","","preload","128","289377","0.0-128.0","","","","","true","","","","","","","","","","","preload","","","1","10","false","[]","[]","[]","","","","","",""
"","","","","","","","","","","","canvas-keyboard-response","129","289687","0.0-129.0","null","null","","","","","","","","","","","","","","fixation","","","1","10","","","","","","","","","",""
"","","","","","","","","","","","canvas-keyboard-response","130","289995","0.0-130.0","null","null","","","","","","","","","","","","","","stimulus","","","1","10","","","","","","","","","",""
"","","","","","","","","","","","canvas-button-response","131","293484","0.0-131.0","3488","bridge","","","","","","","","","","","","","","perceptual","","","1","10","","","","","27","phone","10","","0",""
"","","","","","","","","","","","canvas-button-response","132","294498","0.0-132.0","1014","0","","","","","","","","","","","","","","confidence","","","1","10","","","","","","","","","","8"
"","","","","","","","","","","","html-keyboard-response","133","295500","0.0-133.0","null","null","","","","","","","","","","","","","","feedback","Tue Oct 21 2025 06:26:08 GMT+0800 (台北標準時間)","27791","1","10","","","","","","","","","",""
"","","","","","","","","","","","preload","134","295500","0.0-134.0","","","","","true","","","","","","","","","","","preload","","","1","11","false","[]","[]","[]","","","","","",""
"","","","","","","","","","","","canvas-keyboard-response","135","295808","0.0-135.0","null","null","","","","","","","","","","","","","","fixation","","","1","11","","","","","","","","","",""
"","","","","","","","","","","","canvas-keyboard-response","136","296120","0.0-136.0","null","null","","","","","","","","","","","","","","stimulus","","","1","11","","","","","","","","","",""
"","","","","","","","","","","","canvas-button-response","137","297261","0.0-137.0","1140","flower","","","","","","","","","","","","","","perceptual","","","1","11","","","","","57","flower","10","","1",""
"","","","","","","","","","","","canvas-button-response","138","298461","0.0-138.0","1199","9","","","","","","","","","","","","","","confidence","","","1","11","","","","","","","","","","9"
"","","","","","","","","","","","html-keyboard-response","139","299466","0.0-139.0","null","null","","","","","","","","","","","","","","feedback","Tue Oct 21 2025 06:26:12 GMT+0800 (台北標準時間)","27791","1","11","","","","","","","","","",""
"","","","","","","","","","","","preload","140","299466","0.0-140.0","","","","","true","","","","","","","","","","","preload","","","1","12","false","[]","[]","[]","","","","","",""
"","","","","","","","","","","","canvas-keyboard-response","141","299779","0.0-141.0","null","null","","","","","","","","","","","","","","fixation","","","1","12","","","","","","","","","",""
"","","","","","","","","","","","canvas-keyboard-response","142","300089","0.0-142.0","null","null","","","","","","","","","","","","","","stimulus","","","1","12","","","","","","","","","",""
"","","","","","","","","","","","canvas-button-response","143","301068","0.0-143.0","978","bridge","","","","","","","","","","","","","","perceptual","","","1","12","","","","","47","bridge","10","","1",""
"","","","","","","","","","","","canvas-button-response","144","301455","0.0-144.0","387","7","","","","","","","","","","","","","","confidence","","","1","12","","","","","","","","","","10"
"","","","","","","","","","","","html-keyboard-response","145","302468","0.0-145.0","null","null","","","","","","","","","","","","","","feedback","Tue Oct 21 2025 06:26:15 GMT+0800 (台北標準時間)","27791","1","12","","","","","","","","","",""
"","","","","","","","","","","","preload","146","302468","0.0-146.0","","","","","true","","","","","","","","","","","preload","","","1","13","false","[]","[]","[]","","","","","",""
"","","","","","","","","","","","canvas-keyboard-response","147","302781","0.0-147.0","null","null","","","","","","","","","","","","","","fixation","","","1","13","","","","","","","","","",""
"","","","","","","","","","","","canvas-keyboard-response","148","303096","0.0-148.0","null","null","","","","","","","","","","","","","","stimulus","","","1","13","","","","","","","","","",""
"","","","","","","","","","","","canvas-button-response","149","303895","0.0-149.0","797","elephant","","","","","","","","","","","","","","perceptual","","","1","13","","","","","84","elephant","6","","1",""
"","","","","","","","","","","","canvas-button-response","150","304832","0.0-150.0","937","9","","","","","","","","","","","","","","confidence","","","1","13","","","","","","","","","","11"
"","","","","","","","","","","","html-keyboard-response","151","305835","0.0-151.0","null","null","","","","","","","","","","","","","","feedback","Tue Oct 21 2025 06:26:19 GMT+0800 (台北標準時間)","27791","1","13","","","","","","","","","",""
"","","","","","","","","","","","preload","152","305835","0.0-152.0","","","","","true","","","","","","","","","","","preload","","","1","14","false","[]","[]","[]","","","","","",""
"","","","","","","","","","","","canvas-keyboard-response","153","306150","0.0-153.0","null","null","","","","","","","","","","","","","","fixation","","","1","14","","","","","","","","","",""
"","","","","","","","","","","","canvas-keyboard-response","154","306462","0.0-154.0","null","null","","","","","","","","","","","","","","stimulus","","","1","14","","","","","","","","","",""
"","","","","","","","","","","","canvas-button-response","155","307389","0.0-155.0","926","bed","","","","","","","","","","","","","","perceptual","","","1","14","","","","","34","bed","6","","1",""
"","","","","","","","","","","","canvas-button-response","156","308064","0.0-156.0","675","10","","","","","","","","","","","","","","confidence","","","1","14","","","","","","","","","","12"
"","","","","","","","","","","","html-keyboard-response","157","309073","0.0-157.0","null","null","","","","","","","","","","","","","","feedback","Tue Oct 21 2025 06:26:22 GMT+0800 (台北標準時間)","27791","1","14","","","","","","","","","",""
"","","","","","","","","","","","preload","158","309073","0.0-158.0","","","","","true","","","","","","","","","","","preload","","","1","15","false","[]","[]","[]","","","","","",""
"","","","","","","","","","","","canvas-keyboard-response","159","309390","0.0-159.0","null","null","","","","","","","","","","","","","","fixation","","","1","15","","","","","","","","","",""
"","","","","","","","","","","","canvas-keyboard-response","160","309698","0.0-160.0","null","null","","","","","","","","","","","","","","stimulus","","","1","15","","","","","","","","","",""
"","","","","","","","","","","","canvas-button-response","161","310429","0.0-161.0","730","train","","","","","","","","","","","","","","perceptual","","","1","15","","","","","67","train","10","","1",""
"","","","","","","","","","","","canvas-button-response","162","310849","0.0-162.0","419","10","","","","","","","","","","","","","","confidence","","","1","15","","","","","","","","","","13"
"","","","","","","","","","","","html-keyboard-response","163","311851","0.0-163.0","null","null","","","","","","","","","","","","","","feedback","Tue Oct 21 2025 06:26:25 GMT+0800 (台北標準時間)","27791","1","15","","","","","","","","","",""
"","","","","","","","","","","","preload","164","311852","0.0-164.0","","","","","true","","","","","","","","","","","preload","","","1","16","false","[]","[]","[]","","","","","",""
"","","","","","","","","","","","canvas-keyboard-response","165","312166","0.0-165.0","null","null","","","","","","","","","","","","","","fixation","","","1","16","","","","","","","","","",""
"","","","","","","","","","","","canvas-keyboard-response","166","312474","0.0-166.0","null","null","","","","","","","","","","","","","","stimulus","","","1","16","","","","","","","","","",""
"","","","","","","","","","","","canvas-button-response","167","314977","0.0-167.0","2502","elephant","","","","","","","","","","","","","","perceptual","","","1","16","","","","","87","elephant","10","","1",""
"","","","","","","","","","","","canvas-button-response","168","315429","0.0-168.0","452","10","","","","","","","","","","","","","","confidence","","","1","16","","","","","","","","","","14"
"","","","","","","","","","","","html-keyboard-response","169","316436","0.0-169.0","null","null","","","","","","","","","","","","","","feedback","Tue Oct 21 2025 06:26:29 GMT+0800 (台北標準時間)","27791","1","16","","","","","","","","","",""
"","","","","","","","","","","","preload","170","316436","0.0-170.0","","","","","true","","","","","","","","","","","preload","","","1","17","false","[]","[]","[]","","","","","",""
"","","","","","","","","","","","canvas-keyboard-response","171","316748","0.0-171.0","null","null","","","","","","","","","","","","","","fixation","","","1","17","","","","","","","","","",""
"","","","","","","","","","","","canvas-keyboard-response","172","317052","0.0-172.0","null","null","","","","","","","","","","","","","","stimulus","","","1","17","","","","","","","","","",""
"","","","","","","","","","","","canvas-button-response","173","317862","0.0-173.0","808","flower","","","","","","","","","","","","","","perceptual","","","1","17","","","","","54","flower","6","","1",""
"","","","","","","","","","","","canvas-button-response","174","318526","0.0-174.0","663","10","","","","","","","","","","","","","","confidence","","","1","17","","","","","","","","","","15"
"","","","","","","","","","","","html-keyboard-response","175","319540","0.0-175.0","null","null","","","","","","","","","","","","","","feedback","Tue Oct 21 2025 06:26:32 GMT+0800 (台北標準時間)","27791","1","17","","","","","","","","","",""
"","","","","","","","","","","","preload","176","319540","0.0-176.0","","","","","true","","","","","","","","","","","preload","","","1","18","false","[]","[]","[]","","","","","",""
"","","","","","","","","","","","canvas-keyboard-response","177","319851","0.0-177.0","null","null","","","","","","","","","","","","","","fixation","","","1","18","","","","","","","","","",""
"","","","","","","","","","","","canvas-keyboard-response","178","320152","0.0-178.0","null","null","","","","","","","","","","","","","","stimulus","","","1","18","","","","","","","","","",""
"","","","","","","","","","","","canvas-button-response","179","322267","0.0-179.0","2113","phone","","","","","","","","","","","","","","perceptual","","","1","18","","","","","7","house","10","","0",""
"","","","","","","","","","","","canvas-button-response","180","322971","0.0-180.0","704","0","","","","","","","","","","","","","","confidence","","","1","18","","","","","","","","","","15"
"","","","","","","","","","","","html-keyboard-response","181","323972","0.0-181.0","null","null","","","","","","","","","","","","","","feedback","Tue Oct 21 2025 06:26:37 GMT+0800 (台北標準時間)","27791","1","18","","","","","","","","","",""
"","","","","","","","","","","","preload","182","323972","0.0-182.0","","","","","true","","","","","","","","","","","preload","","","1","19","false","[]","[]","[]","","","","","",""
"","","","","","","","","","","","canvas-keyboard-response","183","324273","0.0-183.0","null","null","","","","","","","","","","","","","","fixation","","","1","19","","","","","","","","","",""
"","","","","","","","","","","","canvas-keyboard-response","184","324585","0.0-184.0","null","null","","","","","","","","","","","","","","stimulus","","","1","19","","","","","","","","","",""
"","","","","","","","","","","","canvas-button-response","185","325611","0.0-185.0","1025","car","","","","","","","","","","","","","","perceptual","","","1","19","","","","","14","car","6","","1",""
"","","","","","","","","","","","canvas-button-response","186","326745","0.0-186.0","1134","10","","","","","","","","","","","","","","confidence","","","1","19","","","","","","","","","","16"
"","","","","","","","","","","","html-keyboard-response","187","327757","0.0-187.0","null","null","","","","","","","","","","","","","","feedback","Tue Oct 21 2025 06:26:41 GMT+0800 (台北標準時間)","27791","1","19","","","","","","","","","",""
"","","","","","","","","","","","html-button-response","188","341307","0.0-188.0","13549","0","","","","","","","","","","","","","","start experiment","Tue Oct 21 2025 06:26:42 GMT+0800 (台北標準時間)","27791","1","19","","","","","","","","","",""
"","","","","","","","","","","","preload","189","341307","0.0-189.0","","","","","true","","","","","","","","","","","preload","","","2","0","false","[]","[]","[]","","","","","",""
"","","","","","","","","","","","canvas-keyboard-response","190","341608","0.0-190.0","null","null","","","","","","","","","","","","","","fixation","","","2","0","","","","","","","","","",""
"","","","","","","","","","","","canvas-keyboard-response","191","341925","0.0-191.0","null","null","","","","","","","","","","","","","","stimulus","","","2","0","","","","","","","","","",""
"","","","","","","","","","","","canvas-button-response","192","342685","0.0-192.0","759","knife","","","","","","","","","","","","","","perceptual","","","2","0","","","","","380","knife","10","0","1",""
"","","","","","","","","","","","canvas-button-response","193","343368","0.0-193.0","682","10","","","","","","","","","","","","","","confidence","","","2","0","","","","","","","","","","1"
"","","","","","","","","","","","preload","194","343368","0.0-194.0","","","","","true","","","","","","","","","","","preload","","","2","1","false","[]","[]","[]","","","","","",""
"","","","","","","","","","","","canvas-keyboard-response","195","343670","0.0-195.0","null","null","","","","","","","","","","","","","","fixation","","","2","1","","","","","","","","","",""
"","","","","","","","","","","","canvas-keyboard-response","196","343985","0.0-196.0","null","null","","","","","","","","","","","","","","stimulus","","","2","1","","","","","","","","","",""
"","","","","","","","","","","","canvas-button-response","197","346587","0.0-197.0","2601","house","","","","","","","","","","","","","","perceptual","","","2","1","","","","","36","house","10","0","1",""
"","","","","","","","","","","","canvas-button-response","198","347384","0.0-198.0","795","1","","","","","","","","","","","","","","confidence","","","2","1","","","","","","","","","","2"
"","","","","","","","","","","","preload","199","347384","0.0-199.0","","","","","true","","","","","","","","","","","preload","","","2","2","false","[]","[]","[]","","","","","",""
"","","","","","","","","","","","canvas-keyboard-response","200","347686","0.0-200.0","null","null","","","","","","","","","","","","","","fixation","","","2","2","","","","","","","","","",""
"","","","","","","","","","","","canvas-keyboard-response","201","347999","0.0-201.0","null","null","","","","","","","","","","","","","","stimulus","","","2","2","","","","","","","","","",""
"","","","","","","","","","","","canvas-button-response","202","348946","0.0-202.0","946","bed","","","","","","","","","","","","","","perceptual","","","2","2","","","","","131","bed","6","0","1",""
"","","","","","","","","","","","canvas-button-response","203","349584","0.0-203.0","638","10","","","","","","","","","","","","","","confidence","","","2","2","","","","","","","","","","3"
"","","","","","","","","","","","preload","204","349585","0.0-204.0","","","","","true","","","","","","","","","","","preload","","","2","3","false","[]","[]","[]","","","","","",""
"","","","","","","","","","","","canvas-keyboard-response","205","349886","0.0-205.0","null","null","","","","","","","","","","","","","","fixation","","","2","3","","","","","","","","","",""
"","","","","","","","","","","","canvas-keyboard-response","206","350203","0.0-206.0","null","null","","","","","","","","","","","","","","stimulus","","","2","3","","","","","","","","","",""
"","","","","","","","","","","","canvas-button-response","207","351065","0.0-207.0","861","flower","","","","","","","","","","","","","","perceptual","","","2","3","","","","","219","flower","6","0","1",""
"","","","","","","","","","","","canvas-button-response","208","351701","0.0-208.0","634","10","","","","","","","","","","","","","","confidence","","","2","3","","","","","","","","","","4"
"","","","","","","","","","","","preload","209","351701","0.0-209.0","","","","","true","","","","","","","","","","","preload","","","2","4","false","[]","[]","[]","","","","","",""
"","","","","","","","","","","","canvas-keyboard-response","210","352014","0.0-210.0","null","null","","","","","","","","","","","","","","fixation","","","2","4","","","","","","","","","",""
"","","","","","","","","","","","canvas-keyboard-response","211","352328","0.0-211.0","null","null","","","","","","","","","","","","","","stimulus","","","2","4","","","","","","","","","",""
"","","","","","","","","","","","canvas-button-response","212","354286","0.0-212.0","1958","bridge","","","","","","","","","","","","","","perceptual","","","2","4","","","","","265","train","10","0","0",""
"","","","","","","","","","","","canvas-button-response","213","355047","0.0-213.0","760","1","","","","","","","","","","","","","","confidence","","","2","4","","","","","","","","","","4"
"","","","","","","","","","","","preload","214","355048","0.0-214.0","","","","","true","","","","","","","","","","","preload","","","2","5","false","[]","[]","[]","","","","","",""
"","","","","","","","","","","","canvas-keyboard-response","215","355349","0.0-215.0","null","null","","","","","","","","","","","","","","fixation","","","2","5","","","","","","","","","",""
"","","","","","","","","","","","canvas-keyboard-response","216","355661","0.0-216.0","null","null","","","","","","","","","","","","","","stimulus","","","2","5","","","","","","","","","",""
"","","","","","","","","","","","canvas-button-response","217","356442","0.0-217.0","780","bed","","","","","","","","","","","","","","perceptual","","","2","5","","","","","144","bed","10","0","1",""
"","","","","","","","","","","","canvas-button-response","218","357110","0.0-218.0","667","10","","","","","","","","","","","","","","confidence","","","2","5","","","","","","","","","","5"
"","","","","","","","","","","","preload","219","357110","0.0-219.0","","","","","true","","","","","","","","","","","preload","","","2","6","false","[]","[]","[]","","","","","",""
"","","","","","","","","","","","canvas-keyboard-response","220","357423","0.0-220.0","null","null","","","","","","","","","","","","","","fixation","","","2","6","","","","","","","","","",""
"","","","","","","","","","","","canvas-keyboard-response","221","357726","0.0-221.0","null","null","","","","","","","","","","","","","","stimulus","","","2","6","","","","","","","","","",""
"","","","","","","","","","","","canvas-button-response","222","358355","0.0-222.0","628","elephant","","","","","","","","","","","","","","perceptual","","","2","6","","","","","331","elephant","6","0","1",""
"","","","","","","","","","","","canvas-button-response","223","358727","0.0-223.0","371","10","","","","","","","","","","","","","","confidence","","","2","6","","","","","","","","","","6"
"","","","","","","","","","","","preload","224","358727","0.0-224.0","","","","","true","","","","","","","","","","","preload","","","2","7","false","[]","[]","[]","","","","","",""
"","","","","","","","","","","","canvas-keyboard-response","225","359034","0.0-225.0","null","null","","","","","","","","","","","","","","fixation","","","2","7","","","","","","","","","",""
"","","","","","","","","","","","canvas-keyboard-response","226","359346","0.0-226.0","null","null","","","","","","","","","","","","","","stimulus","","","2","7","","","","","","","","","",""
"","","","","","","","","","","","canvas-button-response","227","363124","0.0-227.0","3776","bed","","","","","","","","","","","","","","perceptual","","","2","7","","","","","142","bed","10","0","1",""
"","","","","","","","","","","","canvas-button-response","228","363790","0.0-228.0","666","1","","","","","","","","","","","","","","confidence","","","2","7","","","","","","","","","","7"
"","","","","","","","","","","","preload","229","363791","0.0-229.0","","","","","true","","","","","","","","","","","preload","","","2","8","false","[]","[]","[]","","","","","",""
"","","","","","","","","","","","canvas-keyboard-response","230","364096","0.0-230.0","null","null","","","","","","","","","","","","","","fixation","","","2","8","","","","","","","","","",""
"","","","","","","","","","","","canvas-keyboard-response","231","364398","0.0-231.0","null","null","","","","","","","","","","","","","","stimulus","","","2","8","","","","","","","","","",""
"","","","","","","","","","","","canvas-button-response","232","366095","0.0-232.0","1696","house","","","","","","","","","","","","","","perceptual","","","2","8","","","","","1","house","6","0","1",""
"","","","","","","","","","","","canvas-button-response","233","367118","0.0-233.0","1022","1","","","","","","","","","","","","","","confidence","","","2","8","","","","","","","","","","8"
"","","","","","","","","","","","preload","234","367118","0.0-234.0","","","","","true","","","","","","","","","","","preload","","","2","9","false","[]","[]","[]","","","","","",""
"","","","","","","","","","","","canvas-keyboard-response","235","367426","0.0-235.0","null","null","","","","","","","","","","","","","","fixation","","","2","9","","","","","","","","","",""
"","","","","","","","","","","","canvas-keyboard-response","236","367734","0.0-236.0","null","null","","","","","","","","","","","","","","stimulus","","","2","9","","","","","","","","","",""
"","","","","","","","","","","","canvas-button-response","237","368696","0.0-237.0","961","flower","","","","","","","","","","","","","","perceptual","","","2","9","","","","","237","flower","10","0","1",""
"","","","","","","","","","","","canvas-button-response","238","369364","0.0-238.0","667","10","","","","","","","","","","","","","","confidence","","","2","9","","","","","","","","","","9"
"","","","","","","","","","","","preload","239","369365","0.0-239.0","","","","","true","","","","","","","","","","","preload","","","2","10","false","[]","[]","[]","","","","","",""
"","","","","","","","","","","","canvas-keyboard-response","240","369668","0.0-240.0","null","null","","","","","","","","","","","","","","fixation","","","2","10","","","","","","","","","",""
"","","","","","","","","","","","canvas-keyboard-response","241","369977","0.0-241.0","null","null","","","","","","","","","","","","","","stimulus","","","2","10","","","","","","","","","",""
"","","","","","","","","","","","canvas-button-response","242","374352","0.0-242.0","4374","bed","","","","","","","","","","","","","","perceptual","","","2","10","","","","","136","bed","6","0","1",""
"","","","","","","","","","","","canvas-button-response","243","375120","0.0-243.0","768","1","","","","","","","","","","","","","","confidence","","","2","10","","","","","","","","","","10"
"","","","","","","","","","","","preload","244","375121","0.0-244.0","","","","","true","","","","","","","","","","","preload","","","2","11","false","[]","[]","[]","","","","","",""
"","","","","","","","","","","","canvas-keyboard-response","245","375430","0.0-245.0","null","null","","","","","","","","","","","","","","fixation","","","2","11","","","","","","","","","",""
"","","","","","","","","","","","canvas-keyboard-response","246","375740","0.0-246.0","null","null","","","","","","","","","","","","","","stimulus","","","2","11","","","","","","","","","",""
"","","","","","","","","","","","canvas-button-response","247","376575","0.0-247.0","834","house","","","","","","","","","","","","","","perceptual","","","2","11","","","","","17","house","6","0","1",""
"","","","","","","","","","","","canvas-button-response","248","377126","0.0-248.0","550","10","","","","","","","","","","","","","","confidence","","","2","11","","","","","","","","","","11"
"","","","","","","","","","","","preload","249","377126","0.0-249.0","","","","","true","","","","","","","","","","","preload","","","2","12","false","[]","[]","[]","","","","","",""
"","","","","","","","","","","","canvas-keyboard-response","250","377434","0.0-250.0","null","null","","","","","","","","","","","","","","fixation","","","2","12","","","","","","","","","",""
"","","","","","","","","","","","canvas-keyboard-response","251","377738","0.0-251.0","null","null","","","","","","","","","","","","","","stimulus","","","2","12","","","","","","","","","",""
"","","","","","","","","","","","canvas-button-response","252","378736","0.0-252.0","997","car","","","","","","","","","","","","","","perceptual","","","2","12","","","","","261","train","10","0","0",""
"","","","","","","","","","","","canvas-button-response","253","379342","0.0-253.0","604","10","","","","","","","","","","","","","","confidence","","","2","12","","","","","","","","","","11"
"","","","","","","","","","","","preload","254","379342","0.0-254.0","","","","","true","","","","","","","","","","","preload","","","2","13","false","[]","[]","[]","","","","","",""
"","","","","","","","","","","","canvas-keyboard-response","255","379655","0.0-255.0","null","null","","","","","","","","","","","","","","fixation","","","2","13","","","","","","","","","",""
"","","","","","","","","","","","canvas-keyboard-response","256","379964","0.0-256.0","null","null","","","","","","","","","","","","","","stimulus","","","2","13","","","","","","","","","",""
"","","","","","","","","","","","canvas-button-response","257","382022","0.0-257.0","2057","cat","","","","","","","","","","","","","","perceptual","","","2","13","","","","","109","phone","10","0","0",""
"","","","","","","","","","","","canvas-button-response","258","382685","0.0-258.0","662","1","","","","","","","","","","","","","","confidence","","","2","13","","","","","","","","","","11"
"","","","","","","","","","","","preload","259","382685","0.0-259.0","","","","","true","","","","","","","","","","","preload","","","2","14","false","[]","[]","[]","","","","","",""
"","","","","","","","","","","","canvas-keyboard-response","260","382986","0.0-260.0","null","null","","","","","","","","","","","","","","fixation","","","2","14","","","","","","","","","",""
"","","","","","","","","","","","canvas-keyboard-response","261","383288","0.0-261.0","null","null","","","","","","","","","","","","","","stimulus","","","2","14","","","","","","","","","",""
"","","","","","","","","","","","canvas-button-response","262","385796","0.0-262.0","2507","house","","","","","","","","","","","","","","perceptual","","","2","14","","","","","268","train","10","0","0",""
"","","","","","","","","","","","canvas-button-response","263","387914","0.0-263.0","2117","1","","","","","","","","","","","","","","confidence","","","2","14","","","","","","","","","","11"
"","","","","","","","","","","","preload","264","387914","0.0-264.0","","","","","true","","","","","","","","","","","preload","","","2","15","false","[]","[]","[]","","","","","",""
"","","","","","","","","","","","canvas-keyboard-response","265","388231","0.0-265.0","null","null","","","","","","","","","","","","","","fixation","","","2","15","","","","","","","","","",""
"","","","","","","","","","","","canvas-keyboard-response","266","388546","0.0-266.0","null","null","","","","","","","","","","","","","","stimulus","","","2","15","","","","","","","","","",""
"","","","","","","","","","","","canvas-button-response","267","390020","0.0-267.0","1473","phone","","","","","","","","","","","","","","perceptual","","","2","15","","","","","149","bed","10","0","0",""
"","","","","","","","","","","","canvas-button-response","268","390628","0.0-268.0","607","1","","","","","","","","","","","","","","confidence","","","2","15","","","","","","","","","","11"
"","","","","","","","","","","","preload","269","390628","0.0-269.0","","","","","true","","","","","","","","","","","preload","","","2","16","false","[]","[]","[]","","","","","",""
"","","","","","","","","","","","canvas-keyboard-response","270","390944","0.0-270.0","null","null","","","","","","","","","","","","","","fixation","","","2","16","","","","","","","","","",""
"","","","","","","","","","","","canvas-keyboard-response","271","391249","0.0-271.0","null","null","","","","","","","","","","","","","","stimulus","","","2","16","","","","","","","","","",""
"","","","","","","","","","","","canvas-button-response","272","391928","0.0-272.0","677","elephant","","","","","","","","","","","","","","perceptual","","","2","16","","","","","341","elephant","10","0","1",""
"","","","","","","","","","","","canvas-button-response","273","392255","0.0-273.0","327","10","","","","","","","","","","","","","","confidence","","","2","16","","","","","","","","","","12"
"","","","","","","","","","","","preload","274","392256","0.0-274.0","","","","","true","","","","","","","","","","","preload","","","2","17","false","[]","[]","[]","","","","","",""
"","","","","","","","","","","","canvas-keyboard-response","275","392561","0.0-275.0","null","null","","","","","","","","","","","","","","fixation","","","2","17","","","","","","","","","",""
"","","","","","","","","","","","canvas-keyboard-response","276","392863","0.0-276.0","null","null","","","","","","","","","","","","","","stimulus","","","2","17","","","","","","","","","",""
"","","","","","","","","","","","canvas-button-response","277","393770","0.0-277.0","906","train","","","","","","","","","","","","","","perceptual","","","2","17","","","","","244","train","6","0","1",""
"","","","","","","","","","","","canvas-button-response","278","394230","0.0-278.0","459","10","","","","","","","","","","","","","","confidence","","","2","17","","","","","","","","","","13"
"","","","","","","","","","","","preload","279","394231","0.0-279.0","","","","","true","","","","","","","","","","","preload","","","2","18","false","[]","[]","[]","","","","","",""
"","","","","","","","","","","","canvas-keyboard-response","280","394545","0.0-280.0","null","null","","","","","","","","","","","","","","fixation","","","2","18","","","","","","","","","",""
"","","","","","","","","","","","canvas-keyboard-response","281","394847","0.0-281.0","null","null","","","","","","","","","","","","","","stimulus","","","2","18","","","","","","","","","",""
"","","","","","","","","","","","canvas-button-response","282","396587","0.0-282.0","1739","bridge","","","","","","","","","","","","","","perceptual","","","2","18","","","","","100","phone","10","0","0",""
"","","","","","","","","","","","canvas-button-response","283","398512","0.0-283.0","1924","0","","","","","","","","","","","","","","confidence","","","2","18","","","","","","","","","","13"
"","","","","","","","","","","","preload","284","398512","0.0-284.0","","","","","true","","","","","","","","","","","preload","","","2","19","false","[]","[]","[]","","","","","",""
"","","","","","","","","","","","canvas-keyboard-response","285","398814","0.0-285.0","null","null","","","","","","","","","","","","","","fixation","","","2","19","","","","","","","","","",""
"","","","","","","","","","","","canvas-keyboard-response","286","399115","0.0-286.0","null","null","","","","","","","","","","","","","","stimulus","","","2","19","","","","","","","","","",""
"","","","","","","","","","","","canvas-button-response","287","404669","0.0-287.0","5553","cat","","","","","","","","","","","","","","perceptual","","","2","19","","","","","98","phone","6","0","0",""
"","","","","","","","","","","","canvas-button-response","288","406406","0.0-288.0","1736","0","","","","","","","","","","","","","","confidence","","","2","19","","","","","","","","","","13"
"","","","","","","","","","","","preload","289","406406","0.0-289.0","","","","","true","","","","","","","","","","","preload","","","2","20","false","[]","[]","[]","","","","","",""
"","","","","","","","","","","","canvas-keyboard-response","290","406709","0.0-290.0","null","null","","","","","","","","","","","","","","fixation","","","2","20","","","","","","","","","",""
"","","","","","","","","","","","canvas-keyboard-response","291","407021","0.0-291.0","null","null","","","","","","","","","","","","","","stimulus","","","2","20","","","","","","","","","",""
"","","","","","","","","","","","canvas-button-response","292","407768","0.0-292.0","746","cat","","","","","","","","","","","","","","perceptual","","","2","20","","","","","308","cat","10","0","1",""
"","","","","","","","","","","","canvas-button-response","293","408268","0.0-293.0","499","10","","","","","","","","","","","","","","confidence","","","2","20","","","","","","","","","","14"
"","","","","","","","","","","","preload","294","408268","0.0-294.0","","","","","true","","","","","","","","","","","preload","","","2","21","false","[]","[]","[]","","","","","",""
"","","","","","","","","","","","canvas-keyboard-response","295","408579","0.0-295.0","null","null","","","","","","","","","","","","","","fixation","","","2","21","","","","","","","","","",""
"","","","","","","","","","","","canvas-keyboard-response","296","408892","0.0-296.0","null","null","","","","","","","","","","","","","","stimulus","","","2","21","","","","","","","","","",""
"","","","","","","","","","","","canvas-button-response","297","409727","0.0-297.0","834","elephant","","","","","","","","","","","","","","perceptual","","","2","21","","","","","319","cat","10","0","0",""
"","","","","","","","","","","","canvas-button-response","298","410206","0.0-298.0","478","10","","","","","","","","","","","","","","confidence","","","2","21","","","","","","","","","","14"
"","","","","","","","","","","","preload","299","410207","0.0-299.0","","","","","true","","","","","","","","","","","preload","","","2","22","false","[]","[]","[]","","","","","",""
"","","","","","","","","","","","canvas-keyboard-response","300","410511","0.0-300.0","null","null","","","","","","","","","","","","","","fixation","","","2","22","","","","","","","","","",""
"","","","","","","","","","","","canvas-keyboard-response","301","410822","0.0-301.0","null","null","","","","","","","","","","","","","","stimulus","","","2","22","","","","","","","","","",""
"","","","","","","","","","","","canvas-button-response","302","411436","0.0-302.0","614","elephant","","","","","","","","","","","","","","perceptual","","","2","22","","","","","28","house","10","0","0",""
"","","","","","","","","","","","canvas-button-response","303","411836","0.0-303.0","399","10","","","","","","","","","","","","","","confidence","","","2","22","","","","","","","","","","14"
"","","","","","","","","","","","preload","304","411836","0.0-304.0","","","","","true","","","","","","","","","","","preload","","","2","23","false","[]","[]","[]","","","","","",""
"","","","","","","","","","","","canvas-keyboard-response","305","412147","0.0-305.0","null","null","","","","","","","","","","","","","","fixation","","","2","23","","","","","","","","","",""
"","","","","","","","","","","","canvas-keyboard-response","306","412457","0.0-306.0","null","null","","","","","","","","","","","","","","stimulus","","","2","23","","","","","","","","","",""
"","","","","","","","","","","","canvas-button-response","307","413295","0.0-307.0","836","flower","","","","","","","","","","","","","","perceptual","","","2","23","","","","","232","flower","10","0","1",""
"","","","","","","","","","","","canvas-button-response","308","413961","0.0-308.0","665","10","","","","","","","","","","","","","","confidence","","","2","23","","","","","","","","","","15"
"","","","","","","","","","","","preload","309","413962","0.0-309.0","","","","","true","","","","","","","","","","","preload","","","2","24","false","[]","[]","[]","","","","","",""
"","","","","","","","","","","","canvas-keyboard-response","310","414276","0.0-310.0","null","null","","","","","","","","","","","","","","fixation","","","2","24","","","","","","","","","",""
"","","","","","","","","","","","canvas-keyboard-response","311","414577","0.0-311.0","null","null","","","","","","","","","","","","","","stimulus","","","2","24","","","","","","","","","",""
"","","","","","","","","","","","canvas-button-response","312","415224","0.0-312.0","646","knife","","","","","","","","","","","","","","perceptual","","","2","24","","","","","394","knife","10","0","1",""
"","","","","","","","","","","","canvas-button-response","313","415688","0.0-313.0","462","10","","","","","","","","","","","","","","confidence","","","2","24","","","","","","","","","","16"
"","","","","","","","","","","","preload","314","415688","0.0-314.0","","","","","true","","","","","","","","","","","preload","","","2","25","false","[]","[]","[]","","","","","",""
"","","","","","","","","","","","canvas-keyboard-response","315","415999","0.0-315.0","null","null","","","","","","","","","","","","","","fixation","","","2","25","","","","","","","","","",""
"","","","","","","","","","","","canvas-keyboard-response","316","416307","0.0-316.0","null","null","","","","","","","","","","","","","","stimulus","","","2","25","","","","","","","","","",""
"","","","","","","","","","","","canvas-button-response","317","417476","0.0-317.0","1167","flower","","","","","","","","","","","","","","perceptual","","","2","25","","","","","125","bed","6","0","0",""
"","","","","","","","","","","","canvas-button-response","318","418420","0.0-318.0","944","10","","","","","","","","","","","","","","confidence","","","2","25","","","","","","","","","","16"
"","","","","","","","","","","","preload","319","418421","0.0-319.0","","","","","true","","","","","","","","","","","preload","","","2","26","false","[]","[]","[]","","","","","",""
"","","","","","","","","","","","canvas-keyboard-response","320","418728","0.0-320.0","null","null","","","","","","","","","","","","","","fixation","","","2","26","","","","","","","","","",""
"","","","","","","","","","","","canvas-keyboard-response","321","419036","0.0-321.0","null","null","","","","","","","","","","","","","","stimulus","","","2","26","","","","","","","","","",""
"","","","","","","","","","","","canvas-button-response","322","419571","0.0-322.0","534","elephant","","","","","","","","","","","","","","perceptual","","","2","26","","","","","333","elephant","6","0","1",""
"","","","","","","","","","","","canvas-button-response","323","419974","0.0-323.0","403","10","","","","","","","","","","","","","","confidence","","","2","26","","","","","","","","","","17"
"","","","","","","","","","","","preload","324","419975","0.0-324.0","","","","","true","","","","","","","","","","","preload","","","2","27","false","[]","[]","[]","","","","","",""
"","","","","","","","","","","","canvas-keyboard-response","325","420288","0.0-325.0","null","null","","","","","","","","","","","","","","fixation","","","2","27","","","","","","","","","",""
"","","","","","","","","","","","canvas-keyboard-response","326","420596","0.0-326.0","null","null","","","","","","","","","","","","","","stimulus","","","2","27","","","","","","","","","",""
"","","","","","","","","","","","canvas-button-response","327","421293","0.0-327.0","695","cat","","","","","","","","","","","","","","perceptual","","","2","27","","","","","148","bed","10","0","0",""
"","","","","","","","","","","","canvas-button-response","328","421972","0.0-328.0","679","10","","","","","","","","","","","","","","confidence","","","2","27","","","","","","","","","","17"
"","","","","","","","","","","","preload","329","421973","0.0-329.0","","","","","true","","","","","","","","","","","preload","","","2","28","false","[]","[]","[]","","","","","",""
"","","","","","","","","","","","canvas-keyboard-response","330","422287","0.0-330.0","null","null","","","","","","","","","","","","","","fixation","","","2","28","","","","","","","","","",""
"","","","","","","","","","","","canvas-keyboard-response","331","422592","0.0-331.0","null","null","","","","","","","","","","","","","","stimulus","","","2","28","","","","","","","","","",""
"","","","","","","","","","","","canvas-button-response","332","423750","0.0-332.0","1157","car","","","","","","","","","","","","","","perceptual","","","2","28","","","","","42","car","6","0","1",""
"","","","","","","","","","","","canvas-button-response","333","424295","0.0-333.0","544","10","","","","","","","","","","","","","","confidence","","","2","28","","","","","","","","","","18"
"","","","","","","","","","","","preload","334","424295","0.0-334.0","","","","","true","","","","","","","","","","","preload","","","2","29","false","[]","[]","[]","","","","","",""
"","","","","","","","","","","","canvas-keyboard-response","335","424609","0.0-335.0","null","null","","","","","","","","","","","","","","fixation","","","2","29","","","","","","","","","",""
"","","","","","","","","","","","canvas-keyboard-response","336","424910","0.0-336.0","null","null","","","","","","","","","","","","","","stimulus","","","2","29","","","","","","","","","",""
"","","","","","","","","","","","canvas-button-response","337","427183","0.0-337.0","2272","phone","","","","","","","","","","","","","","perceptual","","","2","29","","","","","325","elephant","6","0","0",""
"","","","","","","","","","","","canvas-button-response","338","428184","0.0-338.0","1000","1","","","","","","","","","","","","","","confidence","","","2","29","","","","","","","","","","18"
"","","","","","","","","","","","preload","339","428185","0.0-339.0","","","","","true","","","","","","","","","","","preload","","","2","30","false","[]","[]","[]","","","","","",""
"","","","","","","","","","","","canvas-keyboard-response","340","428490","0.0-340.0","null","null","","","","","","","","","","","","","","fixation","","","2","30","","","","","","","","","",""
"","","","","","","","","","","","canvas-keyboard-response","341","428796","0.0-341.0","null","null","","","","","","","","","","","","","","stimulus","","","2","30","","","","","","","","","",""
"","","","","","","","","","","","canvas-button-response","342","429739","0.0-342.0","942","phone","","","","","","","","","","","","","","perceptual","","","2","30","","","","","86","phone","6","0","1",""
"","","","","","","","","","","","canvas-button-response","343","430907","0.0-343.0","1167","10","","","","","","","","","","","","","","confidence","","","2","30","","","","","","","","","","19"
"","","","","","","","","","","","preload","344","430907","0.0-344.0","","","","","true","","","","","","","","","","","preload","","","2","31","false","[]","[]","[]","","","","","",""
"","","","","","","","","","","","canvas-keyboard-response","345","431212","0.0-345.0","null","null","","","","","","","","","","","","","","fixation","","","2","31","","","","","","","","","",""
"","","","","","","","","","","","canvas-keyboard-response","346","431520","0.0-346.0","null","null","","","","","","","","","","","","","","stimulus","","","2","31","","","","","","","","","",""
"","","","","","","","","","","","canvas-button-response","347","432442","0.0-347.0","921","flower","","","","","","","","","","","","","","perceptual","","","2","31","","","","","200","flower","6","0","1",""
"","","","","","","","","","","","canvas-button-response","348","433081","0.0-348.0","638","10","","","","","","","","","","","","","","confidence","","","2","31","","","","","","","","","","20"
"","","","","","","","","","","","preload","349","433081","0.0-349.0","","","","","true","","","","","","","","","","","preload","","","2","32","false","[]","[]","[]","","","","","",""
"","","","","","","","","","","","canvas-keyboard-response","350","433386","0.0-350.0","null","null","","","","","","","","","","","","","","fixation","","","2","32","","","","","","","","","",""
"","","","","","","","","","","","canvas-keyboard-response","351","433690","0.0-351.0","null","null","","","","","","","","","","","","","","stimulus","","","2","32","","","","","","","","","",""
"","","","","","","","","","","","canvas-button-response","352","436700","0.0-352.0","3009","bridge","","","","","","","","","","","","","","perceptual","","","2","32","","","","","263","train","10","0","0",""
"","","","","","","","","","","","canvas-button-response","353","437436","0.0-353.0","735","1","","","","","","","","","","","","","","confidence","","","2","32","","","","","","","","","","20"
"","","","","","","","","","","","preload","354","437436","0.0-354.0","","","","","true","","","","","","","","","","","preload","","","2","33","false","[]","[]","[]","","","","","",""
"","","","","","","","","","","","canvas-keyboard-response","355","437749","0.0-355.0","null","null","","","","","","","","","","","","","","fixation","","","2","33","","","","","","","","","",""
"","","","","","","","","","","","canvas-keyboard-response","356","438065","0.0-356.0","null","null","","","","","","","","","","","","","","stimulus","","","2","33","","","","","","","","","",""
"","","","","","","","","","","","canvas-button-response","357","439217","0.0-357.0","1151","bridge","","","","","","","","","","","","","","perceptual","","","2","33","","","","","170","bridge","6","0","1",""
"","","","","","","","","","","","canvas-button-response","358","440363","0.0-358.0","1145","10","","","","","","","","","","","","","","confidence","","","2","33","","","","","","","","","","21"
"","","","","","","","","","","","preload","359","440363","0.0-359.0","","","","","true","","","","","","","","","","","preload","","","2","34","false","[]","[]","[]","","","","","",""
"","","","","","","","","","","","canvas-keyboard-response","360","440667","0.0-360.0","null","null","","","","","","","","","","","","","","fixation","","","2","34","","","","","","","","","",""
"","","","","","","","","","","","canvas-keyboard-response","361","440971","0.0-361.0","null","null","","","","","","","","","","","","","","stimulus","","","2","34","","","","","","","","","",""
"","","","","","","","","","","","canvas-button-response","362","441688","0.0-362.0","716","knife","","","","","","","","","","","","","","perceptual","","","2","34","","","","","379","knife","6","0","1",""
"","","","","","","","","","","","canvas-button-response","363","442439","0.0-363.0","750","10","","","","","","","","","","","","","","confidence","","","2","34","","","","","","","","","","22"
"","","","","","","","","","","","preload","364","442439","0.0-364.0","","","","","true","","","","","","","","","","","preload","","","2","35","false","[]","[]","[]","","","","","",""
"","","","","","","","","","","","canvas-keyboard-response","365","442747","0.0-365.0","null","null","","","","","","","","","","","","","","fixation","","","2","35","","","","","","","","","",""
"","","","","","","","","","","","canvas-keyboard-response","366","443054","0.0-366.0","null","null","","","","","","","","","","","","","","stimulus","","","2","35","","","","","","","","","",""
"","","","","","","","","","","","canvas-button-response","367","444102","0.0-367.0","1046","train","","","","","","","","","","","","","","perceptual","","","2","35","","","","","253","train","6","0","1",""
"","","","","","","","","","","","canvas-button-response","368","444509","0.0-368.0","407","10","","","","","","","","","","","","","","confidence","","","2","35","","","","","","","","","","23"
"","","","","","","","","","","","preload","369","444510","0.0-369.0","","","","","true","","","","","","","","","","","preload","","","2","36","false","[]","[]","[]","","","","","",""
"","","","","","","","","","","","canvas-keyboard-response","370","444822","0.0-370.0","null","null","","","","","","","","","","","","","","fixation","","","2","36","","","","","","","","","",""
"","","","","","","","","","","","canvas-keyboard-response","371","445137","0.0-371.0","null","null","","","","","","","","","","","","","","stimulus","","","2","36","","","","","","","","","",""
"","","","","","","","","","","","canvas-button-response","372","446031","0.0-372.0","892","cat","","","","","","","","","","","","","","perceptual","","","2","36","","","","","297","cat","6","0","1",""
"","","","","","","","","","","","canvas-button-response","373","446506","0.0-373.0","474","10","","","","","","","","","","","","","","confidence","","","2","36","","","","","","","","","","24"
"","","","","","","","","","","","preload","374","446506","0.0-374.0","","","","","true","","","","","","","","","","","preload","","","2","37","false","[]","[]","[]","","","","","",""
"","","","","","","","","","","","canvas-keyboard-response","375","446814","0.0-375.0","null","null","","","","","","","","","","","","","","fixation","","","2","37","","","","","","","","","",""
"","","","","","","","","","","","canvas-keyboard-response","376","447117","0.0-376.0","null","null","","","","","","","","","","","","","","stimulus","","","2","37","","","","","","","","","",""
"","","","","","","","","","","","canvas-button-response","377","449071","0.0-377.0","1953","cat","","","","","","","","","","","","","","perceptual","","","2","37","","","","","332","elephant","6","0","0",""
"","","","","","","","","","","","canvas-button-response","378","449855","0.0-378.0","783","1","","","","","","","","","","","","","","confidence","","","2","37","","","","","","","","","","24"
"","","","","","","","","","","","preload","379","449855","0.0-379.0","","","","","true","","","","","","","","","","","preload","","","2","38","false","[]","[]","[]","","","","","",""
"","","","","","","","","","","","canvas-keyboard-response","380","450170","0.0-380.0","null","null","","","","","","","","","","","","","","fixation","","","2","38","","","","","","","","","",""
"","","","","","","","","","","","canvas-keyboard-response","381","450483","0.0-381.0","null","null","","","","","","","","","","","","","","stimulus","","","2","38","","","","","","","","","",""
"","","","","","","","","","","","canvas-button-response","382","451474","0.0-382.0","990","elephant","","","","","","","","","","","","","","perceptual","","","2","38","","","","","343","elephant","10","0","1",""
"","","","","","","","","","","","canvas-button-response","383","451918","0.0-383.0","443","10","","","","","","","","","","","","","","confidence","","","2","38","","","","","","","","","","25"
"","","","","","","","","","","","preload","384","451919","0.0-384.0","","","","","true","","","","","","","","","","","preload","","","2","39","false","[]","[]","[]","","","","","",""
"","","","","","","","","","","","canvas-keyboard-response","385","452227","0.0-385.0","null","null","","","","","","","","","","","","","","fixation","","","2","39","","","","","","","","","",""
"","","","","","","","","","","","canvas-keyboard-response","386","452542","0.0-386.0","null","null","","","","","","","","","","","","","","stimulus","","","2","39","","","","","","","","","",""
"","","","","","","","","","","","canvas-button-response","387","453284","0.0-387.0","741","bridge","","","","","","","","","","","","","","perceptual","","","2","39","","","","","178","bridge","6","0","1",""
"","","","","","","","","","","","canvas-button-response","388","454056","0.0-388.0","771","10","","","","","","","","","","","","","","confidence","","","2","39","","","","","","","","","","26"
"","","","","","","","","","","","preload","389","454056","0.0-389.0","","","","","true","","","","","","","","","","","preload","","","2","40","false","[]","[]","[]","","","","","",""
"","","","","","","","","","","","canvas-keyboard-response","390","454372","0.0-390.0","null","null","","","","","","","","","","","","","","fixation","","","2","40","","","","","","","","","",""
"","","","","","","","","","","","canvas-keyboard-response","391","454689","0.0-391.0","null","null","","","","","","","","","","","","","","stimulus","","","2","40","","","","","","","","","",""
"","","","","","","","","","","","canvas-button-response","392","455785","0.0-392.0","1095","car","","","","","","","","","","","","","","perceptual","","","2","40","","","","","364","knife","6","0","0",""
"","","","","","","","","","","","canvas-button-response","393","457022","0.0-393.0","1236","1","","","","","","","","","","","","","","confidence","","","2","40","","","","","","","","","","26"
"","","","","","","","","","","","preload","394","457022","0.0-394.0","","","","","true","","","","","","","","","","","preload","","","2","41","false","[]","[]","[]","","","","","",""
"","","","","","","","","","","","canvas-keyboard-response","395","457330","0.0-395.0","null","null","","","","","","","","","","","","","","fixation","","","2","41","","","","","","","","","",""
"","","","","","","","","","","","canvas-keyboard-response","396","457633","0.0-396.0","null","null","","","","","","","","","","","","","","stimulus","","","2","41","","","","","","","","","",""
"","","","","","","","","","","","canvas-button-response","397","458659","0.0-397.0","1025","house","","","","","","","","","","","","","","perceptual","","","2","41","","","","","26","house","10","0","1",""
"","","","","","","","","","","","canvas-button-response","398","459306","0.0-398.0","646","10","","","","","","","","","","","","","","confidence","","","2","41","","","","","","","","","","27"
"","","","","","","","","","","","preload","399","459306","0.0-399.0","","","","","true","","","","","","","","","","","preload","","","2","42","false","[]","[]","[]","","","","","",""
"","","","","","","","","","","","canvas-keyboard-response","400","459622","0.0-400.0","null","null","","","","","","","","","","","","","","fixation","","","2","42","","","","","","","","","",""
"","","","","","","","","","","","canvas-keyboard-response","401","459930","0.0-401.0","null","null","","","","","","","","","","","","","","stimulus","","","2","42","","","","","","","","","",""
"","","","","","","","","","","","canvas-button-response","402","460648","0.0-402.0","717","knife","","","","","","","","","","","","","","perceptual","","","2","42","","","","","366","knife","6","0","1",""
"","","","","","","","","","","","canvas-button-response","403","461246","0.0-403.0","596","10","","","","","","","","","","","","","","confidence","","","2","42","","","","","","","","","","28"
"","","","","","","","","","","","preload","404","461246","0.0-404.0","","","","","true","","","","","","","","","","","preload","","","2","43","false","[]","[]","[]","","","","","",""
"","","","","","","","","","","","canvas-keyboard-response","405","461562","0.0-405.0","null","null","","","","","","","","","","","","","","fixation","","","2","43","","","","","","","","","",""
"","","","","","","","","","","","canvas-keyboard-response","406","461880","0.0-406.0","null","null","","","","","","","","","","","","","","stimulus","","","2","43","","","","","","","","","",""
"","","","","","","","","","","","canvas-button-response","407","463428","0.0-407.0","1547","bed","","","","","","","","","","","","","","perceptual","","","2","43","","","","","106","phone","10","0","0",""
"","","","","","","","","","","","canvas-button-response","408","464137","0.0-408.0","707","1","","","","","","","","","","","","","","confidence","","","2","43","","","","","","","","","","28"
"","","","","","","","","","","","preload","409","464137","0.0-409.0","","","","","true","","","","","","","","","","","preload","","","2","44","false","[]","[]","[]","","","","","",""
"","","","","","","","","","","","canvas-keyboard-response","410","464452","0.0-410.0","null","null","","","","","","","","","","","","","","fixation","","","2","44","","","","","","","","","",""
"","","","","","","","","","","","canvas-keyboard-response","411","464764","0.0-411.0","null","null","","","","","","","","","","","","","","stimulus","","","2","44","","","","","","","","","",""
"","","","","","","","","","","","canvas-button-response","412","465415","0.0-412.0","650","knife","","","","","","","","","","","","","","perceptual","","","2","44","","","","","390","knife","10","0","1",""
"","","","","","","","","","","","canvas-button-response","413","465941","0.0-413.0","525","10","","","","","","","","","","","","","","confidence","","","2","44","","","","","","","","","","29"
"","","","","","","","","","","","preload","414","465941","0.0-414.0","","","","","true","","","","","","","","","","","preload","","","2","45","false","[]","[]","[]","","","","","",""
"","","","","","","","","","","","canvas-keyboard-response","415","466248","0.0-415.0","null","null","","","","","","","","","","","","","","fixation","","","2","45","","","","","","","","","",""
"","","","","","","","","","","","canvas-keyboard-response","416","466558","0.0-416.0","null","null","","","","","","","","","","","","","","stimulus","","","2","45","","","","","","","","","",""
"","","","","","","","","","","","canvas-button-response","417","467335","0.0-417.0","776","phone","","","","","","","","","","","","","","perceptual","","","2","45","","","","","218","flower","6","0","0",""
"","","","","","","","","","","","canvas-button-response","418","468353","0.0-418.0","1016","1","","","","","","","","","","","","","","confidence","","","2","45","","","","","","","","","","29"
"","","","","","","","","","","","preload","419","468353","0.0-419.0","","","","","true","","","","","","","","","","","preload","","","2","46","false","[]","[]","[]","","","","","",""
"","","","","","","","","","","","canvas-keyboard-response","420","468661","0.0-420.0","null","null","","","","","","","","","","","","","","fixation","","","2","46","","","","","","","","","",""
"","","","","","","","","","","","canvas-keyboard-response","421","468967","0.0-421.0","null","null","","","","","","","","","","","","","","stimulus","","","2","46","","","","","","","","","",""
"","","","","","","","","","","","canvas-button-response","422","469889","0.0-422.0","920","flower","","","","","","","","","","","","","","perceptual","","","2","46","","","","","209","flower","6","0","1",""
"","","","","","","","","","","","canvas-button-response","423","470627","0.0-423.0","737","10","","","","","","","","","","","","","","confidence","","","2","46","","","","","","","","","","30"
"","","","","","","","","","","","preload","424","470627","0.0-424.0","","","","","true","","","","","","","","","","","preload","","","2","47","false","[]","[]","[]","","","","","",""
"","","","","","","","","","","","canvas-keyboard-response","425","470934","0.0-425.0","null","null","","","","","","","","","","","","","","fixation","","","2","47","","","","","","","","","",""
"","","","","","","","","","","","canvas-keyboard-response","426","471246","0.0-426.0","null","null","","","","","","","","","","","","","","stimulus","","","2","47","","","","","","","","","",""
"","","","","","","","","","","","canvas-button-response","427","476963","0.0-427.0","5715","house","","","","","","","","","","","","","","perceptual","","","2","47","","","","","318","cat","10","0","0",""
"","","","","","","","","","","","canvas-button-response","428","478468","0.0-428.0","1505","0","","","","","","","","","","","","","","confidence","","","2","47","","","","","","","","","","30"
"","","","","","","","","","","","preload","429","478469","0.0-429.0","","","","","true","","","","","","","","","","","preload","","","2","48","false","[]","[]","[]","","","","","",""
"","","","","","","","","","","","canvas-keyboard-response","430","478770","0.0-430.0","null","null","","","","","","","","","","","","","","fixation","","","2","48","","","","","","","","","",""
"","","","","","","","","","","","canvas-keyboard-response","431","479074","0.0-431.0","null","null","","","","","","","","","","","","","","stimulus","","","2","48","","","","","","","","","",""
"","","","","","","","","","","","canvas-button-response","432","480538","0.0-432.0","1463","elephant","","","","","","","","","","","","","","perceptual","","","2","48","","","","","294","cat","6","0","0",""
"","","","","","","","","","","","canvas-button-response","433","481200","0.0-433.0","661","0","","","","","","","","","","","","","","confidence","","","2","48","","","","","","","","","","30"
"","","","","","","","","","","","preload","434","481200","0.0-434.0","","","","","true","","","","","","","","","","","preload","","","2","49","false","[]","[]","[]","","","","","",""
"","","","","","","","","","","","canvas-keyboard-response","435","481516","0.0-435.0","null","null","","","","","","","","","","","","","","fixation","","","2","49","","","","","","","","","",""
"","","","","","","","","","","","canvas-keyboard-response","436","481829","0.0-436.0","null","null","","","","","","","","","","","","","","stimulus","","","2","49","","","","","","","","","",""
"","","","","","","","","","","","canvas-button-response","437","485669","0.0-437.0","3839","house","","","","","","","","","","","","","","perceptual","","","2","49","","","","","146","bed","10","0","0",""
"","","","","","","","","","","","canvas-button-response","438","486679","0.0-438.0","1009","1","","","","","","","","","","","","","","confidence","","","2","49","","","","","","","","","","30"
"","","","","","","","","","","","html-button-response","439","534952","0.0-439.0","48272","0","","","","","","","","","","","","","","<p style=""font-size:20px;color:#000000"">You got 30 out of 50 trials correct in this block.<br><br>You have completed 6% of the experiment.<br><br>Take a short break.<br><br>When you are ready, click Continue to proceed.","","","2","49","","","","","","","","","",""
"","","","","","","","","","","","html-keyboard-response","440","535968","0.0-440.0","null","null","","","","","","","","","","","","","","<p style=""font-size:32px;color:#000000""><br><br> RUN: &nbsp 1/4 <br><br> BLOCK: 2/4 ","","","2","49","","","","","","","","","",""
"","","","","","","","","","","","preload","441","535968","0.0-441.0","","","","","true","","","","","","","","","","","preload","","","2","50","false","[]","[]","[]","","","","","",""
"","","","","","","","","","","","canvas-keyboard-response","442","536269","0.0-442.0","null","null","","","","","","","","","","","","","","fixation","","","2","50","","","","","","","","","",""
"","","","","","","","","","","","canvas-keyboard-response","443","536577","0.0-443.0","null","null","","","","","","","","","","","","","","stimulus","","","2","50","","","","","","","","","",""
"","","","","","","","","","","","canvas-button-response","444","537223","0.0-444.0","645","elephant","","","","","","","","","","","","","","perceptual","","","2","50","","","","","324","elephant","6","0","1",""
"","","","","","","","","","","","canvas-button-response","445","537702","0.0-445.0","478","10","","","","","","","","","","","","","","confidence","","","2","50","","","","","","","","","","1"
"","","","","","","","","","","","preload","446","537703","0.0-446.0","","","","","true","","","","","","","","","","","preload","","","2","51","false","[]","[]","[]","","","","","",""
"","","","","","","","","","","","canvas-keyboard-response","447","538009","0.0-447.0","null","null","","","","","","","","","","","","","","fixation","","","2","51","","","","","","","","","",""
"","","","","","","","","","","","canvas-keyboard-response","448","538311","0.0-448.0","null","null","","","","","","","","","","","","","","stimulus","","","2","51","","","","","","","","","",""
"","","","","","","","","","","","canvas-button-response","449","540857","0.0-449.0","2545","bridge","","","","","","","","","","","","","","perceptual","","","2","51","","","","","198","bridge","10","0","1",""
"","","","","","","","","","","","canvas-button-response","450","541785","0.0-450.0","928","1","","","","","","","","","","","","","","confidence","","","2","51","","","","","","","","","","2"
"","","","","","","","","","","","preload","451","541786","0.0-451.0","","","","","true","","","","","","","","","","","preload","","","2","52","false","[]","[]","[]","","","","","",""
"","","","","","","","","","","","canvas-keyboard-response","452","542086","0.0-452.0","null","null","","","","","","","","","","","","","","fixation","","","2","52","","","","","","","","","",""
"","","","","","","","","","","","canvas-keyboard-response","453","542387","0.0-453.0","null","null","","","","","","","","","","","","","","stimulus","","","2","52","","","","","","","","","",""
"","","","","","","","","","","","canvas-button-response","454","545010","0.0-454.0","2622","phone","","","","","","","","","","","","","","perceptual","","","2","52","","","","","130","bed","6","0","0",""
"","","","","","","","","","","","canvas-button-response","455","545597","0.0-455.0","586","1","","","","","","","","","","","","","","confidence","","","2","52","","","","","","","","","","2"
"","","","","","","","","","","","preload","456","545598","0.0-456.0","","","","","true","","","","","","","","","","","preload","","","2","53","false","[]","[]","[]","","","","","",""
"","","","","","","","","","","","canvas-keyboard-response","457","545901","0.0-457.0","null","null","","","","","","","","","","","","","","fixation","","","2","53","","","","","","","","","",""
"","","","","","","","","","","","canvas-keyboard-response","458","546210","0.0-458.0","null","null","","","","","","","","","","","","","","stimulus","","","2","53","","","","","","","","","",""
"","","","","","","","","","","","canvas-button-response","459","546917","0.0-459.0","706","elephant","","","","","","","","","","","","","","perceptual","","","2","53","","","","","349","elephant","10","0","1",""
"","","","","","","","","","","","canvas-button-response","460","547404","0.0-460.0","486","10","","","","","","","","","","","","","","confidence","","","2","53","","","","","","","","","","3"
"","","","","","","","","","","","preload","461","547404","0.0-461.0","","","","","true","","","","","","","","","","","preload","","","2","54","false","[]","[]","[]","","","","","",""
"","","","","","","","","","","","canvas-keyboard-response","462","547719","0.0-462.0","null","null","","","","","","","","","","","","","","fixation","","","2","54","","","","","","","","","",""
"","","","","","","","","","","","canvas-keyboard-response","463","548035","0.0-463.0","null","null","","","","","","","","","","","","","","stimulus","","","2","54","","","","","","","","","",""
"","","","","","","","","","","","canvas-button-response","464","548940","0.0-464.0","905","train","","","","","","","","","","","","","","perceptual","","","2","54","","","","","173","bridge","6","0","0",""
"","","","","","","","","","","","canvas-button-response","465","549401","0.0-465.0","460","10","","","","","","","","","","","","","","confidence","","","2","54","","","","","","","","","","3"
"","","","","","","","","","","","preload","466","549402","0.0-466.0","","","","","true","","","","","","","","","","","preload","","","2","55","false","[]","[]","[]","","","","","",""
"","","","","","","","","","","","canvas-keyboard-response","467","549711","0.0-467.0","null","null","","","","","","","","","","","","","","fixation","","","2","55","","","","","","","","","",""
"","","","","","","","","","","","canvas-keyboard-response","468","550028","0.0-468.0","null","null","","","","","","","","","","","","","","stimulus","","","2","55","","","","","","","","","",""
"","","","","","","","","","","","canvas-button-response","469","551107","0.0-469.0","1079","car","","","","","","","","","","","","","","perceptual","","","2","55","","","","","248","train","6","0","0",""
"","","","","","","","","","","","canvas-button-response","470","551610","0.0-470.0","501","9","","","","","","","","","","","","","","confidence","","","2","55","","","","","","","","","","3"
"","","","","","","","","","","","preload","471","551610","0.0-471.0","","","","","true","","","","","","","","","","","preload","","","2","56","false","[]","[]","[]","","","","","",""
"","","","","","","","","","","","canvas-keyboard-response","472","551925","0.0-472.0","null","null","","","","","","","","","","","","","","fixation","","","2","56","","","","","","","","","",""
"","","","","","","","","","","","canvas-keyboard-response","473","552232","0.0-473.0","null","null","","","","","","","","","","","","","","stimulus","","","2","56","","","","","","","","","",""
"","","","","","","","","","","","canvas-button-response","474","556071","0.0-474.0","3839","bridge","","","","","","","","","","","","","","perceptual","","","2","56","","","","","188","bridge","10","0","1",""
"","","","","","","","","","","","canvas-button-response","475","556753","0.0-475.0","680","1","","","","","","","","","","","","","","confidence","","","2","56","","","","","","","","","","4"
"","","","","","","","","","","","preload","476","556754","0.0-476.0","","","","","true","","","","","","","","","","","preload","","","2","57","false","[]","[]","[]","","","","","",""
"","","","","","","","","","","","canvas-keyboard-response","477","557066","0.0-477.0","null","null","","","","","","","","","","","","","","fixation","","","2","57","","","","","","","","","",""
"","","","","","","","","","","","canvas-keyboard-response","478","557381","0.0-478.0","null","null","","","","","","","","","","","","","","stimulus","","","2","57","","","","","","","","","",""
"","","","","","","","","","","","canvas-button-response","479","558181","0.0-479.0","799","phone","","","","","","","","","","","","","","perceptual","","","2","57","","","","","117","phone","10","0","1",""
"","","","","","","","","","","","canvas-button-response","480","558631","0.0-480.0","448","10","","","","","","","","","","","","","","confidence","","","2","57","","","","","","","","","","5"
"","","","","","","","","","","","preload","481","558631","0.0-481.0","","","","","true","","","","","","","","","","","preload","","","2","58","false","[]","[]","[]","","","","","",""
"","","","","","","","","","","","canvas-keyboard-response","482","558943","0.0-482.0","null","null","","","","","","","","","","","","","","fixation","","","2","58","","","","","","","","","",""
"","","","","","","","","","","","canvas-keyboard-response","483","559260","0.0-483.0","null","null","","","","","","","","","","","","","","stimulus","","","2","58","","","","","","","","","",""
"","","","","","","","","","","","canvas-button-response","484","564692","0.0-484.0","5431","car","","","","","","","","","","","","","","perceptual","","","2","58","","","","","286","cat","6","0","0",""
"","","","","","","","","","","","canvas-button-response","485","565256","0.0-485.0","563","1","","","","","","","","","","","","","","confidence","","","2","58","","","","","","","","","","5"
"","","","","","","","","","","","preload","486","565257","0.0-486.0","","","","","true","","","","","","","","","","","preload","","","2","59","false","[]","[]","[]","","","","","",""
"","","","","","","","","","","","canvas-keyboard-response","487","565561","0.0-487.0","null","null","","","","","","","","","","","","","","fixation","","","2","59","","","","","","","","","",""
"","","","","","","","","","","","canvas-keyboard-response","488","565878","0.0-488.0","null","null","","","","","","","","","","","","","","stimulus","","","2","59","","","","","","","","","",""
"","","","","","","","","","","","canvas-button-response","489","567026","0.0-489.0","1147","bridge","","","","","","","","","","","","","","perceptual","","","2","59","","","","","32","house","10","0","0",""
"","","","","","","","","","","","canvas-button-response","490","567793","0.0-490.0","766","10","","","","","","","","","","","","","","confidence","","","2","59","","","","","","","","","","5"
"","","","","","","","","","","","preload","491","567794","0.0-491.0","","","","","true","","","","","","","","","","","preload","","","2","60","false","[]","[]","[]","","","","","",""
"","","","","","","","","","","","canvas-keyboard-response","492","568094","0.0-492.0","null","null","","","","","","","","","","","","","","fixation","","","2","60","","","","","","","","","",""
"","","","","","","","","","","","canvas-keyboard-response","493","568398","0.0-493.0","null","null","","","","","","","","","","","","","","stimulus","","","2","60","","","","","","","","","",""
