"width","height","webaudio","browser","browser_version","mobile","os","fullscreen","vsync_rate","webcam","microphone","trial_type","trial_index","time_elapsed","internal_node_id","rt","response","accuracy","view_history","success","item_width_mm","item_height_mm","item_width_px","px2mm","view_dist_mm","item_width_deg","px2deg","scale_factor","win_width_deg","win_height_deg","stimulus","datetime","subjectID","curr_triallist","trial_no","timeout","failed_images","failed_audio","failed_video","image_index","category","blur","reps","correct","running_score"
"727","801","true","chrome","141.0.0","false","Mac OS","true","60.3","true","true","browser-check","0","1009","0.0-0.0","","","","","","","","","","","","","","","","","","","","","","","","","","","","","",""
"","","","","","","","","","","","survey","1","20907","0.0-1.0","19882","{""P0_Q0"":""903754905"",""P0_Q1"":""21"",""P1_Q0"":""Female"",""P1_Q1"":""Not Hispanic or Latino"",""P1_Q2"":""Black or African American"",""P1_Q3"":""Corrected-to-Normal (using glasses/contacts)"",""P1_Q4"":""Right-Handed""}","[]","","","","","","","","","","","","","","","","","","","","","","","","","","",""
"","","","","","","","","","","","instructions","2","51317","0.0-2.0","30409","","","[{""page_index"":0,""viewing_time"":4342},{""page_index"":1,""viewing_time"":10750},{""page_index"":2,""viewing_time"":9250},{""page_index"":3,""viewing_time"":6067}]","","","","","","","","","","","","","","","","","","","","","","","","","",""
"","","","","","","","","","","","fullscreen","3","54235","0.0-3.0","1914","","","","true","","","","","","","","","","","","","","","","","","","","","","","","",""
"","","","","","","","","","","","virtual-chinrest","4","132664","0.0-4.0","78426","","","","","85.6","53.98","271.8246365866786","3.1733945945700612","540.16","9.060821219555953","30","1.5819022344682983","49","30.766666666666666","","","","","","","","","","","","","","",""
"","","","","","","","","","","","instructions","5","205882","0.0-5.0","73217","","","[{""page_index"":0,""viewing_time"":7534},{""page_index"":1,""viewing_time"":15117},{""page_index"":2,""viewing_time"":7616},{""page_index"":3,""viewing_time"":4533},{""page_index"":4,""viewing_time"":11000},{""page_index"":5,""viewing_time"":25367},{""page_index"":6,""viewing_time"":2050}]","","","","","","","","","","","","","","","","","","","","","","","","","",""
"","","","","","","","","","","","html-button-response","6","209116","0.0-6.0","3231","0","","","","","","","","","","","","","","start_practice","Mon Oct 27 2025 10:26:08 GMT-0400 (Eastern Daylight Time)","27829","","","","","","","","","","","",""
"","","","","","","","","","","","preload","7","209118","0.0-7.0","","","","","true","","","","","","","","","","","preload","","","0","0","false","[]","[]","[]","","","","","",""
"","","","","","","","","","","","canvas-keyboard-response","8","209422","0.0-8.0","null","null","","","","","","","","","","","","","","fixation","","","0","0","","","","","","","","","",""
"","","","","","","","","","","","canvas-keyboard-response","9","209725","0.0-9.0","null","null","","","","","","","","","","","","","","stimulus","","","0","0","","","","","","","","","",""
"","","","","","","","","","","","canvas-button-response","10","211183","0.0-10.0","1455","cat","","","","","","","","","","","","","","perceptual","","","0","0","","","","","72","cat","1","","1",""
"","","","","","","","","","","","canvas-button-response","11","212632","0.0-11.0","1446","10","","","","","","","","","","","","","","confidence","","","0","0","","","","","","","","","","1"
"","","","","","","","","","","","html-keyboard-response","12","213636","0.0-12.0","null","null","","","","","","","","","","","","","","feedback","Mon Oct 27 2025 10:26:15 GMT-0400 (Eastern Daylight Time)","27829","0","0","","","","","","","","","",""
"","","","","","","","","","","","preload","13","213637","0.0-13.0","","","","","true","","","","","","","","","","","preload","","","0","1","false","[]","[]","[]","","","","","",""
"","","","","","","","","","","","canvas-keyboard-response","14","213940","0.0-14.0","null","null","","","","","","","","","","","","","","fixation","","","0","1","","","","","","","","","",""
"","","","","","","","","","","","canvas-keyboard-response","15","214243","0.0-15.0","null","null","","","","","","","","","","","","","","stimulus","","","0","1","","","","","","","","","",""
"","","","","","","","","","","","canvas-button-response","16","216699","0.0-16.0","2454","house","","","","","","","","","","","","","","perceptual","","","0","1","","","","","32","bed","1","","0",""
"","","","","","","","","","","","canvas-button-response","17","217583","0.0-17.0","881","10","","","","","","","","","","","","","","confidence","","","0","1","","","","","","","","","","1"
"","","","","","","","","","","","html-keyboard-response","18","218586","0.0-18.0","null","null","","","","","","","","","","","","","","feedback","Mon Oct 27 2025 10:26:20 GMT-0400 (Eastern Daylight Time)","27829","0","1","","","","","","","","","",""
"","","","","","","","","","","","preload","19","218587","0.0-19.0","","","","","true","","","","","","","","","","","preload","","","0","2","false","[]","[]","[]","","","","","",""
"","","","","","","","","","","","canvas-keyboard-response","20","218890","0.0-20.0","null","null","","","","","","","","","","","","","","fixation","","","0","2","","","","","","","","","",""
"","","","","","","","","","","","canvas-keyboard-response","21","219193","0.0-21.0","null","null","","","","","","","","","","","","","","stimulus","","","0","2","","","","","","","","","",""
"","","","","","","","","","","","canvas-button-response","22","227516","0.0-22.0","8321","car","","","","","","","","","","","","","","perceptual","","","0","2","","","","","82","elephant","1","","0",""
"","","","","","","","","","","","canvas-button-response","23","229032","0.0-23.0","1514","1","","","","","","","","","","","","","","confidence","","","0","2","","","","","","","","","","1"
"","","","","","","","","","","","html-keyboard-response","24","230035","0.0-24.0","null","null","","","","","","","","","","","","","","feedback","Mon Oct 27 2025 10:26:32 GMT-0400 (Eastern Daylight Time)","27829","0","2","","","","","","","","","",""
"","","","","","","","","","","","preload","25","230036","0.0-25.0","","","","","true","","","","","","","","","","","preload","","","0","3","false","[]","[]","[]","","","","","",""
"","","","","","","","","","","","canvas-keyboard-response","26","230339","0.0-26.0","null","null","","","","","","","","","","","","","","fixation","","","0","3","","","","","","","","","",""
"","","","","","","","","","","","canvas-keyboard-response","27","230642","0.0-27.0","null","null","","","","","","","","","","","","","","stimulus","","","0","3","","","","","","","","","",""
"","","","","","","","","","","","canvas-button-response","28","232316","0.0-28.0","1671","knife","","","","","","","","","","","","","","perceptual","","","0","3","","","","","92","knife","1","","1",""
"","","","","","","","","","","","canvas-button-response","29","233500","0.0-29.0","1181","10","","","","","","","","","","","","","","confidence","","","0","3","","","","","","","","","","2"
"","","","","","","","","","","","html-keyboard-response","30","234503","0.0-30.0","null","null","","","","","","","","","","","","","","feedback","Mon Oct 27 2025 10:26:36 GMT-0400 (Eastern Daylight Time)","27829","0","3","","","","","","","","","",""
"","","","","","","","","","","","preload","31","234504","0.0-31.0","","","","","true","","","","","","","","","","","preload","","","0","4","false","[]","[]","[]","","","","","",""
"","","","","","","","","","","","canvas-keyboard-response","32","234808","0.0-32.0","null","null","","","","","","","","","","","","","","fixation","","","0","4","","","","","","","","","",""
"","","","","","","","","","","","canvas-keyboard-response","33","235111","0.0-33.0","null","null","","","","","","","","","","","","","","stimulus","","","0","4","","","","","","","","","",""
"","","","","","","","","","","","canvas-button-response","34","236168","0.0-34.0","1054","phone","","","","","","","","","","","","","","perceptual","","","0","4","","","","","22","phone","1","","1",""
"","","","","","","","","","","","canvas-button-response","35","237066","0.0-35.0","896","10","","","","","","","","","","","","","","confidence","","","0","4","","","","","","","","","","3"
"","","","","","","","","","","","html-keyboard-response","36","238070","0.0-36.0","null","null","","","","","","","","","","","","","","feedback","Mon Oct 27 2025 10:26:40 GMT-0400 (Eastern Daylight Time)","27829","0","4","","","","","","","","","",""
"","","","","","","","","","","","preload","37","238070","0.0-37.0","","","","","true","","","","","","","","","","","preload","","","0","5","false","[]","[]","[]","","","","","",""
"","","","","","","","","","","","canvas-keyboard-response","38","238373","0.0-38.0","null","null","","","","","","","","","","","","","","fixation","","","0","5","","","","","","","","","",""
"","","","","","","","","","","","canvas-keyboard-response","39","238676","0.0-39.0","null","null","","","","","","","","","","","","","","stimulus","","","0","5","","","","","","","","","",""
"","","","","","","","","","","","canvas-button-response","40","239683","0.0-40.0","1004","car","","","","","","","","","","","","","","perceptual","","","0","5","","","","","12","car","1","","1",""
"","","","","","","","","","","","canvas-button-response","41","240450","0.0-41.0","764","10","","","","","","","","","","","","","","confidence","","","0","5","","","","","","","","","","4"
"","","","","","","","","","","","html-keyboard-response","42","241454","0.0-42.0","null","null","","","","","","","","","","","","","","feedback","Mon Oct 27 2025 10:26:43 GMT-0400 (Eastern Daylight Time)","27829","0","5","","","","","","","","","",""
"","","","","","","","","","","","preload","43","241455","0.0-43.0","","","","","true","","","","","","","","","","","preload","","","0","6","false","[]","[]","[]","","","","","",""
"","","","","","","","","","","","canvas-keyboard-response","44","241758","0.0-44.0","null","null","","","","","","","","","","","","","","fixation","","","0","6","","","","","","","","","",""
"","","","","","","","","","","","canvas-keyboard-response","45","242061","0.0-45.0","null","null","","","","","","","","","","","","","","stimulus","","","0","6","","","","","","","","","",""
"","","","","","","","","","","","canvas-button-response","46","243116","0.0-46.0","1053","bridge","","","","","","","","","","","","","","perceptual","","","0","6","","","","","42","bridge","1","","1",""
"","","","","","","","","","","","canvas-button-response","47","243883","0.0-47.0","764","10","","","","","","","","","","","","","","confidence","","","0","6","","","","","","","","","","5"
"","","","","","","","","","","","html-keyboard-response","48","244886","0.0-48.0","null","null","","","","","","","","","","","","","","feedback","Mon Oct 27 2025 10:26:46 GMT-0400 (Eastern Daylight Time)","27829","0","6","","","","","","","","","",""
"","","","","","","","","","","","preload","49","244887","0.0-49.0","","","","","true","","","","","","","","","","","preload","","","0","7","false","[]","[]","[]","","","","","",""
"","","","","","","","","","","","canvas-keyboard-response","50","245189","0.0-50.0","null","null","","","","","","","","","","","","","","fixation","","","0","7","","","","","","","","","",""
"","","","","","","","","","","","canvas-keyboard-response","51","245492","0.0-51.0","null","null","","","","","","","","","","","","","","stimulus","","","0","7","","","","","","","","","",""
"","","","","","","","","","","","canvas-button-response","52","246401","0.0-52.0","905","house","","","","","","","","","","","","","","perceptual","","","0","7","","","","","2","house","1","","1",""
"","","","","","","","","","","","canvas-button-response","53","247233","0.0-53.0","829","10","","","","","","","","","","","","","","confidence","","","0","7","","","","","","","","","","6"
"","","","","","","","","","","","html-keyboard-response","54","248237","0.0-54.0","null","null","","","","","","","","","","","","","","feedback","Mon Oct 27 2025 10:26:50 GMT-0400 (Eastern Daylight Time)","27829","0","7","","","","","","","","","",""
"","","","","","","","","","","","preload","55","248238","0.0-55.0","","","","","true","","","","","","","","","","","preload","","","0","8","false","[]","[]","[]","","","","","",""
"","","","","","","","","","","","canvas-keyboard-response","56","248541","0.0-56.0","null","null","","","","","","","","","","","","","","fixation","","","0","8","","","","","","","","","",""
"","","","","","","","","","","","canvas-keyboard-response","57","248844","0.0-57.0","null","null","","","","","","","","","","","","","","stimulus","","","0","8","","","","","","","","","",""
"","","","","","","","","","","","canvas-button-response","58","251032","0.0-58.0","2186","house","","","","","","","","","","","","","","perceptual","","","0","8","","","","","52","flower","1","","0",""
"","","","","","","","","","","","canvas-button-response","59","251883","0.0-59.0","848","10","","","","","","","","","","","","","","confidence","","","0","8","","","","","","","","","","6"
"","","","","","","","","","","","html-keyboard-response","60","252886","0.0-60.0","null","null","","","","","","","","","","","","","","feedback","Mon Oct 27 2025 10:26:54 GMT-0400 (Eastern Daylight Time)","27829","0","8","","","","","","","","","",""
"","","","","","","","","","","","preload","61","252887","0.0-61.0","","","","","true","","","","","","","","","","","preload","","","0","9","false","[]","[]","[]","","","","","",""
"","","","","","","","","","","","canvas-keyboard-response","62","253190","0.0-62.0","null","null","","","","","","","","","","","","","","fixation","","","0","9","","","","","","","","","",""
"","","","","","","","","","","","canvas-keyboard-response","63","253493","0.0-63.0","null","null","","","","","","","","","","","","","","stimulus","","","0","9","","","","","","","","","",""
"","","","","","","","","","","","canvas-button-response","64","255499","0.0-64.0","2003","train","","","","","","","","","","","","","","perceptual","","","0","9","","","","","62","train","1","","1",""
"","","","","","","","","","","","canvas-button-response","65","256249","0.0-65.0","748","10","","","","","","","","","","","","","","confidence","","","0","9","","","","","","","","","","7"
"","","","","","","","","","","","html-keyboard-response","66","257253","0.0-66.0","null","null","","","","","","","","","","","","","","feedback","Mon Oct 27 2025 10:26:59 GMT-0400 (Eastern Daylight Time)","27829","0","9","","","","","","","","","",""
"","","","","","","","","","","","html-button-response","67","264566","0.0-67.0","7310","0","","","","","","","","","","","","","","start_practice","Mon Oct 27 2025 10:27:00 GMT-0400 (Eastern Daylight Time)","27829","0","9","","","","","","","","","",""
"","","","","","","","","","","","preload","68","264567","0.0-68.0","","","","","true","","","","","","","","","","","preload","","","1","0","false","[]","[]","[]","","","","","",""
"","","","","","","","","","","","canvas-keyboard-response","69","264870","0.0-69.0","null","null","","","","","","","","","","","","","","fixation","","","1","0","","","","","","","","","",""
"","","","","","","","","","","","canvas-keyboard-response","70","265172","0.0-70.0","null","null","","","","","","","","","","","","","","stimulus","","","1","0","","","","","","","","","",""
"","","","","","","","","","","","canvas-button-response","71","267665","0.0-71.0","2491","house","","","","","","","","","","","","","","perceptual","","","1","0","","","","","7","house","10","","1",""
"","","","","","","","","","","","canvas-button-response","72","268832","0.0-72.0","1165","3","","","","","","","","","","","","","","confidence","","","1","0","","","","","","","","","","1"
"","","","","","","","","","","","html-keyboard-response","73","269835","0.0-73.0","null","null","","","","","","","","","","","","","","feedback","Mon Oct 27 2025 10:27:11 GMT-0400 (Eastern Daylight Time)","27829","1","0","","","","","","","","","",""
"","","","","","","","","","","","preload","74","269836","0.0-74.0","","","","","true","","","","","","","","","","","preload","","","1","1","false","[]","[]","[]","","","","","",""
"","","","","","","","","","","","canvas-keyboard-response","75","270139","0.0-75.0","null","null","","","","","","","","","","","","","","fixation","","","1","1","","","","","","","","","",""
"","","","","","","","","","","","canvas-keyboard-response","76","270442","0.0-76.0","null","null","","","","","","","","","","","","","","stimulus","","","1","1","","","","","","","","","",""
"","","","","","","","","","","","canvas-button-response","77","273066","0.0-77.0","2621","flower","","","","","","","","","","","","","","perceptual","","","1","1","","","","","87","elephant","10","","0",""
"","","","","","","","","","","","canvas-button-response","78","274199","0.0-78.0","1131","4","","","","","","","","","","","","","","confidence","","","1","1","","","","","","","","","","1"
"","","","","","","","","","","","html-keyboard-response","79","275202","0.0-79.0","null","null","","","","","","","","","","","","","","feedback","Mon Oct 27 2025 10:27:17 GMT-0400 (Eastern Daylight Time)","27829","1","1","","","","","","","","","",""
"","","","","","","","","","","","preload","80","275203","0.0-80.0","","","","","true","","","","","","","","","","","preload","","","1","2","false","[]","[]","[]","","","","","",""
"","","","","","","","","","","","canvas-keyboard-response","81","275507","0.0-81.0","null","null","","","","","","","","","","","","","","fixation","","","1","2","","","","","","","","","",""
"","","","","","","","","","","","canvas-keyboard-response","82","275810","0.0-82.0","null","null","","","","","","","","","","","","","","stimulus","","","1","2","","","","","","","","","",""
"","","","","","","","","","","","canvas-button-response","83","276766","0.0-83.0","953","flower","","","","","","","","","","","","","","perceptual","","","1","2","","","","","54","flower","6","","1",""
"","","","","","","","","","","","canvas-button-response","84","277432","0.0-84.0","664","10","","","","","","","","","","","","","","confidence","","","1","2","","","","","","","","","","2"
"","","","","","","","","","","","html-keyboard-response","85","278436","0.0-85.0","null","null","","","","","","","","","","","","","","feedback","Mon Oct 27 2025 10:27:20 GMT-0400 (Eastern Daylight Time)","27829","1","2","","","","","","","","","",""
"","","","","","","","","","","","preload","86","278437","0.0-86.0","","","","","true","","","","","","","","","","","preload","","","1","3","false","[]","[]","[]","","","","","",""
"","","","","","","","","","","","canvas-keyboard-response","87","278740","0.0-87.0","null","null","","","","","","","","","","","","","","fixation","","","1","3","","","","","","","","","",""
"","","","","","","","","","","","canvas-keyboard-response","88","279043","0.0-88.0","null","null","","","","","","","","","","","","","","stimulus","","","1","3","","","","","","","","","",""
"","","","","","","","","","","","canvas-button-response","89","280583","0.0-89.0","1537","bed","","","","","","","","","","","","","","perceptual","","","1","3","","","","","34","bed","6","","1",""
"","","","","","","","","","","","canvas-button-response","90","281465","0.0-90.0","880","10","","","","","","","","","","","","","","confidence","","","1","3","","","","","","","","","","3"
"","","","","","","","","","","","html-keyboard-response","91","282468","0.0-91.0","null","null","","","","","","","","","","","","","","feedback","Mon Oct 27 2025 10:27:24 GMT-0400 (Eastern Daylight Time)","27829","1","3","","","","","","","","","",""
"","","","","","","","","","","","preload","92","282469","0.0-92.0","","","","","true","","","","","","","","","","","preload","","","1","4","false","[]","[]","[]","","","","","",""
"","","","","","","","","","","","canvas-keyboard-response","93","282772","0.0-93.0","null","null","","","","","","","","","","","","","","fixation","","","1","4","","","","","","","","","",""
"","","","","","","","","","","","canvas-keyboard-response","94","283075","0.0-94.0","null","null","","","","","","","","","","","","","","stimulus","","","1","4","","","","","","","","","",""
"","","","","","","","","","","","canvas-button-response","95","286666","0.0-95.0","3589","cat","","","","","","","","","","","","","","perceptual","","","1","4","","","","","77","cat","10","","1",""
"","","","","","","","","","","","canvas-button-response","96","287632","0.0-96.0","964","1","","","","","","","","","","","","","","confidence","","","1","4","","","","","","","","","","4"
"","","","","","","","","","","","html-keyboard-response","97","288636","0.0-97.0","null","null","","","","","","","","","","","","","","feedback","Mon Oct 27 2025 10:27:30 GMT-0400 (Eastern Daylight Time)","27829","1","4","","","","","","","","","",""
"","","","","","","","","","","","preload","98","288637","0.0-98.0","","","","","true","","","","","","","","","","","preload","","","1","5","false","[]","[]","[]","","","","","",""
"","","","","","","","","","","","canvas-keyboard-response","99","288941","0.0-99.0","null","null","","","","","","","","","","","","","","fixation","","","1","5","","","","","","","","","",""
"","","","","","","","","","","","canvas-keyboard-response","100","289243","0.0-100.0","null","null","","","","","","","","","","","","","","stimulus","","","1","5","","","","","","","","","",""
"","","","","","","","","","","","canvas-button-response","101","292832","0.0-101.0","3587","elephant","","","","","","","","","","","","","","perceptual","","","1","5","","","","","84","elephant","6","","1",""
"","","","","","","","","","","","canvas-button-response","102","293716","0.0-102.0","881","3","","","","","","","","","","","","","","confidence","","","1","5","","","","","","","","","","5"
"","","","","","","","","","","","html-keyboard-response","103","294719","0.0-103.0","null","null","","","","","","","","","","","","","","feedback","Mon Oct 27 2025 10:27:36 GMT-0400 (Eastern Daylight Time)","27829","1","5","","","","","","","","","",""
"","","","","","","","","","","","preload","104","294720","0.0-104.0","","","","","true","","","","","","","","","","","preload","","","1","6","false","[]","[]","[]","","","","","",""
"","","","","","","","","","","","canvas-keyboard-response","105","295023","0.0-105.0","null","null","","","","","","","","","","","","","","fixation","","","1","6","","","","","","","","","",""
"","","","","","","","","","","","canvas-keyboard-response","106","295326","0.0-106.0","null","null","","","","","","","","","","","","","","stimulus","","","1","6","","","","","","","","","",""
"","","","","","","","","","","","canvas-button-response","107","296849","0.0-107.0","1520","bridge","","","","","","","","","","","","","","perceptual","","","1","6","","","","","44","bridge","6","","1",""
"","","","","","","","","","","","canvas-button-response","108","297566","0.0-108.0","714","5","","","","","","","","","","","","","","confidence","","","1","6","","","","","","","","","","6"
"","","","","","","","","","","","html-keyboard-response","109","298569","0.0-109.0","null","null","","","","","","","","","","","","","","feedback","Mon Oct 27 2025 10:27:40 GMT-0400 (Eastern Daylight Time)","27829","1","6","","","","","","","","","",""
"","","","","","","","","","","","preload","110","298570","0.0-110.0","","","","","true","","","","","","","","","","","preload","","","1","7","false","[]","[]","[]","","","","","",""
"","","","","","","","","","","","canvas-keyboard-response","111","298873","0.0-111.0","null","null","","","","","","","","","","","","","","fixation","","","1","7","","","","","","","","","",""
"","","","","","","","","","","","canvas-keyboard-response","112","299176","0.0-112.0","null","null","","","","","","","","","","","","","","stimulus","","","1","7","","","","","","","","","",""
"","","","","","","","","","","","canvas-button-response","113","303616","0.0-113.0","4438","phone","","","","","","","","","","","","","","perceptual","","","1","7","","","","","27","phone","10","","1",""
"","","","","","","","","","","","canvas-button-response","114","304415","0.0-114.0","797","3","","","","","","","","","","","","","","confidence","","","1","7","","","","","","","","","","7"
"","","","","","","","","","","","html-keyboard-response","115","305419","0.0-115.0","null","null","","","","","","","","","","","","","","feedback","Mon Oct 27 2025 10:27:47 GMT-0400 (Eastern Daylight Time)","27829","1","7","","","","","","","","","",""
"","","","","","","","","","","","preload","116","305420","0.0-116.0","","","","","true","","","","","","","","","","","preload","","","1","8","false","[]","[]","[]","","","","","",""
"","","","","","","","","","","","canvas-keyboard-response","117","305723","0.0-117.0","null","null","","","","","","","","","","","","","","fixation","","","1","8","","","","","","","","","",""
"","","","","","","","","","","","canvas-keyboard-response","118","306026","0.0-118.0","null","null","","","","","","","","","","","","","","stimulus","","","1","8","","","","","","","","","",""
"","","","","","","","","","","","canvas-button-response","119","306965","0.0-119.0","937","flower","","","","","","","","","","","","","","perceptual","","","1","8","","","","","57","flower","10","","1",""
"","","","","","","","","","","","canvas-button-response","120","307665","0.0-120.0","697","10","","","","","","","","","","","","","","confidence","","","1","8","","","","","","","","","","8"
"","","","","","","","","","","","html-keyboard-response","121","308669","0.0-121.0","null","null","","","","","","","","","","","","","","feedback","Mon Oct 27 2025 10:27:50 GMT-0400 (Eastern Daylight Time)","27829","1","8","","","","","","","","","",""
"","","","","","","","","","","","preload","122","308670","0.0-122.0","","","","","true","","","","","","","","","","","preload","","","1","9","false","[]","[]","[]","","","","","",""
"","","","","","","","","","","","canvas-keyboard-response","123","308972","0.0-123.0","null","null","","","","","","","","","","","","","","fixation","","","1","9","","","","","","","","","",""
"","","","","","","","","","","","canvas-keyboard-response","124","309276","0.0-124.0","null","null","","","","","","","","","","","","","","stimulus","","","1","9","","","","","","","","","",""
"","","","","","","","","","","","canvas-button-response","125","312584","0.0-125.0","3306","knife","","","","","","","","","","","","","","perceptual","","","1","9","","","","","94","knife","6","","1",""
"","","","","","","","","","","","canvas-button-response","126","313664","0.0-126.0","1079","6","","","","","","","","","","","","","","confidence","","","1","9","","","","","","","","","","9"
"","","","","","","","","","","","html-keyboard-response","127","314667","0.0-127.0","null","null","","","","","","","","","","","","","","feedback","Mon Oct 27 2025 10:27:56 GMT-0400 (Eastern Daylight Time)","27829","1","9","","","","","","","","","",""
"","","","","","","","","","","","preload","128","314668","0.0-128.0","","","","","true","","","","","","","","","","","preload","","","1","10","false","[]","[]","[]","","","","","",""
"","","","","","","","","","","","canvas-keyboard-response","129","314971","0.0-129.0","null","null","","","","","","","","","","","","","","fixation","","","1","10","","","","","","","","","",""
"","","","","","","","","","","","canvas-keyboard-response","130","315274","0.0-130.0","null","null","","","","","","","","","","","","","","stimulus","","","1","10","","","","","","","","","",""
"","","","","","","","","","","","canvas-button-response","131","317699","0.0-131.0","2423","train","","","","","","","","","","","","","","perceptual","","","1","10","","","","","67","train","10","","1",""
"","","","","","","","","","","","canvas-button-response","132","318399","0.0-132.0","697","9","","","","","","","","","","","","","","confidence","","","1","10","","","","","","","","","","10"
"","","","","","","","","","","","html-keyboard-response","133","319402","0.0-133.0","null","null","","","","","","","","","","","","","","feedback","Mon Oct 27 2025 10:28:01 GMT-0400 (Eastern Daylight Time)","27829","1","10","","","","","","","","","",""
"","","","","","","","","","","","preload","134","319403","0.0-134.0","","","","","true","","","","","","","","","","","preload","","","1","11","false","[]","[]","[]","","","","","",""
"","","","","","","","","","","","canvas-keyboard-response","135","319707","0.0-135.0","null","null","","","","","","","","","","","","","","fixation","","","1","11","","","","","","","","","",""
"","","","","","","","","","","","canvas-keyboard-response","136","320009","0.0-136.0","null","null","","","","","","","","","","","","","","stimulus","","","1","11","","","","","","","","","",""
"","","","","","","","","","","","canvas-button-response","137","323149","0.0-137.0","3138","car","","","","","","","","","","","","","","perceptual","","","1","11","","","","","17","car","10","","1",""
"","","","","","","","","","","","canvas-button-response","138","323916","0.0-138.0","764","6","","","","","","","","","","","","","","confidence","","","1","11","","","","","","","","","","11"
"","","","","","","","","","","","html-keyboard-response","139","324920","0.0-139.0","null","null","","","","","","","","","","","","","","feedback","Mon Oct 27 2025 10:28:06 GMT-0400 (Eastern Daylight Time)","27829","1","11","","","","","","","","","",""
"","","","","","","","","","","","preload","140","324921","0.0-140.0","","","","","true","","","","","","","","","","","preload","","","1","12","false","[]","[]","[]","","","","","",""
"","","","","","","","","","","","canvas-keyboard-response","141","325224","0.0-141.0","null","null","","","","","","","","","","","","","","fixation","","","1","12","","","","","","","","","",""
"","","","","","","","","","","","canvas-keyboard-response","142","325528","0.0-142.0","null","null","","","","","","","","","","","","","","stimulus","","","1","12","","","","","","","","","",""
"","","","","","","","","","","","canvas-button-response","143","326649","0.0-143.0","1119","cat","","","","","","","","","","","","","","perceptual","","","1","12","","","","","74","cat","6","","1",""
"","","","","","","","","","","","canvas-button-response","144","327216","0.0-144.0","564","7","","","","","","","","","","","","","","confidence","","","1","12","","","","","","","","","","12"
"","","","","","","","","","","","html-keyboard-response","145","328219","0.0-145.0","null","null","","","","","","","","","","","","","","feedback","Mon Oct 27 2025 10:28:10 GMT-0400 (Eastern Daylight Time)","27829","1","12","","","","","","","","","",""
"","","","","","","","","","","","preload","146","328220","0.0-146.0","","","","","true","","","","","","","","","","","preload","","","1","13","false","[]","[]","[]","","","","","",""
"","","","","","","","","","","","canvas-keyboard-response","147","328523","0.0-147.0","null","null","","","","","","","","","","","","","","fixation","","","1","13","","","","","","","","","",""
"","","","","","","","","","","","canvas-keyboard-response","148","328825","0.0-148.0","null","null","","","","","","","","","","","","","","stimulus","","","1","13","","","","","","","","","",""
"","","","","","","","","","","","canvas-button-response","149","329647","0.0-149.0","820","house","","","","","","","","","","","","","","perceptual","","","1","13","","","","","4","house","6","","1",""
"","","","","","","","","","","","canvas-button-response","150","330483","0.0-150.0","833","10","","","","","","","","","","","","","","confidence","","","1","13","","","","","","","","","","13"
"","","","","","","","","","","","html-keyboard-response","151","331486","0.0-151.0","null","null","","","","","","","","","","","","","","feedback","Mon Oct 27 2025 10:28:13 GMT-0400 (Eastern Daylight Time)","27829","1","13","","","","","","","","","",""
"","","","","","","","","","","","preload","152","331487","0.0-152.0","","","","","true","","","","","","","","","","","preload","","","1","14","false","[]","[]","[]","","","","","",""
"","","","","","","","","","","","canvas-keyboard-response","153","331790","0.0-153.0","null","null","","","","","","","","","","","","","","fixation","","","1","14","","","","","","","","","",""
"","","","","","","","","","","","canvas-keyboard-response","154","332094","0.0-154.0","null","null","","","","","","","","","","","","","","stimulus","","","1","14","","","","","","","","","",""
"","","","","","","","","","","","canvas-button-response","155","333799","0.0-155.0","1703","train","","","","","","","","","","","","","","perceptual","","","1","14","","","","","64","train","6","","1",""
"","","","","","","","","","","","canvas-button-response","156","334348","0.0-156.0","547","10","","","","","","","","","","","","","","confidence","","","1","14","","","","","","","","","","14"
"","","","","","","","","","","","html-keyboard-response","157","335352","0.0-157.0","null","null","","","","","","","","","","","","","","feedback","Mon Oct 27 2025 10:28:17 GMT-0400 (Eastern Daylight Time)","27829","1","14","","","","","","","","","",""
"","","","","","","","","","","","preload","158","335353","0.0-158.0","","","","","true","","","","","","","","","","","preload","","","1","15","false","[]","[]","[]","","","","","",""
"","","","","","","","","","","","canvas-keyboard-response","159","335655","0.0-159.0","null","null","","","","","","","","","","","","","","fixation","","","1","15","","","","","","","","","",""
"","","","","","","","","","","","canvas-keyboard-response","160","335958","0.0-160.0","null","null","","","","","","","","","","","","","","stimulus","","","1","15","","","","","","","","","",""
"","","","","","","","","","","","canvas-button-response","161","342882","0.0-161.0","6922","elephant","","","","","","","","","","","","","","perceptual","","","1","15","","","","","37","bed","10","","0",""
"","","","","","","","","","","","canvas-button-response","162","343699","0.0-162.0","814","1","","","","","","","","","","","","","","confidence","","","1","15","","","","","","","","","","14"
"","","","","","","","","","","","html-keyboard-response","163","344702","0.0-163.0","null","null","","","","","","","","","","","","","","feedback","Mon Oct 27 2025 10:28:26 GMT-0400 (Eastern Daylight Time)","27829","1","15","","","","","","","","","",""
"","","","","","","","","","","","preload","164","344703","0.0-164.0","","","","","true","","","","","","","","","","","preload","","","1","16","false","[]","[]","[]","","","","","",""
"","","","","","","","","","","","canvas-keyboard-response","165","345006","0.0-165.0","null","null","","","","","","","","","","","","","","fixation","","","1","16","","","","","","","","","",""
"","","","","","","","","","","","canvas-keyboard-response","166","345309","0.0-166.0","null","null","","","","","","","","","","","","","","stimulus","","","1","16","","","","","","","","","",""
"","","","","","","","","","","","canvas-button-response","167","346133","0.0-167.0","822","phone","","","","","","","","","","","","","","perceptual","","","1","16","","","","","24","phone","6","","1",""
"","","","","","","","","","","","canvas-button-response","168","346949","0.0-168.0","813","10","","","","","","","","","","","","","","confidence","","","1","16","","","","","","","","","","15"
"","","","","","","","","","","","html-keyboard-response","169","347952","0.0-169.0","null","null","","","","","","","","","","","","","","feedback","Mon Oct 27 2025 10:28:30 GMT-0400 (Eastern Daylight Time)","27829","1","16","","","","","","","","","",""
"","","","","","","","","","","","preload","170","347953","0.0-170.0","","","","","true","","","","","","","","","","","preload","","","1","17","false","[]","[]","[]","","","","","",""
"","","","","","","","","","","","canvas-keyboard-response","171","348256","0.0-171.0","null","null","","","","","","","","","","","","","","fixation","","","1","17","","","","","","","","","",""
"","","","","","","","","","","","canvas-keyboard-response","172","348559","0.0-172.0","null","null","","","","","","","","","","","","","","stimulus","","","1","17","","","","","","","","","",""
"","","","","","","","","","","","canvas-button-response","173","351149","0.0-173.0","2588","knife","","","","","","","","","","","","","","perceptual","","","1","17","","","","","97","knife","10","","1",""
"","","","","","","","","","","","canvas-button-response","174","352316","0.0-174.0","1164","10","","","","","","","","","","","","","","confidence","","","1","17","","","","","","","","","","16"
"","","","","","","","","","","","html-keyboard-response","175","353320","0.0-175.0","null","null","","","","","","","","","","","","","","feedback","Mon Oct 27 2025 10:28:35 GMT-0400 (Eastern Daylight Time)","27829","1","17","","","","","","","","","",""
"","","","","","","","","","","","preload","176","353321","0.0-176.0","","","","","true","","","","","","","","","","","preload","","","1","18","false","[]","[]","[]","","","","","",""
"","","","","","","","","","","","canvas-keyboard-response","177","353623","0.0-177.0","null","null","","","","","","","","","","","","","","fixation","","","1","18","","","","","","","","","",""
"","","","","","","","","","","","canvas-keyboard-response","178","353926","0.0-178.0","null","null","","","","","","","","","","","","","","stimulus","","","1","18","","","","","","","","","",""
"","","","","","","","","","","","canvas-button-response","179","356749","0.0-179.0","2820","bridge","","","","","","","","","","","","","","perceptual","","","1","18","","","","","14","car","6","","0",""
"","","","","","","","","","","","canvas-button-response","180","357432","0.0-180.0","681","5","","","","","","","","","","","","","","confidence","","","1","18","","","","","","","","","","16"
"","","","","","","","","","","","html-keyboard-response","181","358436","0.0-181.0","null","null","","","","","","","","","","","","","","feedback","Mon Oct 27 2025 10:28:40 GMT-0400 (Eastern Daylight Time)","27829","1","18","","","","","","","","","",""
"","","","","","","","","","","","preload","182","358437","0.0-182.0","","","","","true","","","","","","","","","","","preload","","","1","19","false","[]","[]","[]","","","","","",""
"","","","","","","","","","","","canvas-keyboard-response","183","358740","0.0-183.0","null","null","","","","","","","","","","","","","","fixation","","","1","19","","","","","","","","","",""
"","","","","","","","","","","","canvas-keyboard-response","184","359042","0.0-184.0","null","null","","","","","","","","","","","","","","stimulus","","","1","19","","","","","","","","","",""
"","","","","","","","","","","","canvas-button-response","185","360782","0.0-185.0","1738","cat","","","","","","","","","","","","","","perceptual","","","1","19","","","","","47","bridge","10","","0",""
"","","","","","","","","","","","canvas-button-response","186","361582","0.0-186.0","797","1","","","","","","","","","","","","","","confidence","","","1","19","","","","","","","","","","16"
"","","","","","","","","","","","html-keyboard-response","187","362585","0.0-187.0","null","null","","","","","","","","","","","","","","feedback","Mon Oct 27 2025 10:28:44 GMT-0400 (Eastern Daylight Time)","27829","1","19","","","","","","","","","",""
"","","","","","","","","","","","html-button-response","188","376227","0.0-188.0","13645","0","","","","","","","","","","","","","","start experiment","Mon Oct 27 2025 10:28:45 GMT-0400 (Eastern Daylight Time)","27829","1","19","","","","","","","","","",""
"","","","","","","","","","","","preload","189","376228","0.0-189.0","","","","","true","","","","","","","","","","","preload","","","2","0","false","[]","[]","[]","","","","","",""
"","","","","","","","","","","","canvas-keyboard-response","190","376531","0.0-190.0","null","null","","","","","","","","","","","","","","fixation","","","2","0","","","","","","","","","",""
"","","","","","","","","","","","canvas-keyboard-response","191","376833","0.0-191.0","null","null","","","","","","","","","","","","","","stimulus","","","2","0","","","","","","","","","",""
"","","","","","","","","","","","canvas-button-response","192","377860","0.0-192.0","1025","bridge","","","","","","","","","","","","","","perceptual","","","2","0","","","","","163","bridge","6","0","1",""
"","","","","","","","","","","","canvas-button-response","193","378510","0.0-193.0","648","10","","","","","","","","","","","","","","confidence","","","2","0","","","","","","","","","","1"
"","","","","","","","","","","","preload","194","378511","0.0-194.0","","","","","true","","","","","","","","","","","preload","","","2","1","false","[]","[]","[]","","","","","",""
"","","","","","","","","","","","canvas-keyboard-response","195","378813","0.0-195.0","null","null","","","","","","","","","","","","","","fixation","","","2","1","","","","","","","","","",""
"","","","","","","","","","","","canvas-keyboard-response","196","379115","0.0-196.0","null","null","","","","","","","","","","","","","","stimulus","","","2","1","","","","","","","","","",""
"","","","","","","","","","","","canvas-button-response","197","380926","0.0-197.0","1808","bridge","","","","","","","","","","","","","","perceptual","","","2","1","","","","","160","bridge","6","0","1",""
"","","","","","","","","","","","canvas-button-response","198","381726","0.0-198.0","797","5","","","","","","","","","","","","","","confidence","","","2","1","","","","","","","","","","2"
"","","","","","","","","","","","preload","199","381727","0.0-199.0","","","","","true","","","","","","","","","","","preload","","","2","2","false","[]","[]","[]","","","","","",""
"","","","","","","","","","","","canvas-keyboard-response","200","382029","0.0-200.0","null","null","","","","","","","","","","","","","","fixation","","","2","2","","","","","","","","","",""
"","","","","","","","","","","","canvas-keyboard-response","201","382333","0.0-201.0","null","null","","","","","","","","","","","","","","stimulus","","","2","2","","","","","","","","","",""
"","","","","","","","","","","","canvas-button-response","202","383508","0.0-202.0","1174","bed","","","","","","","","","","","","","","perceptual","","","2","2","","","","","310","cat","10","0","0",""
"","","","","","","","","","","","canvas-button-response","203","384307","0.0-203.0","797","9","","","","","","","","","","","","","","confidence","","","2","2","","","","","","","","","","2"
"","","","","","","","","","","","preload","204","384308","0.0-204.0","","","","","true","","","","","","","","","","","preload","","","2","3","false","[]","[]","[]","","","","","",""
"","","","","","","","","","","","canvas-keyboard-response","205","384610","0.0-205.0","null","null","","","","","","","","","","","","","","fixation","","","2","3","","","","","","","","","",""
"","","","","","","","","","","","canvas-keyboard-response","206","384912","0.0-206.0","null","null","","","","","","","","","","","","","","stimulus","","","2","3","","","","","","","","","",""
"","","","","","","","","","","","canvas-button-response","207","385991","0.0-207.0","1077","flower","","","","","","","","","","","","","","perceptual","","","2","3","","","","","73","car","10","0","0",""
"","","","","","","","","","","","canvas-button-response","208","386758","0.0-208.0","765","10","","","","","","","","","","","","","","confidence","","","2","3","","","","","","","","","","2"
"","","","","","","","","","","","preload","209","386759","0.0-209.0","","","","","true","","","","","","","","","","","preload","","","2","4","false","[]","[]","[]","","","","","",""
"","","","","","","","","","","","canvas-keyboard-response","210","387062","0.0-210.0","null","null","","","","","","","","","","","","","","fixation","","","2","4","","","","","","","","","",""
"","","","","","","","","","","","canvas-keyboard-response","211","387365","0.0-211.0","null","null","","","","","","","","","","","","","","stimulus","","","2","4","","","","","","","","","",""
"","","","","","","","","","","","canvas-button-response","212","392990","0.0-212.0","5624","bridge","","","","","","","","","","","","","","perceptual","","","2","4","","","","","93","phone","6","0","0",""
"","","","","","","","","","","","canvas-button-response","213","394207","0.0-213.0","1215","3","","","","","","","","","","","","","","confidence","","","2","4","","","","","","","","","","2"
"","","","","","","","","","","","preload","214","394208","0.0-214.0","","","","","true","","","","","","","","","","","preload","","","2","5","false","[]","[]","[]","","","","","",""
"","","","","","","","","","","","canvas-keyboard-response","215","394510","0.0-215.0","null","null","","","","","","","","","","","","","","fixation","","","2","5","","","","","","","","","",""
"","","","","","","","","","","","canvas-keyboard-response","216","394813","0.0-216.0","null","null","","","","","","","","","","","","","","stimulus","","","2","5","","","","","","","","","",""
"","","","","","","","","","","","canvas-button-response","217","395890","0.0-217.0","1076","car","","","","","","","","","","","","","","perceptual","","","2","5","","","","","55","car","6","0","1",""
"","","","","","","","","","","","canvas-button-response","218","396590","0.0-218.0","698","10","","","","","","","","","","","","","","confidence","","","2","5","","","","","","","","","","3"
"","","","","","","","","","","","preload","219","396592","0.0-219.0","","","","","true","","","","","","","","","","","preload","","","2","6","false","[]","[]","[]","","","","","",""
"","","","","","","","","","","","canvas-keyboard-response","220","396894","0.0-220.0","null","null","","","","","","","","","","","","","","fixation","","","2","6","","","","","","","","","",""
"","","","","","","","","","","","canvas-keyboard-response","221","397197","0.0-221.0","null","null","","","","","","","","","","","","","","stimulus","","","2","6","","","","","","","","","",""
"","","","","","","","","","","","canvas-button-response","222","398107","0.0-222.0","907","flower","","","","","","","","","","","","","","perceptual","","","2","6","","","","","272","train","10","0","0",""
"","","","","","","","","","","","canvas-button-response","223","398974","0.0-223.0","864","9","","","","","","","","","","","","","","confidence","","","2","6","","","","","","","","","","3"
"","","","","","","","","","","","preload","224","398975","0.0-224.0","","","","","true","","","","","","","","","","","preload","","","2","7","false","[]","[]","[]","","","","","",""
"","","","","","","","","","","","canvas-keyboard-response","225","399278","0.0-225.0","null","null","","","","","","","","","","","","","","fixation","","","2","7","","","","","","","","","",""
"","","","","","","","","","","","canvas-keyboard-response","226","399580","0.0-226.0","null","null","","","","","","","","","","","","","","stimulus","","","2","7","","","","","","","","","",""
"","","","","","","","","","","","canvas-button-response","227","400524","0.0-227.0","941","knife","","","","","","","","","","","","","","perceptual","","","2","7","","","","","378","knife","6","0","1",""
"","","","","","","","","","","","canvas-button-response","228","401390","0.0-228.0","863","10","","","","","","","","","","","","","","confidence","","","2","7","","","","","","","","","","4"
"","","","","","","","","","","","preload","229","401391","0.0-229.0","","","","","true","","","","","","","","","","","preload","","","2","8","false","[]","[]","[]","","","","","",""
"","","","","","","","","","","","canvas-keyboard-response","230","401693","0.0-230.0","null","null","","","","","","","","","","","","","","fixation","","","2","8","","","","","","","","","",""
"","","","","","","","","","","","canvas-keyboard-response","231","401996","0.0-231.0","null","null","","","","","","","","","","","","","","stimulus","","","2","8","","","","","","","","","",""
"","","","","","","","","","","","canvas-button-response","232","402990","0.0-232.0","991","car","","","","","","","","","","","","","","perceptual","","","2","8","","","","","42","car","6","0","1",""
"","","","","","","","","","","","canvas-button-response","233","403656","0.0-233.0","664","10","","","","","","","","","","","","","","confidence","","","2","8","","","","","","","","","","5"
"","","","","","","","","","","","preload","234","403657","0.0-234.0","","","","","true","","","","","","","","","","","preload","","","2","9","false","[]","[]","[]","","","","","",""
"","","","","","","","","","","","canvas-keyboard-response","235","403961","0.0-235.0","null","null","","","","","","","","","","","","","","fixation","","","2","9","","","","","","","","","",""
"","","","","","","","","","","","canvas-keyboard-response","236","404263","0.0-236.0","null","null","","","","","","","","","","","","","","stimulus","","","2","9","","","","","","","","","",""
"","","","","","","","","","","","canvas-button-response","237","407389","0.0-237.0","3124","train","","","","","","","","","","","","","","perceptual","","","2","9","","","","","181","bridge","10","0","0",""
"","","","","","","","","","","","canvas-button-response","238","408423","0.0-238.0","1031","6","","","","","","","","","","","","","","confidence","","","2","9","","","","","","","","","","5"
"","","","","","","","","","","","preload","239","408425","0.0-239.0","","","","","true","","","","","","","","","","","preload","","","2","10","false","[]","[]","[]","","","","","",""
"","","","","","","","","","","","canvas-keyboard-response","240","408727","0.0-240.0","null","null","","","","","","","","","","","","","","fixation","","","2","10","","","","","","","","","",""
"","","","","","","","","","","","canvas-keyboard-response","241","409030","0.0-241.0","null","null","","","","","","","","","","","","","","stimulus","","","2","10","","","","","","","","","",""
"","","","","","","","","","","","canvas-button-response","242","410539","0.0-242.0","1507","car","","","","","","","","","","","","","","perceptual","","","2","10","","","","","291","cat","6","0","0",""
"","","","","","","","","","","","canvas-button-response","243","411389","0.0-243.0","847","5","","","","","","","","","","","","","","confidence","","","2","10","","","","","","","","","","5"
"","","","","","","","","","","","preload","244","411391","0.0-244.0","","","","","true","","","","","","","","","","","preload","","","2","11","false","[]","[]","[]","","","","","",""
"","","","","","","","","","","","canvas-keyboard-response","245","411693","0.0-245.0","null","null","","","","","","","","","","","","","","fixation","","","2","11","","","","","","","","","",""
"","","","","","","","","","","","canvas-keyboard-response","246","411996","0.0-246.0","null","null","","","","","","","","","","","","","","stimulus","","","2","11","","","","","","","","","",""
"","","","","","","","","","","","canvas-button-response","247","412956","0.0-247.0","958","train","","","","","","","","","","","","","","perceptual","","","2","11","","","","","254","train","6","0","1",""
"","","","","","","","","","","","canvas-button-response","248","413606","0.0-248.0","648","8","","","","","","","","","","","","","","confidence","","","2","11","","","","","","","","","","6"
"","","","","","","","","","","","preload","249","413607","0.0-249.0","","","","","true","","","","","","","","","","","preload","","","2","12","false","[]","[]","[]","","","","","",""
"","","","","","","","","","","","canvas-keyboard-response","250","413910","0.0-250.0","null","null","","","","","","","","","","","","","","fixation","","","2","12","","","","","","","","","",""
"","","","","","","","","","","","canvas-keyboard-response","251","414213","0.0-251.0","null","null","","","","","","","","","","","","","","stimulus","","","2","12","","","","","","","","","",""
"","","","","","","","","","","","canvas-button-response","252","415273","0.0-252.0","1057","train","","","","","","","","","","","","","","perceptual","","","2","12","","","","","241","train","6","0","1",""
"","","","","","","","","","","","canvas-button-response","253","415756","0.0-253.0","480","10","","","","","","","","","","","","","","confidence","","","2","12","","","","","","","","","","7"
"","","","","","","","","","","","preload","254","415757","0.0-254.0","","","","","true","","","","","","","","","","","preload","","","2","13","false","[]","[]","[]","","","","","",""
"","","","","","","","","","","","canvas-keyboard-response","255","416059","0.0-255.0","null","null","","","","","","","","","","","","","","fixation","","","2","13","","","","","","","","","",""
"","","","","","","","","","","","canvas-keyboard-response","256","416362","0.0-256.0","null","null","","","","","","","","","","","","","","stimulus","","","2","13","","","","","","","","","",""
"","","","","","","","","","","","canvas-button-response","257","417239","0.0-257.0","875","elephant","","","","","","","","","","","","","","perceptual","","","2","13","","","","","287","cat","6","0","0",""
"","","","","","","","","","","","canvas-button-response","258","417805","0.0-258.0","564","10","","","","","","","","","","","","","","confidence","","","2","13","","","","","","","","","","7"
"","","","","","","","","","","","preload","259","417806","0.0-259.0","","","","","true","","","","","","","","","","","preload","","","2","14","false","[]","[]","[]","","","","","",""
"","","","","","","","","","","","canvas-keyboard-response","260","418109","0.0-260.0","null","null","","","","","","","","","","","","","","fixation","","","2","14","","","","","","","","","",""
"","","","","","","","","","","","canvas-keyboard-response","261","418412","0.0-261.0","null","null","","","","","","","","","","","","","","stimulus","","","2","14","","","","","","","","","",""
"","","","","","","","","","","","canvas-button-response","262","419389","0.0-262.0","975","car","","","","","","","","","","","","","","perceptual","","","2","14","","","","","59","car","6","0","1",""
"","","","","","","","","","","","canvas-button-response","263","420023","0.0-263.0","631","10","","","","","","","","","","","","","","confidence","","","2","14","","","","","","","","","","8"
"","","","","","","","","","","","preload","264","420024","0.0-264.0","","","","","true","","","","","","","","","","","preload","","","2","15","false","[]","[]","[]","","","","","",""
"","","","","","","","","","","","canvas-keyboard-response","265","420326","0.0-265.0","null","null","","","","","","","","","","","","","","fixation","","","2","15","","","","","","","","","",""
"","","","","","","","","","","","canvas-keyboard-response","266","420629","0.0-266.0","null","null","","","","","","","","","","","","","","stimulus","","","2","15","","","","","","","","","",""
"","","","","","","","","","","","canvas-button-response","267","426456","0.0-267.0","5824","cat","","","","","","","","","","","","","","perceptual","","","2","15","","","","","94","phone","6","0","0",""
"","","","","","","","","","","","canvas-button-response","268","427039","0.0-268.0","580","7","","","","","","","","","","","","","","confidence","","","2","15","","","","","","","","","","8"
"","","","","","","","","","","","preload","269","427040","0.0-269.0","","","","","true","","","","","","","","","","","preload","","","2","16","false","[]","[]","[]","","","","","",""
"","","","","","","","","","","","canvas-keyboard-response","270","427342","0.0-270.0","null","null","","","","","","","","","","","","","","fixation","","","2","16","","","","","","","","","",""
"","","","","","","","","","","","canvas-keyboard-response","271","427645","0.0-271.0","null","null","","","","","","","","","","","","","","stimulus","","","2","16","","","","","","","","","",""
"","","","","","","","","","","","canvas-button-response","272","428672","0.0-272.0","1025","car","","","","","","","","","","","","","","perceptual","","","2","16","","","","","51","car","6","0","1",""
"","","","","","","","","","","","canvas-button-response","273","429372","0.0-273.0","698","8","","","","","","","","","","","","","","confidence","","","2","16","","","","","","","","","","9"
"","","","","","","","","","","","preload","274","429373","0.0-274.0","","","","","true","","","","","","","","","","","preload","","","2","17","false","[]","[]","[]","","","","","",""
"","","","","","","","","","","","canvas-keyboard-response","275","429676","0.0-275.0","null","null","","","","","","","","","","","","","","fixation","","","2","17","","","","","","","","","",""
"","","","","","","","","","","","canvas-keyboard-response","276","429978","0.0-276.0","null","null","","","","","","","","","","","","","","stimulus","","","2","17","","","","","","","","","",""
"","","","","","","","","","","","canvas-button-response","277","431505","0.0-277.0","1524","house","","","","","","","","","","","","","","perceptual","","","2","17","","","","","26","house","10","0","1",""
"","","","","","","","","","","","canvas-button-response","278","432439","0.0-278.0","932","6","","","","","","","","","","","","","","confidence","","","2","17","","","","","","","","","","10"
"","","","","","","","","","","","preload","279","432440","0.0-279.0","","","","","true","","","","","","","","","","","preload","","","2","18","false","[]","[]","[]","","","","","",""
"","","","","","","","","","","","canvas-keyboard-response","280","432742","0.0-280.0","null","null","","","","","","","","","","","","","","fixation","","","2","18","","","","","","","","","",""
"","","","","","","","","","","","canvas-keyboard-response","281","433045","0.0-281.0","null","null","","","","","","","","","","","","","","stimulus","","","2","18","","","","","","","","","",""
"","","","","","","","","","","","canvas-button-response","282","436172","0.0-282.0","3125","bridge","","","","","","","","","","","","","","perceptual","","","2","18","","","","","260","train","10","0","0",""
"","","","","","","","","","","","canvas-button-response","283","436972","0.0-283.0","798","1","","","","","","","","","","","","","","confidence","","","2","18","","","","","","","","","","10"
"","","","","","","","","","","","preload","284","436974","0.0-284.0","","","","","true","","","","","","","","","","","preload","","","2","19","false","[]","[]","[]","","","","","",""
"","","","","","","","","","","","canvas-keyboard-response","285","437276","0.0-285.0","null","null","","","","","","","","","","","","","","fixation","","","2","19","","","","","","","","","",""
"","","","","","","","","","","","canvas-keyboard-response","286","437579","0.0-286.0","null","null","","","","","","","","","","","","","","stimulus","","","2","19","","","","","","","","","",""
"","","","","","","","","","","","canvas-button-response","287","442205","0.0-287.0","4624","bed","","","","","","","","","","","","","","perceptual","","","2","19","","","","","106","phone","10","0","0",""
"","","","","","","","","","","","canvas-button-response","288","443139","0.0-288.0","931","2","","","","","","","","","","","","","","confidence","","","2","19","","","","","","","","","","10"
"","","","","","","","","","","","preload","289","443140","0.0-289.0","","","","","true","","","","","","","","","","","preload","","","2","20","false","[]","[]","[]","","","","","",""
"","","","","","","","","","","","canvas-keyboard-response","290","443442","0.0-290.0","null","null","","","","","","","","","","","","","","fixation","","","2","20","","","","","","","","","",""
"","","","","","","","","","","","canvas-keyboard-response","291","443745","0.0-291.0","null","null","","","","","","","","","","","","","","stimulus","","","2","20","","","","","","","","","",""
"","","","","","","","","","","","canvas-button-response","292","445555","0.0-292.0","1808","cat","","","","","","","","","","","","","","perceptual","","","2","20","","","","","108","phone","10","0","0",""
"","","","","","","","","","","","canvas-button-response","293","446205","0.0-293.0","647","4","","","","","","","","","","","","","","confidence","","","2","20","","","","","","","","","","10"
"","","","","","","","","","","","preload","294","446206","0.0-294.0","","","","","true","","","","","","","","","","","preload","","","2","21","false","[]","[]","[]","","","","","",""
"","","","","","","","","","","","canvas-keyboard-response","295","446508","0.0-295.0","null","null","","","","","","","","","","","","","","fixation","","","2","21","","","","","","","","","",""
"","","","","","","","","","","","canvas-keyboard-response","296","446811","0.0-296.0","null","null","","","","","","","","","","","","","","stimulus","","","2","21","","","","","","","","","",""
"","","","","","","","","","","","canvas-button-response","297","449172","0.0-297.0","2359","bridge","","","","","","","","","","","","","","perceptual","","","2","21","","","","","170","bridge","6","0","1",""
"","","","","","","","","","","","canvas-button-response","298","449989","0.0-298.0","814","6","","","","","","","","","","","","","","confidence","","","2","21","","","","","","","","","","11"
"","","","","","","","","","","","preload","299","449990","0.0-299.0","","","","","true","","","","","","","","","","","preload","","","2","22","false","[]","[]","[]","","","","","",""
"","","","","","","","","","","","canvas-keyboard-response","300","450293","0.0-300.0","null","null","","","","","","","","","","","","","","fixation","","","2","22","","","","","","","","","",""
"","","","","","","","","","","","canvas-keyboard-response","301","450596","0.0-301.0","null","null","","","","","","","","","","","","","","stimulus","","","2","22","","","","","","","","","",""
"","","","","","","","","","","","canvas-button-response","302","452055","0.0-302.0","1457","bed","","","","","","","","","","","","","","perceptual","","","2","22","","","","","148","bed","10","0","1",""
"","","","","","","","","","","","canvas-button-response","303","452839","0.0-303.0","781","7","","","","","","","","","","","","","","confidence","","","2","22","","","","","","","","","","12"
"","","","","","","","","","","","preload","304","452840","0.0-304.0","","","","","true","","","","","","","","","","","preload","","","2","23","false","[]","[]","[]","","","","","",""
"","","","","","","","","","","","canvas-keyboard-response","305","453143","0.0-305.0","null","null","","","","","","","","","","","","","","fixation","","","2","23","","","","","","","","","",""
"","","","","","","","","","","","canvas-keyboard-response","306","453445","0.0-306.0","null","null","","","","","","","","","","","","","","stimulus","","","2","23","","","","","","","","","",""
"","","","","","","","","","","","canvas-button-response","307","454321","0.0-307.0","874","car","","","","","","","","","","","","","","perceptual","","","2","23","","","","","47","car","6","0","1",""
"","","","","","","","","","","","canvas-button-response","308","454972","0.0-308.0","648","10","","","","","","","","","","","","","","confidence","","","2","23","","","","","","","","","","13"
"","","","","","","","","","","","preload","309","454973","0.0-309.0","","","","","true","","","","","","","","","","","preload","","","2","24","false","[]","[]","[]","","","","","",""
"","","","","","","","","","","","canvas-keyboard-response","310","455275","0.0-310.0","null","null","","","","","","","","","","","","","","fixation","","","2","24","","","","","","","","","",""
"","","","","","","","","","","","canvas-keyboard-response","311","455578","0.0-311.0","null","null","","","","","","","","","","","","","","stimulus","","","2","24","","","","","","","","","",""
"","","","","","","","","","","","canvas-button-response","312","456655","0.0-312.0","1075","flower","","","","","","","","","","","","","","perceptual","","","2","24","","","","","205","flower","6","0","1",""
"","","","","","","","","","","","canvas-button-response","313","457839","0.0-313.0","1181","10","","","","","","","","","","","","","","confidence","","","2","24","","","","","","","","","","14"
"","","","","","","","","","","","preload","314","457840","0.0-314.0","","","","","true","","","","","","","","","","","preload","","","2","25","false","[]","[]","[]","","","","","",""
"","","","","","","","","","","","canvas-keyboard-response","315","458143","0.0-315.0","null","null","","","","","","","","","","","","","","fixation","","","2","25","","","","","","","","","",""
"","","","","","","","","","","","canvas-keyboard-response","316","458446","0.0-316.0","null","null","","","","","","","","","","","","","","stimulus","","","2","25","","","","","","","","","",""
"","","","","","","","","","","","canvas-button-response","317","460838","0.0-317.0","2390","train","","","","","","","","","","","","","","perceptual","","","2","25","","","","","112","phone","10","0","0",""
"","","","","","","","","","","","canvas-button-response","318","461772","0.0-318.0","931","4","","","","","","","","","","","","","","confidence","","","2","25","","","","","","","","","","14"
"","","","","","","","","","","","preload","319","461773","0.0-319.0","","","","","true","","","","","","","","","","","preload","","","2","26","false","[]","[]","[]","","","","","",""
"","","","","","","","","","","","canvas-keyboard-response","320","462075","0.0-320.0","null","null","","","","","","","","","","","","","","fixation","","","2","26","","","","","","","","","",""
"","","","","","","","","","","","canvas-keyboard-response","321","462378","0.0-321.0","null","null","","","","","","","","","","","","","","stimulus","","","2","26","","","","","","","","","",""
"","","","","","","","","","","","canvas-button-response","322","464122","0.0-322.0","1742","cat","","","","","","","","","","","","","","perceptual","","","2","26","","","","","155","bed","10","0","0",""
"","","","","","","","","","","","canvas-button-response","323","464704","0.0-323.0","581","1","","","","","","","","","","","","","","confidence","","","2","26","","","","","","","","","","14"
"","","","","","","","","","","","preload","324","464706","0.0-324.0","","","","","true","","","","","","","","","","","preload","","","2","27","false","[]","[]","[]","","","","","",""
"","","","","","","","","","","","canvas-keyboard-response","325","465008","0.0-325.0","null","null","","","","","","","","","","","","","","fixation","","","2","27","","","","","","","","","",""
"","","","","","","","","","","","canvas-keyboard-response","326","465311","0.0-326.0","null","null","","","","","","","","","","","","","","stimulus","","","2","27","","","","","","","","","",""
"","","","","","","","","","","","canvas-button-response","327","467072","0.0-327.0","1758","phone","","","","","","","","","","","","","","perceptual","","","2","27","","","","","89","phone","6","0","1",""
"","","","","","","","","","","","canvas-button-response","328","468122","0.0-328.0","1048","6","","","","","","","","","","","","","","confidence","","","2","27","","","","","","","","","","15"
"","","","","","","","","","","","preload","329","468123","0.0-329.0","","","","","true","","","","","","","","","","","preload","","","2","28","false","[]","[]","[]","","","","","",""
"","","","","","","","","","","","canvas-keyboard-response","330","468426","0.0-330.0","null","null","","","","","","","","","","","","","","fixation","","","2","28","","","","","","","","","",""
"","","","","","","","","","","","canvas-keyboard-response","331","468729","0.0-331.0","null","null","","","","","","","","","","","","","","stimulus","","","2","28","","","","","","","","","",""
"","","","","","","","","","","","canvas-button-response","332","471854","0.0-332.0","3123","flower","","","","","","","","","","","","","","perceptual","","","2","28","","","","","81","phone","6","0","0",""
"","","","","","","","","","","","canvas-button-response","333","472855","0.0-333.0","998","3","","","","","","","","","","","","","","confidence","","","2","28","","","","","","","","","","15"
"","","","","","","","","","","","preload","334","472856","0.0-334.0","","","","","true","","","","","","","","","","","preload","","","2","29","false","[]","[]","[]","","","","","",""
"","","","","","","","","","","","canvas-keyboard-response","335","473159","0.0-335.0","null","null","","","","","","","","","","","","","","fixation","","","2","29","","","","","","","","","",""
"","","","","","","","","","","","canvas-keyboard-response","336","473462","0.0-336.0","null","null","","","","","","","","","","","","","","stimulus","","","2","29","","","","","","","","","",""
"","","","","","","","","","","","canvas-button-response","337","475905","0.0-337.0","2441","elephant","","","","","","","","","","","","","","perceptual","","","2","29","","","","","325","elephant","6","0","1",""
"","","","","","","","","","","","canvas-button-response","338","476605","0.0-338.0","698","5","","","","","","","","","","","","","","confidence","","","2","29","","","","","","","","","","16"
"","","","","","","","","","","","preload","339","476606","0.0-339.0","","","","","true","","","","","","","","","","","preload","","","2","30","false","[]","[]","[]","","","","","",""
"","","","","","","","","","","","canvas-keyboard-response","340","476909","0.0-340.0","null","null","","","","","","","","","","","","","","fixation","","","2","30","","","","","","","","","",""
"","","","","","","","","","","","canvas-keyboard-response","341","477212","0.0-341.0","null","null","","","","","","","","","","","","","","stimulus","","","2","30","","","","","","","","","",""
"","","","","","","","","","","","canvas-button-response","342","478505","0.0-342.0","1291","flower","","","","","","","","","","","","","","perceptual","","","2","30","","","","","9","house","6","0","0",""
"","","","","","","","","","","","canvas-button-response","343","479222","0.0-343.0","713","7","","","","","","","","","","","","","","confidence","","","2","30","","","","","","","","","","16"
"","","","","","","","","","","","preload","344","479223","0.0-344.0","","","","","true","","","","","","","","","","","preload","","","2","31","false","[]","[]","[]","","","","","",""
"","","","","","","","","","","","canvas-keyboard-response","345","479526","0.0-345.0","null","null","","","","","","","","","","","","","","fixation","","","2","31","","","","","","","","","",""
"","","","","","","","","","","","canvas-keyboard-response","346","479829","0.0-346.0","null","null","","","","","","","","","","","","","","stimulus","","","2","31","","","","","","","","","",""
"","","","","","","","","","","","canvas-button-response","347","481622","0.0-347.0","1790","knife","","","","","","","","","","","","","","perceptual","","","2","31","","","","","375","knife","6","0","1",""
"","","","","","","","","","","","canvas-button-response","348","482671","0.0-348.0","1047","6","","","","","","","","","","","","","","confidence","","","2","31","","","","","","","","","","17"
"","","","","","","","","","","","preload","349","482673","0.0-349.0","","","","","true","","","","","","","","","","","preload","","","2","32","false","[]","[]","[]","","","","","",""
"","","","","","","","","","","","canvas-keyboard-response","350","482975","0.0-350.0","null","null","","","","","","","","","","","","","","fixation","","","2","32","","","","","","","","","",""
"","","","","","","","","","","","canvas-keyboard-response","351","483278","0.0-351.0","null","null","","","","","","","","","","","","","","stimulus","","","2","32","","","","","","","","","",""
"","","","","","","","","","","","canvas-button-response","352","484421","0.0-352.0","1141","bridge","","","","","","","","","","","","","","perceptual","","","2","32","","","","","198","bridge","10","0","1",""
"","","","","","","","","","","","canvas-button-response","353","486788","0.0-353.0","2365","8","","","","","","","","","","","","","","confidence","","","2","32","","","","","","","","","","18"
"","","","","","","","","","","","preload","354","486790","0.0-354.0","","","","","true","","","","","","","","","","","preload","","","2","33","false","[]","[]","[]","","","","","",""
"","","","","","","","","","","","canvas-keyboard-response","355","487092","0.0-355.0","null","null","","","","","","","","","","","","","","fixation","","","2","33","","","","","","","","","",""
"","","","","","","","","","","","canvas-keyboard-response","356","487393","0.0-356.0","null","null","","","","","","","","","","","","","","stimulus","","","2","33","","","","","","","","","",""
"","","","","","","","","","","","canvas-button-response","357","489438","0.0-357.0","2042","phone","","","","","","","","","","","","","","perceptual","","","2","33","","","","","104","phone","10","0","1",""
"","","","","","","","","","","","canvas-button-response","358","490222","0.0-358.0","781","6","","","","","","","","","","","","","","confidence","","","2","33","","","","","","","","","","19"
"","","","","","","","","","","","preload","359","490223","0.0-359.0","","","","","true","","","","","","","","","","","preload","","","2","34","false","[]","[]","[]","","","","","",""
"","","","","","","","","","","","canvas-keyboard-response","360","490526","0.0-360.0","null","null","","","","","","","","","","","","","","fixation","","","2","34","","","","","","","","","",""
"","","","","","","","","","","","canvas-keyboard-response","361","490829","0.0-361.0","null","null","","","","","","","","","","","","","","stimulus","","","2","34","","","","","","","","","",""
"","","","","","","","","","","","canvas-button-response","362","492788","0.0-362.0","1957","elephant","","","","","","","","","","","","","","perceptual","","","2","34","","","","","64","car","10","0","0",""
"","","","","","","","","","","","canvas-button-response","363","493588","0.0-363.0","797","8","","","","","","","","","","","","","","confidence","","","2","34","","","","","","","","","","19"
"","","","","","","","","","","","preload","364","493589","0.0-364.0","","","","","true","","","","","","","","","","","preload","","","2","35","false","[]","[]","[]","","","","","",""
"","","","","","","","","","","","canvas-keyboard-response","365","493892","0.0-365.0","null","null","","","","","","","","","","","","","","fixation","","","2","35","","","","","","","","","",""
"","","","","","","","","","","","canvas-keyboard-response","366","494195","0.0-366.0","null","null","","","","","","","","","","","","","","stimulus","","","2","35","","","","","","","","","",""
"","","","","","","","","","","","canvas-button-response","367","497521","0.0-367.0","3324","flower","","","","","","","","","","","","","","perceptual","","","2","35","","","","","233","flower","10","0","1",""
"","","","","","","","","","","","canvas-button-response","368","498255","0.0-368.0","731","7","","","","","","","","","","","","","","confidence","","","2","35","","","","","","","","","","20"
"","","","","","","","","","","","preload","369","498256","0.0-369.0","","","","","true","","","","","","","","","","","preload","","","2","36","false","[]","[]","[]","","","","","",""
"","","","","","","","","","","","canvas-keyboard-response","370","498559","0.0-370.0","null","null","","","","","","","","","","","","","","fixation","","","2","36","","","","","","","","","",""
"","","","","","","","","","","","canvas-keyboard-response","371","498862","0.0-371.0","null","null","","","","","","","","","","","","","","stimulus","","","2","36","","","","","","","","","",""
"","","","","","","","","","","","canvas-button-response","372","499788","0.0-372.0","923","phone","","","","","","","","","","","","","","perceptual","","","2","36","","","","","83","phone","6","0","1",""
"","","","","","","","","","","","canvas-button-response","373","500421","0.0-373.0","631","8","","","","","","","","","","","","","","confidence","","","2","36","","","","","","","","","","21"
"","","","","","","","","","","","preload","374","500422","0.0-374.0","","","","","true","","","","","","","","","","","preload","","","2","37","false","[]","[]","[]","","","","","",""
"","","","","","","","","","","","canvas-keyboard-response","375","500726","0.0-375.0","null","null","","","","","","","","","","","","","","fixation","","","2","37","","","","","","","","","",""
"","","","","","","","","","","","canvas-keyboard-response","376","501028","0.0-376.0","null","null","","","","","","","","","","","","","","stimulus","","","2","37","","","","","","","","","",""
"","","","","","","","","","","","canvas-button-response","377","502854","0.0-377.0","1824","car","","","","","","","","","","","","","","perceptual","","","2","37","","","","","71","car","10","0","1",""
"","","","","","","","","","","","canvas-button-response","378","503521","0.0-378.0","665","4","","","","","","","","","","","","","","confidence","","","2","37","","","","","","","","","","22"
"","","","","","","","","","","","preload","379","503523","0.0-379.0","","","","","true","","","","","","","","","","","preload","","","2","38","false","[]","[]","[]","","","","","",""
"","","","","","","","","","","","canvas-keyboard-response","380","503825","0.0-380.0","null","null","","","","","","","","","","","","","","fixation","","","2","38","","","","","","","","","",""
"","","","","","","","","","","","canvas-keyboard-response","381","504128","0.0-381.0","null","null","","","","","","","","","","","","","","stimulus","","","2","38","","","","","","","","","",""
"","","","","","","","","","","","canvas-button-response","382","505105","0.0-382.0","974","elephant","","","","","","","","","","","","","","perceptual","","","2","38","","","","","352","elephant","10","0","1",""
"","","","","","","","","","","","canvas-button-response","383","505705","0.0-383.0","598","10","","","","","","","","","","","","","","confidence","","","2","38","","","","","","","","","","23"
"","","","","","","","","","","","preload","384","505706","0.0-384.0","","","","","true","","","","","","","","","","","preload","","","2","39","false","[]","[]","[]","","","","","",""
"","","","","","","","","","","","canvas-keyboard-response","385","506008","0.0-385.0","null","null","","","","","","","","","","","","","","fixation","","","2","39","","","","","","","","","",""
"","","","","","","","","","","","canvas-keyboard-response","386","506311","0.0-386.0","null","null","","","","","","","","","","","","","","stimulus","","","2","39","","","","","","","","","",""
"","","","","","","","","","","","canvas-button-response","387","507054","0.0-387.0","741","cat","","","","","","","","","","","","","","perceptual","","","2","39","","","","","317","cat","10","0","1",""
"","","","","","","","","","","","canvas-button-response","388","507754","0.0-388.0","697","10","","","","","","","","","","","","","","confidence","","","2","39","","","","","","","","","","24"
"","","","","","","","","","","","preload","389","507756","0.0-389.0","","","","","true","","","","","","","","","","","preload","","","2","40","false","[]","[]","[]","","","","","",""
"","","","","","","","","","","","canvas-keyboard-response","390","508058","0.0-390.0","null","null","","","","","","","","","","","","","","fixation","","","2","40","","","","","","","","","",""
"","","","","","","","","","","","canvas-keyboard-response","391","508361","0.0-391.0","null","null","","","","","","","","","","","","","","stimulus","","","2","40","","","","","","","","","",""
"","","","","","","","","","","","canvas-button-response","392","509404","0.0-392.0","1041","bed","","","","","","","","","","","","","","perceptual","","","2","40","","","","","124","bed","6","0","1",""
"","","","","","","","","","","","canvas-button-response","393","510204","0.0-393.0","798","10","","","","","","","","","","","","","","confidence","","","2","40","","","","","","","","","","25"
"","","","","","","","","","","","preload","394","510206","0.0-394.0","","","","","true","","","","","","","","","","","preload","","","2","41","false","[]","[]","[]","","","","","",""
"","","","","","","","","","","","canvas-keyboard-response","395","510509","0.0-395.0","null","null","","","","","","","","","","","","","","fixation","","","2","41","","","","","","","","","",""
"","","","","","","","","","","","canvas-keyboard-response","396","510812","0.0-396.0","null","null","","","","","","","","","","","","","","stimulus","","","2","41","","","","","","","","","",""
"","","","","","","","","","","","canvas-button-response","397","511572","0.0-397.0","757","train","","","","","","","","","","","","","","perceptual","","","2","41","","","","","252","train","6","0","1",""
"","","","","","","","","","","","canvas-button-response","398","512188","0.0-398.0","613","10","","","","","","","","","","","","","","confidence","","","2","41","","","","","","","","","","26"
"","","","","","","","","","","","preload","399","512189","0.0-399.0","","","","","true","","","","","","","","","","","preload","","","2","42","false","[]","[]","[]","","","","","",""
"","","","","","","","","","","","canvas-keyboard-response","400","512492","0.0-400.0","null","null","","","","","","","","","","","","","","fixation","","","2","42","","","","","","","","","",""
"","","","","","","","","","","","canvas-keyboard-response","401","512795","0.0-401.0","null","null","","","","","","","","","","","","","","stimulus","","","2","42","","","","","","","","","",""
"","","","","","","","","","","","canvas-button-response","402","515271","0.0-402.0","2474","bridge","","","","","","","","","","","","","","perceptual","","","2","42","","","","","334","elephant","6","0","0",""
"","","","","","","","","","","","canvas-button-response","403","516205","0.0-403.0","931","3","","","","","","","","","","","","","","confidence","","","2","42","","","","","","","","","","26"
"","","","","","","","","","","","preload","404","516206","0.0-404.0","","","","","true","","","","","","","","","","","preload","","","2","43","false","[]","[]","[]","","","","","",""
"","","","","","","","","","","","canvas-keyboard-response","405","516508","0.0-405.0","null","null","","","","","","","","","","","","","","fixation","","","2","43","","","","","","","","","",""
"","","","","","","","","","","","canvas-keyboard-response","406","516811","0.0-406.0","null","null","","","","","","","","","","","","","","stimulus","","","2","43","","","","","","","","","",""
"","","","","","","","","","","","canvas-button-response","407","523221","0.0-407.0","6407","house","","","","","","","","","","","","","","perceptual","","","2","43","","","","","382","knife","10","0","0",""
"","","","","","","","","","","","canvas-button-response","408","523954","0.0-408.0","731","1","","","","","","","","","","","","","","confidence","","","2","43","","","","","","","","","","26"
"","","","","","","","","","","","preload","409","523956","0.0-409.0","","","","","true","","","","","","","","","","","preload","","","2","44","false","[]","[]","[]","","","","","",""
"","","","","","","","","","","","canvas-keyboard-response","410","524258","0.0-410.0","null","null","","","","","","","","","","","","","","fixation","","","2","44","","","","","","","","","",""
"","","","","","","","","","","","canvas-keyboard-response","411","524561","0.0-411.0","null","null","","","","","","","","","","","","","","stimulus","","","2","44","","","","","","","","","",""
"","","","","","","","","","","","canvas-button-response","412","528488","0.0-412.0","3924","bridge","","","","","","","","","","","","","","perceptual","","","2","44","","","","","270","train","10","0","0",""
"","","","","","","","","","","","canvas-button-response","413","529438","0.0-413.0","948","3","","","","","","","","","","","","","","confidence","","","2","44","","","","","","","","","","26"
"","","","","","","","","","","","preload","414","529439","0.0-414.0","","","","","true","","","","","","","","","","","preload","","","2","45","false","[]","[]","[]","","","","","",""
"","","","","","","","","","","","canvas-keyboard-response","415","529742","0.0-415.0","null","null","","","","","","","","","","","","","","fixation","","","2","45","","","","","","","","","",""
"","","","","","","","","","","","canvas-keyboard-response","416","530045","0.0-416.0","null","null","","","","","","","","","","","","","","stimulus","","","2","45","","","","","","","","","",""
"","","","","","","","","","","","canvas-button-response","417","530904","0.0-417.0","857","bed","","","","","","","","","","","","","","perceptual","","","2","45","","","","","154","bed","10","0","1",""
"","","","","","","","","","","","canvas-button-response","418","531721","0.0-418.0","814","10","","","","","","","","","","","","","","confidence","","","2","45","","","","","","","","","","27"
"","","","","","","","","","","","preload","419","531723","0.0-419.0","","","","","true","","","","","","","","","","","preload","","","2","46","false","[]","[]","[]","","","","","",""
"","","","","","","","","","","","canvas-keyboard-response","420","532026","0.0-420.0","null","null","","","","","","","","","","","","","","fixation","","","2","46","","","","","","","","","",""
"","","","","","","","","","","","canvas-keyboard-response","421","532329","0.0-421.0","null","null","","","","","","","","","","","","","","stimulus","","","2","46","","","","","","","","","",""
"","","","","","","","","","","","canvas-button-response","422","535638","0.0-422.0","3307","flower","","","","","","","","","","","","","","perceptual","","","2","46","","","","","314","cat","10","0","0",""
"","","","","","","","","","","","canvas-button-response","423","536971","0.0-423.0","1330","4","","","","","","","","","","","","","","confidence","","","2","46","","","","","","","","","","27"
"","","","","","","","","","","","preload","424","536972","0.0-424.0","","","","","true","","","","","","","","","","","preload","","","2","47","false","[]","[]","[]","","","","","",""
"","","","","","","","","","","","canvas-keyboard-response","425","537275","0.0-425.0","null","null","","","","","","","","","","","","","","fixation","","","2","47","","","","","","","","","",""
"","","","","","","","","","","","canvas-keyboard-response","426","537578","0.0-426.0","null","null","","","","","","","","","","","","","","stimulus","","","2","47","","","","","","","","","",""
"","","","","","","","","","","","canvas-button-response","427","538371","0.0-427.0","790","elephant","","","","","","","","","","","","","","perceptual","","","2","47","","","","","356","elephant","10","0","1",""
"","","","","","","","","","","","canvas-button-response","428","538871","0.0-428.0","497","10","","","","","","","","","","","","","","confidence","","","2","47","","","","","","","","","","28"
"","","","","","","","","","","","preload","429","538872","0.0-429.0","","","","","true","","","","","","","","","","","preload","","","2","48","false","[]","[]","[]","","","","","",""
"","","","","","","","","","","","canvas-keyboard-response","430","539174","0.0-430.0","null","null","","","","","","","","","","","","","","fixation","","","2","48","","","","","","","","","",""
"","","","","","","","","","","","canvas-keyboard-response","431","539477","0.0-431.0","null","null","","","","","","","","","","","","","","stimulus","","","2","48","","","","","","","","","",""
"","","","","","","","","","","","canvas-button-response","432","541687","0.0-432.0","2208","elephant","","","","","","","","","","","","","","perceptual","","","2","48","","","","","30","house","10","0","0",""
"","","","","","","","","","","","canvas-button-response","433","542321","0.0-433.0","631","9","","","","","","","","","","","","","","confidence","","","2","48","","","","","","","","","","28"
"","","","","","","","","","","","preload","434","542323","0.0-434.0","","","","","true","","","","","","","","","","","preload","","","2","49","false","[]","[]","[]","","","","","",""
"","","","","","","","","","","","canvas-keyboard-response","435","542625","0.0-435.0","null","null","","","","","","","","","","","","","","fixation","","","2","49","","","","","","","","","",""
"","","","","","","","","","","","canvas-keyboard-response","436","542928","0.0-436.0","null","null","","","","","","","","","","","","","","stimulus","","","2","49","","","","","","","","","",""
"","","","","","","","","","","","canvas-button-response","437","545454","0.0-437.0","2524","bed","","","","","","","","","","","","","","perceptual","","","2","49","","","","","347","elephant","10","0","0",""
"","","","","","","","","","","","canvas-button-response","438","546438","0.0-438.0","981","6","","","","","","","","","","","","","","confidence","","","2","49","","","","","","","","","","28"
"","","","","","","","","","","","html-button-response","439","570188","0.0-439.0","23747","0","","","","","","","","","","","","","","<p style=""font-size:20px;color:#000000"">You got 28 out of 50 trials correct in this block.<br><br>You have completed 6% of the experiment.<br><br>Take a short break.<br><br>When you are ready, click Continue to proceed.","","","2","49","","","","","","","","","",""
"","","","","","","","","","","","html-keyboard-response","440","571192","0.0-440.0","null","null","","","","","","","","","","","","","","<p style=""font-size:32px;color:#000000""><br><br> RUN: &nbsp 1/4 <br><br> BLOCK: 2/4 ","","","2","49","","","","","","","","","",""
"","","","","","","","","","","","preload","441","571193","0.0-441.0","","","","","true","","","","","","","","","","","preload","","","2","50","false","[]","[]","[]","","","","","",""
"","","","","","","","","","","","canvas-keyboard-response","442","571496","0.0-442.0","null","null","","","","","","","","","","","","","","fixation","","","2","50","","","","","","","","","",""
"","","","","","","","","","","","canvas-keyboard-response","443","571799","0.0-443.0","null","null","","","","","","","","","","","","","","stimulus","","","2","50","","","","","","","","","",""
"","","","","","","","","","","","canvas-button-response","444","573621","0.0-444.0","1820","cat","","","","","","","","","","","","","","perceptual","","","2","50","","","","","343","elephant","10","0","0",""
"","","","","","","","","","","","canvas-button-response","445","574487","0.0-445.0","864","5","","","","","","","","","","","","","","confidence","","","2","50","","","","","","","","","","0"
"","","","","","","","","","","","preload","446","574489","0.0-446.0","","","","","true","","","","","","","","","","","preload","","","2","51","false","[]","[]","[]","","","","","",""
"","","","","","","","","","","","canvas-keyboard-response","447","574791","0.0-447.0","null","null","","","","","","","","","","","","","","fixation","","","2","51","","","","","","","","","",""
"","","","","","","","","","","","canvas-keyboard-response","448","575093","0.0-448.0","null","null","","","","","","","","","","","","","","stimulus","","","2","51","","","","","","","","","",""
"","","","","","","","","","","","canvas-button-response","449","576187","0.0-449.0","1092","train","","","","","","","","","","","","","","perceptual","","","2","51","","","","","276","train","10","0","1",""
"","","","","","","","","","","","canvas-button-response","450","576803","0.0-450.0","614","8","","","","","","","","","","","","","","confidence","","","2","51","","","","","","","","","","1"
"","","","","","","","","","","","preload","451","576805","0.0-451.0","","","","","true","","","","","","","","","","","preload","","","2","52","false","[]","[]","[]","","","","","",""
"","","","","","","","","","","","canvas-keyboard-response","452","577106","0.0-452.0","null","null","","","","","","","","","","","","","","fixation","","","2","52","","","","","","","","","",""
"","","","","","","","","","","","canvas-keyboard-response","453","577409","0.0-453.0","null","null","","","","","","","","","","","","","","stimulus","","","2","52","","","","","","","","","",""
"","","","","","","","","","","","canvas-button-response","454","578671","0.0-454.0","1260","cat","","","","","","","","","","","","","","perceptual","","","2","52","","","","","359","elephant","10","0","0",""
"","","","","","","","","","","","canvas-button-response","455","579438","0.0-455.0","764","8","","","","","","","","","","","","","","confidence","","","2","52","","","","","","","","","","1"
"","","","","","","","","","","","preload","456","579439","0.0-456.0","","","","","true","","","","","","","","","","","preload","","","2","53","false","[]","[]","[]","","","","","",""
"","","","","","","","","","","","canvas-keyboard-response","457","579742","0.0-457.0","null","null","","","","","","","","","","","","","","fixation","","","2","53","","","","","","","","","",""
"","","","","","","","","","","","canvas-keyboard-response","458","580044","0.0-458.0","null","null","","","","","","","","","","","","","","stimulus","","","2","53","","","","","","","","","",""
"","","","","","","","","","","","canvas-button-response","459","581204","0.0-459.0","1157","bridge","","","","","","","","","","","","","","perceptual","","","2","53","","","","","174","bridge","6","0","1",""
"","","","","","","","","","","","canvas-button-response","460","581787","0.0-460.0","581","9","","","","","","","","","","","","","","confidence","","","2","53","","","","","","","","","","2"
"","","","","","","","","","","","preload","461","581788","0.0-461.0","","","","","true","","","","","","","","","","","preload","","","2","54","false","[]","[]","[]","","","","","",""
"","","","","","","","","","","","canvas-keyboard-response","462","582091","0.0-462.0","null","null","","","","","","","","","","","","","","fixation","","","2","54","","","","","","","","","",""
"","","","","","","","","","","","canvas-keyboard-response","463","582394","0.0-463.0","null","null","","","","","","","","","","","","","","stimulus","","","2","54","","","","","","","","","",""
"","","","","","","","","","","","canvas-button-response","464","583287","0.0-464.0","891","flower","","","","","","","","","","","","","","perceptual","","","2","54","","","","","206","flower","6","0","1",""
"","","","","","","","","","","","canvas-button-response","465","583904","0.0-465.0","614","10","","","","","","","","","","","","","","confidence","","","2","54","","","","","","","","","","3"
"","","","","","","","","","","","preload","466","583905","0.0-466.0","","","","","true","","","","","","","","","","","preload","","","2","55","false","[]","[]","[]","","","","","",""
"","","","","","","","","","","","canvas-keyboard-response","467","584207","0.0-467.0","null","null","","","","","","","","","","","","","","fixation","","","2","55","","","","","","","","","",""
"","","","","","","","","","","","canvas-keyboard-response","468","584510","0.0-468.0","null","null","","","","","","","","","","","","","","stimulus","","","2","55","","","","","","","","","",""
"","","","","","","","","","","","canvas-button-response","469","586371","0.0-469.0","1859","phone","","","","","","","","","","","","","","perceptual","","","2","55","","","","","86","phone","6","0","1",""
"","","","","","","","","","","","canvas-button-response","470","587004","0.0-470.0","631","10","","","","","","","","","","","","","","confidence","","","2","55","","","","","","","","","","4"
"","","","","","","","","","","","preload","471","587005","0.0-471.0","","","","","true","","","","","","","","","","","preload","","","2","56","false","[]","[]","[]","","","","","",""
"","","","","","","","","","","","canvas-keyboard-response","472","587308","0.0-472.0","null","null","","","","","","","","","","","","","","fixation","","","2","56","","","","","","","","","",""
"","","","","","","","","","","","canvas-keyboard-response","473","587611","0.0-473.0","null","null","","","","","","","","","","","","","","stimulus","","","2","56","","","","","","","","","",""
"","","","","","","","","","","","canvas-button-response","474","588437","0.0-474.0","824","cat","","","","","","","","","","","","","","perceptual","","","2","56","","","","","283","cat","6","0","1",""
"","","","","","","","","","","","canvas-button-response","475","589087","0.0-475.0","647","9","","","","","","","","","","","","","","confidence","","","2","56","","","","","","","","","","5"
"","","","","","","","","","","","preload","476","589088","0.0-476.0","","","","","true","","","","","","","","","","","preload","","","2","57","false","[]","[]","[]","","","","","",""
"","","","","","","","","","","","canvas-keyboard-response","477","589391","0.0-477.0","null","null","","","","","","","","","","","","","","fixation","","","2","57","","","","","","","","","",""
"","","","","","","","","","","","canvas-keyboard-response","478","589694","0.0-478.0","null","null","","","","","","","","","","","","","","stimulus","","","2","57","","","","","","","","","",""
"","","","","","","","","","","","canvas-button-response","479","590887","0.0-479.0","1190","train","","","","","","","","","","","","","","perceptual","","","2","57","","","","","264","train","10","0","1",""
"","","","","","","","","","","","canvas-button-response","480","591321","0.0-480.0","431","10","","","","","","","","","","","","","","confidence","","","2","57","","","","","","","","","","6"
"","","","","","","","","","","","preload","481","591322","0.0-481.0","","","","","true","","","","","","","","","","","preload","","","2","58","false","[]","[]","[]","","","","","",""
"","","","","","","","","","","","canvas-keyboard-response","482","591625","0.0-482.0","null","null","","","","","","","","","","","","","","fixation","","","2","58","","","","","","","","","",""
"","","","","","","","","","","","canvas-keyboard-response","483","591928","0.0-483.0","null","null","","","","","","","","","","","","","","stimulus","","","2","58","","","","","","","","","",""
"","","","","","","","","","","","canvas-button-response","484","593970","0.0-484.0","2040","elephant","","","","","","","","","","","","","","perceptual","","","2","58","","","","","14","house","6","0","0",""
"","","","","","","","","","","","canvas-button-response","485","595037","0.0-485.0","1065","3","","","","","","","","","","","","","","confidence","","","2","58","","","","","","","","","","6"
"","","","","","","","","","","","preload","486","595039","0.0-486.0","","","","","true","","","","","","","","","","","preload","","","2","59","false","[]","[]","[]","","","","","",""
"","","","","","","","","","","","canvas-keyboard-response","487","595341","0.0-487.0","null","null","","","","","","","","","","","","","","fixation","","","2","59","","","","","","","","","",""
"","","","","","","","","","","","canvas-keyboard-response","488","595644","0.0-488.0","null","null","","","","","","","","","","","","","","stimulus","","","2","59","","","","","","","","","",""
"","","","","","","","","","","","canvas-button-response","489","598887","0.0-489.0","3241","bridge","","","","","","","","","","","","","","perceptual","","","2","59","","","","","199","bridge","10","0","1",""
"","","","","","","","","","","","canvas-button-response","490","599689","0.0-490.0","799","6","","","","","","","","","","","","","","confidence","","","2","59","","","","","","","","","","7"
"","","","","","","","","","","","preload","491","599690","0.0-491.0","","","","","true","","","","","","","","","","","preload","","","2","60","false","[]","[]","[]","","","","","",""
