"width","height","webaudio","browser","browser_version","mobile","os","fullscreen","vsync_rate","webcam","microphone","trial_type","trial_index","time_elapsed","internal_node_id","rt","response","accuracy","view_history","success","item_width_mm","item_height_mm","item_width_px","px2mm","view_dist_mm","item_width_deg","px2deg","scale_factor","win_width_deg","win_height_deg","stimulus","datetime","subjectID","curr_triallist","trial_no","timeout","failed_images","failed_audio","failed_video","image_index","category","blur","reps","correct","running_score"
"1280","631","true","chrome","141.0.0","false","Windows 10","true","61.51","true","true","browser-check","0","989","0.0-0.0","","","","","","","","","","","","","","","","","","","","","","","","","","","","","",""
"","","","","","","","","","","","survey","1","23029","0.0-1.0","21989","{""P0_Q0"":""904151114"",""P0_Q1"":""18"",""P1_Q0"":""Female"",""P1_Q1"":""Not Hispanic or Latino"",""P1_Q2"":""Asian"",""P1_Q3"":""Corrected-to-Normal (using glasses/contacts)"",""P1_Q4"":""Right-Handed""}","[]","","","","","","","","","","","","","","","","","","","","","","","","","","",""
"","","","","","","","","","","","instructions","2","61713","0.0-2.0","38682","","","[{""page_index"":0,""viewing_time"":5116},{""page_index"":1,""viewing_time"":11640},{""page_index"":2,""viewing_time"":14191},{""page_index"":3,""viewing_time"":7735}]","","","","","","","","","","","","","","","","","","","","","","","","","",""
"","","","","","","","","","","","fullscreen","3","65044","0.0-3.0","2309","","","","true","","","","","","","","","","","","","","","","","","","","","","","","",""
"","","","","","","","","","","","virtual-chinrest","4","159902","0.0-4.0","94856","","","","","85.6","53.98","92.48551587832175","1.080230825458798","1590.52","3.082850529277392","30","2.7031259719512364","42.666666666666664","26.666666666666668","","","","","","","","","","","","","","",""
"","","","","","","","","","","","instructions","5","293233","0.0-5.0","133330","","","[{""page_index"":0,""viewing_time"":6786},{""page_index"":1,""viewing_time"":10890},{""page_index"":2,""viewing_time"":38823},{""page_index"":3,""viewing_time"":5197},{""page_index"":2,""viewing_time"":4016},{""page_index"":3,""viewing_time"":549},{""page_index"":4,""viewing_time"":19326},{""page_index"":5,""viewing_time"":1012},{""page_index"":4,""viewing_time"":5283},{""page_index"":5,""viewing_time"":36645},{""page_index"":6,""viewing_time"":4802}]","","","","","","","","","","","","","","","","","","","","","","","","","",""
"","","","","","","","","","","","html-button-response","6","297707","0.0-6.0","4471","0","","","","","","","","","","","","","","start_practice","Thu Oct 09 2025 10:15:49 GMT-0400 (Eastern Daylight Time)","26965","","","","","","","","","","","",""
"","","","","","","","","","","","preload","7","297708","0.0-7.0","","","","","true","","","","","","","","","","","preload","","","0","0","false","[]","[]","[]","","","","","",""
"","","","","","","","","","","","canvas-keyboard-response","8","298011","0.0-8.0","null","null","","","","","","","","","","","","","","fixation","","","0","0","","","","","","","","","",""
"","","","","","","","","","","","canvas-keyboard-response","9","298327","0.0-9.0","null","null","","","","","","","","","","","","","","stimulus","","","0","0","","","","","","","","","",""
"","","","","","","","","","","","canvas-button-response","10","301324","0.0-10.0","2994","house","","","","","","","","","","","","","","perceptual","","","0","0","","","","","2","house","1","","1",""
"","","","","","","","","","","","canvas-button-response","11","303515","0.0-11.0","2189","8","","","","","","","","","","","","","","confidence","","","0","0","","","","","","","","","","1"
"","","","","","","","","","","","html-keyboard-response","12","304517","0.0-12.0","null","null","","","","","","","","","","","","","","feedback","Thu Oct 09 2025 10:15:59 GMT-0400 (Eastern Daylight Time)","26965","0","0","","","","","","","","","",""
"","","","","","","","","","","","preload","13","304518","0.0-13.0","","","","","true","","","","","","","","","","","preload","","","0","1","false","[]","[]","[]","","","","","",""
"","","","","","","","","","","","canvas-keyboard-response","14","304819","0.0-14.0","null","null","","","","","","","","","","","","","","fixation","","","0","1","","","","","","","","","",""
"","","","","","","","","","","","canvas-keyboard-response","15","305127","0.0-15.0","null","null","","","","","","","","","","","","","","stimulus","","","0","1","","","","","","","","","",""
"","","","","","","","","","","","canvas-button-response","16","307349","0.0-16.0","2219","train","","","","","","","","","","","","","","perceptual","","","0","1","","","","","62","train","1","","1",""
"","","","","","","","","","","","canvas-button-response","17","308200","0.0-17.0","849","10","","","","","","","","","","","","","","confidence","","","0","1","","","","","","","","","","2"
"","","","","","","","","","","","html-keyboard-response","18","309218","0.0-18.0","null","null","","","","","","","","","","","","","","feedback","Thu Oct 09 2025 10:16:04 GMT-0400 (Eastern Daylight Time)","26965","0","1","","","","","","","","","",""
"","","","","","","","","","","","preload","19","309218","0.0-19.0","","","","","true","","","","","","","","","","","preload","","","0","2","false","[]","[]","[]","","","","","",""
"","","","","","","","","","","","canvas-keyboard-response","20","309526","0.0-20.0","null","null","","","","","","","","","","","","","","fixation","","","0","2","","","","","","","","","",""
"","","","","","","","","","","","canvas-keyboard-response","21","309827","0.0-21.0","null","null","","","","","","","","","","","","","","stimulus","","","0","2","","","","","","","","","",""
"","","","","","","","","","","","canvas-button-response","22","313565","0.0-22.0","3736","bed","","","","","","","","","","","","","","perceptual","","","0","2","","","","","32","bed","1","","1",""
"","","","","","","","","","","","canvas-button-response","23","314715","0.0-23.0","1147","10","","","","","","","","","","","","","","confidence","","","0","2","","","","","","","","","","3"
"","","","","","","","","","","","html-keyboard-response","24","315719","0.0-24.0","null","null","","","","","","","","","","","","","","feedback","Thu Oct 09 2025 10:16:11 GMT-0400 (Eastern Daylight Time)","26965","0","2","","","","","","","","","",""
"","","","","","","","","","","","preload","25","315720","0.0-25.0","","","","","true","","","","","","","","","","","preload","","","0","3","false","[]","[]","[]","","","","","",""
"","","","","","","","","","","","canvas-keyboard-response","26","316034","0.0-26.0","null","null","","","","","","","","","","","","","","fixation","","","0","3","","","","","","","","","",""
"","","","","","","","","","","","canvas-keyboard-response","27","316343","0.0-27.0","null","null","","","","","","","","","","","","","","stimulus","","","0","3","","","","","","","","","",""
"","","","","","","","","","","","canvas-button-response","28","317472","0.0-28.0","1127","cat","","","","","","","","","","","","","","perceptual","","","0","3","","","","","72","cat","1","","1",""
"","","","","","","","","","","","canvas-button-response","29","318406","0.0-29.0","932","10","","","","","","","","","","","","","","confidence","","","0","3","","","","","","","","","","4"
"","","","","","","","","","","","html-keyboard-response","30","319417","0.0-30.0","null","null","","","","","","","","","","","","","","feedback","Thu Oct 09 2025 10:16:14 GMT-0400 (Eastern Daylight Time)","26965","0","3","","","","","","","","","",""
"","","","","","","","","","","","preload","31","319418","0.0-31.0","","","","","true","","","","","","","","","","","preload","","","0","4","false","[]","[]","[]","","","","","",""
"","","","","","","","","","","","canvas-keyboard-response","32","319736","0.0-32.0","null","null","","","","","","","","","","","","","","fixation","","","0","4","","","","","","","","","",""
"","","","","","","","","","","","canvas-keyboard-response","33","320051","0.0-33.0","null","null","","","","","","","","","","","","","","stimulus","","","0","4","","","","","","","","","",""
"","","","","","","","","","","","canvas-button-response","34","323039","0.0-34.0","2986","knife","","","","","","","","","","","","","","perceptual","","","0","4","","","","","92","knife","1","","1",""
"","","","","","","","","","","","canvas-button-response","35","324180","0.0-35.0","1140","10","","","","","","","","","","","","","","confidence","","","0","4","","","","","","","","","","5"
"","","","","","","","","","","","html-keyboard-response","36","325189","0.0-36.0","null","null","","","","","","","","","","","","","","feedback","Thu Oct 09 2025 10:16:20 GMT-0400 (Eastern Daylight Time)","26965","0","4","","","","","","","","","",""
"","","","","","","","","","","","preload","37","325190","0.0-37.0","","","","","true","","","","","","","","","","","preload","","","0","5","false","[]","[]","[]","","","","","",""
"","","","","","","","","","","","canvas-keyboard-response","38","325493","0.0-38.0","null","null","","","","","","","","","","","","","","fixation","","","0","5","","","","","","","","","",""
"","","","","","","","","","","","canvas-keyboard-response","39","325797","0.0-39.0","null","null","","","","","","","","","","","","","","stimulus","","","0","5","","","","","","","","","",""
"","","","","","","","","","","","canvas-button-response","40","327488","0.0-40.0","1690","bridge","","","","","","","","","","","","","","perceptual","","","0","5","","","","","42","bridge","1","","1",""
"","","","","","","","","","","","canvas-button-response","41","328547","0.0-41.0","1056","10","","","","","","","","","","","","","","confidence","","","0","5","","","","","","","","","","6"
"","","","","","","","","","","","html-keyboard-response","42","329560","0.0-42.0","null","null","","","","","","","","","","","","","","feedback","Thu Oct 09 2025 10:16:24 GMT-0400 (Eastern Daylight Time)","26965","0","5","","","","","","","","","",""
"","","","","","","","","","","","preload","43","329561","0.0-43.0","","","","","true","","","","","","","","","","","preload","","","0","6","false","[]","[]","[]","","","","","",""
"","","","","","","","","","","","canvas-keyboard-response","44","329876","0.0-44.0","null","null","","","","","","","","","","","","","","fixation","","","0","6","","","","","","","","","",""
"","","","","","","","","","","","canvas-keyboard-response","45","330185","0.0-45.0","null","null","","","","","","","","","","","","","","stimulus","","","0","6","","","","","","","","","",""
"","","","","","","","","","","","canvas-button-response","46","331447","0.0-46.0","1259","phone","","","","","","","","","","","","","","perceptual","","","0","6","","","","","22","phone","1","","1",""
"","","","","","","","","","","","canvas-button-response","47","332489","0.0-47.0","1040","10","","","","","","","","","","","","","","confidence","","","0","6","","","","","","","","","","7"
"","","","","","","","","","","","html-keyboard-response","48","333499","0.0-48.0","null","null","","","","","","","","","","","","","","feedback","Thu Oct 09 2025 10:16:28 GMT-0400 (Eastern Daylight Time)","26965","0","6","","","","","","","","","",""
"","","","","","","","","","","","preload","49","333500","0.0-49.0","","","","","true","","","","","","","","","","","preload","","","0","7","false","[]","[]","[]","","","","","",""
"","","","","","","","","","","","canvas-keyboard-response","50","333816","0.0-50.0","null","null","","","","","","","","","","","","","","fixation","","","0","7","","","","","","","","","",""
"","","","","","","","","","","","canvas-keyboard-response","51","334118","0.0-51.0","null","null","","","","","","","","","","","","","","stimulus","","","0","7","","","","","","","","","",""
"","","","","","","","","","","","canvas-button-response","52","343605","0.0-52.0","9485","flower","","","","","","","","","","","","","","perceptual","","","0","7","","","","","82","elephant","1","","0",""
"","","","","","","","","","","","canvas-button-response","53","345538","0.0-53.0","1931","0","","","","","","","","","","","","","","confidence","","","0","7","","","","","","","","","","7"
"","","","","","","","","","","","html-keyboard-response","54","346555","0.0-54.0","null","null","","","","","","","","","","","","","","feedback","Thu Oct 09 2025 10:16:41 GMT-0400 (Eastern Daylight Time)","26965","0","7","","","","","","","","","",""
"","","","","","","","","","","","preload","55","346556","0.0-55.0","","","","","true","","","","","","","","","","","preload","","","0","8","false","[]","[]","[]","","","","","",""
"","","","","","","","","","","","canvas-keyboard-response","56","346859","0.0-56.0","null","null","","","","","","","","","","","","","","fixation","","","0","8","","","","","","","","","",""
"","","","","","","","","","","","canvas-keyboard-response","57","347166","0.0-57.0","null","null","","","","","","","","","","","","","","stimulus","","","0","8","","","","","","","","","",""
"","","","","","","","","","","","canvas-button-response","58","352287","0.0-58.0","5119","house","","","","","","","","","","","","","","perceptual","","","0","8","","","","","52","flower","1","","0",""
"","","","","","","","","","","","canvas-button-response","59","354437","0.0-59.0","2148","4","","","","","","","","","","","","","","confidence","","","0","8","","","","","","","","","","7"
"","","","","","","","","","","","html-keyboard-response","60","355441","0.0-60.0","null","null","","","","","","","","","","","","","","feedback","Thu Oct 09 2025 10:16:50 GMT-0400 (Eastern Daylight Time)","26965","0","8","","","","","","","","","",""
"","","","","","","","","","","","preload","61","355442","0.0-61.0","","","","","true","","","","","","","","","","","preload","","","0","9","false","[]","[]","[]","","","","","",""
"","","","","","","","","","","","canvas-keyboard-response","62","355748","0.0-62.0","null","null","","","","","","","","","","","","","","fixation","","","0","9","","","","","","","","","",""
"","","","","","","","","","","","canvas-keyboard-response","63","356059","0.0-63.0","null","null","","","","","","","","","","","","","","stimulus","","","0","9","","","","","","","","","",""
"","","","","","","","","","","","canvas-button-response","64","357395","0.0-64.0","1334","car","","","","","","","","","","","","","","perceptual","","","0","9","","","","","12","car","1","","1",""
"","","","","","","","","","","","canvas-button-response","65","358280","0.0-65.0","883","10","","","","","","","","","","","","","","confidence","","","0","9","","","","","","","","","","8"
"","","","","","","","","","","","html-keyboard-response","66","359291","0.0-66.0","null","null","","","","","","","","","","","","","","feedback","Thu Oct 09 2025 10:16:54 GMT-0400 (Eastern Daylight Time)","26965","0","9","","","","","","","","","",""
"","","","","","","","","","","","html-button-response","67","368503","0.0-67.0","9203","0","","","","","","","","","","","","","","start_practice","Thu Oct 09 2025 10:16:55 GMT-0400 (Eastern Daylight Time)","26965","0","9","","","","","","","","","",""
"","","","","","","","","","","","preload","68","368504","0.0-68.0","","","","","true","","","","","","","","","","","preload","","","1","0","false","[]","[]","[]","","","","","",""
"","","","","","","","","","","","canvas-keyboard-response","69","368814","0.0-69.0","null","null","","","","","","","","","","","","","","fixation","","","1","0","","","","","","","","","",""
"","","","","","","","","","","","canvas-keyboard-response","70","369124","0.0-70.0","null","null","","","","","","","","","","","","","","stimulus","","","1","0","","","","","","","","","",""
"","","","","","","","","","","","canvas-button-response","71","371119","0.0-71.0","1993","bed","","","","","","","","","","","","","","perceptual","","","1","0","","","","","34","bed","6","","1",""
"","","","","","","","","","","","canvas-button-response","72","372194","0.0-72.0","1073","10","","","","","","","","","","","","","","confidence","","","1","0","","","","","","","","","","1"
"","","","","","","","","","","","html-keyboard-response","73","373200","0.0-73.0","null","null","","","","","","","","","","","","","","feedback","Thu Oct 09 2025 10:17:08 GMT-0400 (Eastern Daylight Time)","26965","1","0","","","","","","","","","",""
"","","","","","","","","","","","preload","74","373200","0.0-74.0","","","","","true","","","","","","","","","","","preload","","","1","1","false","[]","[]","[]","","","","","",""
"","","","","","","","","","","","canvas-keyboard-response","75","373508","0.0-75.0","null","null","","","","","","","","","","","","","","fixation","","","1","1","","","","","","","","","",""
"","","","","","","","","","","","canvas-keyboard-response","76","373823","0.0-76.0","null","null","","","","","","","","","","","","","","stimulus","","","1","1","","","","","","","","","",""
"","","","","","","","","","","","canvas-button-response","77","379660","0.0-77.0","5834","train","","","","","","","","","","","","","","perceptual","","","1","1","","","","","94","knife","6","","0",""
"","","","","","","","","","","","canvas-button-response","78","380768","0.0-78.0","1106","2","","","","","","","","","","","","","","confidence","","","1","1","","","","","","","","","","1"
"","","","","","","","","","","","html-keyboard-response","79","381773","0.0-79.0","null","null","","","","","","","","","","","","","","feedback","Thu Oct 09 2025 10:17:17 GMT-0400 (Eastern Daylight Time)","26965","1","1","","","","","","","","","",""
"","","","","","","","","","","","preload","80","381774","0.0-80.0","","","","","true","","","","","","","","","","","preload","","","1","2","false","[]","[]","[]","","","","","",""
"","","","","","","","","","","","canvas-keyboard-response","81","382092","0.0-81.0","null","null","","","","","","","","","","","","","","fixation","","","1","2","","","","","","","","","",""
"","","","","","","","","","","","canvas-keyboard-response","82","382397","0.0-82.0","null","null","","","","","","","","","","","","","","stimulus","","","1","2","","","","","","","","","",""
"","","","","","","","","","","","canvas-button-response","83","386019","0.0-83.0","3620","flower","","","","","","","","","","","","","","perceptual","","","1","2","","","","","84","elephant","6","","0",""
"","","","","","","","","","","","canvas-button-response","84","387044","0.0-84.0","1024","2","","","","","","","","","","","","","","confidence","","","1","2","","","","","","","","","","1"
"","","","","","","","","","","","html-keyboard-response","85","388058","0.0-85.0","null","null","","","","","","","","","","","","","","feedback","Thu Oct 09 2025 10:17:23 GMT-0400 (Eastern Daylight Time)","26965","1","2","","","","","","","","","",""
"","","","","","","","","","","","preload","86","388058","0.0-86.0","","","","","true","","","","","","","","","","","preload","","","1","3","false","[]","[]","[]","","","","","",""
"","","","","","","","","","","","canvas-keyboard-response","87","388368","0.0-87.0","null","null","","","","","","","","","","","","","","fixation","","","1","3","","","","","","","","","",""
"","","","","","","","","","","","canvas-keyboard-response","88","388686","0.0-88.0","null","null","","","","","","","","","","","","","","stimulus","","","1","3","","","","","","","","","",""
"","","","","","","","","","","","canvas-button-response","89","394510","0.0-89.0","5822","bridge","","","","","","","","","","","","","","perceptual","","","1","3","","","","","87","elephant","10","","0",""
"","","","","","","","","","","","canvas-button-response","90","396049","0.0-90.0","1536","2","","","","","","","","","","","","","","confidence","","","1","3","","","","","","","","","","1"
"","","","","","","","","","","","html-keyboard-response","91","397066","0.0-91.0","null","null","","","","","","","","","","","","","","feedback","Thu Oct 09 2025 10:17:32 GMT-0400 (Eastern Daylight Time)","26965","1","3","","","","","","","","","",""
"","","","","","","","","","","","preload","92","397067","0.0-92.0","","","","","true","","","","","","","","","","","preload","","","1","4","false","[]","[]","[]","","","","","",""
"","","","","","","","","","","","canvas-keyboard-response","93","397369","0.0-93.0","null","null","","","","","","","","","","","","","","fixation","","","1","4","","","","","","","","","",""
"","","","","","","","","","","","canvas-keyboard-response","94","397672","0.0-94.0","null","null","","","","","","","","","","","","","","stimulus","","","1","4","","","","","","","","","",""
"","","","","","","","","","","","canvas-button-response","95","402143","0.0-95.0","4469","train","","","","","","","","","","","","","","perceptual","","","1","4","","","","","44","bridge","6","","0",""
"","","","","","","","","","","","canvas-button-response","96","403480","0.0-96.0","1335","2","","","","","","","","","","","","","","confidence","","","1","4","","","","","","","","","","1"
"","","","","","","","","","","","html-keyboard-response","97","404490","0.0-97.0","null","null","","","","","","","","","","","","","","feedback","Thu Oct 09 2025 10:17:39 GMT-0400 (Eastern Daylight Time)","26965","1","4","","","","","","","","","",""
"","","","","","","","","","","","preload","98","404490","0.0-98.0","","","","","true","","","","","","","","","","","preload","","","1","5","false","[]","[]","[]","","","","","",""
"","","","","","","","","","","","canvas-keyboard-response","99","404806","0.0-99.0","null","null","","","","","","","","","","","","","","fixation","","","1","5","","","","","","","","","",""
"","","","","","","","","","","","canvas-keyboard-response","100","405109","0.0-100.0","null","null","","","","","","","","","","","","","","stimulus","","","1","5","","","","","","","","","",""
"","","","","","","","","","","","canvas-button-response","101","407566","0.0-101.0","2456","train","","","","","","","","","","","","","","perceptual","","","1","5","","","","","47","bridge","10","","0",""
"","","","","","","","","","","","canvas-button-response","102","409077","0.0-102.0","1509","10","","","","","","","","","","","","","","confidence","","","1","5","","","","","","","","","","1"
"","","","","","","","","","","","html-keyboard-response","103","410079","0.0-103.0","null","null","","","","","","","","","","","","","","feedback","Thu Oct 09 2025 10:17:45 GMT-0400 (Eastern Daylight Time)","26965","1","5","","","","","","","","","",""
"","","","","","","","","","","","preload","104","410080","0.0-104.0","","","","","true","","","","","","","","","","","preload","","","1","6","false","[]","[]","[]","","","","","",""
"","","","","","","","","","","","canvas-keyboard-response","105","410395","0.0-105.0","null","null","","","","","","","","","","","","","","fixation","","","1","6","","","","","","","","","",""
"","","","","","","","","","","","canvas-keyboard-response","106","410707","0.0-106.0","null","null","","","","","","","","","","","","","","stimulus","","","1","6","","","","","","","","","",""
"","","","","","","","","","","","canvas-button-response","107","412536","0.0-107.0","1827","phone","","","","","","","","","","","","","","perceptual","","","1","6","","","","","24","phone","6","","1",""
"","","","","","","","","","","","canvas-button-response","108","413753","0.0-108.0","1215","9","","","","","","","","","","","","","","confidence","","","1","6","","","","","","","","","","2"
"","","","","","","","","","","","html-keyboard-response","109","414760","0.0-109.0","null","null","","","","","","","","","","","","","","feedback","Thu Oct 09 2025 10:17:50 GMT-0400 (Eastern Daylight Time)","26965","1","6","","","","","","","","","",""
"","","","","","","","","","","","preload","110","414761","0.0-110.0","","","","","true","","","","","","","","","","","preload","","","1","7","false","[]","[]","[]","","","","","",""
"","","","","","","","","","","","canvas-keyboard-response","111","415076","0.0-111.0","null","null","","","","","","","","","","","","","","fixation","","","1","7","","","","","","","","","",""
"","","","","","","","","","","","canvas-keyboard-response","112","415390","0.0-112.0","null","null","","","","","","","","","","","","","","stimulus","","","1","7","","","","","","","","","",""
"","","","","","","","","","","","canvas-button-response","113","419041","0.0-113.0","3649","house","","","","","","","","","","","","","","perceptual","","","1","7","","","","","17","car","10","","0",""
"","","","","","","","","","","","canvas-button-response","114","420092","0.0-114.0","1049","7","","","","","","","","","","","","","","confidence","","","1","7","","","","","","","","","","2"
"","","","","","","","","","","","html-keyboard-response","115","421103","0.0-115.0","null","null","","","","","","","","","","","","","","feedback","Thu Oct 09 2025 10:17:56 GMT-0400 (Eastern Daylight Time)","26965","1","7","","","","","","","","","",""
"","","","","","","","","","","","preload","116","421104","0.0-116.0","","","","","true","","","","","","","","","","","preload","","","1","8","false","[]","[]","[]","","","","","",""
"","","","","","","","","","","","canvas-keyboard-response","117","421420","0.0-117.0","null","null","","","","","","","","","","","","","","fixation","","","1","8","","","","","","","","","",""
"","","","","","","","","","","","canvas-keyboard-response","118","421736","0.0-118.0","null","null","","","","","","","","","","","","","","stimulus","","","1","8","","","","","","","","","",""
"","","","","","","","","","","","canvas-button-response","119","422869","0.0-119.0","1130","flower","","","","","","","","","","","","","","perceptual","","","1","8","","","","","57","flower","10","","1",""
"","","","","","","","","","","","canvas-button-response","120","423669","0.0-120.0","798","10","","","","","","","","","","","","","","confidence","","","1","8","","","","","","","","","","3"
"","","","","","","","","","","","html-keyboard-response","121","424674","0.0-121.0","null","null","","","","","","","","","","","","","","feedback","Thu Oct 09 2025 10:17:59 GMT-0400 (Eastern Daylight Time)","26965","1","8","","","","","","","","","",""
"","","","","","","","","","","","preload","122","424675","0.0-122.0","","","","","true","","","","","","","","","","","preload","","","1","9","false","[]","[]","[]","","","","","",""
"","","","","","","","","","","","canvas-keyboard-response","123","424978","0.0-123.0","null","null","","","","","","","","","","","","","","fixation","","","1","9","","","","","","","","","",""
"","","","","","","","","","","","canvas-keyboard-response","124","425294","0.0-124.0","null","null","","","","","","","","","","","","","","stimulus","","","1","9","","","","","","","","","",""
"","","","","","","","","","","","canvas-button-response","125","427115","0.0-125.0","1820","knife","","","","","","","","","","","","","","perceptual","","","1","9","","","","","97","knife","10","","1",""
"","","","","","","","","","","","canvas-button-response","126","428415","0.0-126.0","1297","10","","","","","","","","","","","","","","confidence","","","1","9","","","","","","","","","","4"
"","","","","","","","","","","","html-keyboard-response","127","429430","0.0-127.0","null","null","","","","","","","","","","","","","","feedback","Thu Oct 09 2025 10:18:04 GMT-0400 (Eastern Daylight Time)","26965","1","9","","","","","","","","","",""
"","","","","","","","","","","","preload","128","429431","0.0-128.0","","","","","true","","","","","","","","","","","preload","","","1","10","false","[]","[]","[]","","","","","",""
"","","","","","","","","","","","canvas-keyboard-response","129","429741","0.0-129.0","null","null","","","","","","","","","","","","","","fixation","","","1","10","","","","","","","","","",""
"","","","","","","","","","","","canvas-keyboard-response","130","430044","0.0-130.0","null","null","","","","","","","","","","","","","","stimulus","","","1","10","","","","","","","","","",""
"","","","","","","","","","","","canvas-button-response","131","434565","0.0-131.0","4519","train","","","","","","","","","","","","","","perceptual","","","1","10","","","","","67","train","10","","1",""
"","","","","","","","","","","","canvas-button-response","132","436513","0.0-132.0","1946","1","","","","","","","","","","","","","","confidence","","","1","10","","","","","","","","","","5"
"","","","","","","","","","","","html-keyboard-response","133","437525","0.0-133.0","null","null","","","","","","","","","","","","","","feedback","Thu Oct 09 2025 10:18:12 GMT-0400 (Eastern Daylight Time)","26965","1","10","","","","","","","","","",""
"","","","","","","","","","","","preload","134","437525","0.0-134.0","","","","","true","","","","","","","","","","","preload","","","1","11","false","[]","[]","[]","","","","","",""
"","","","","","","","","","","","canvas-keyboard-response","135","437836","0.0-135.0","null","null","","","","","","","","","","","","","","fixation","","","1","11","","","","","","","","","",""
"","","","","","","","","","","","canvas-keyboard-response","136","438140","0.0-136.0","null","null","","","","","","","","","","","","","","stimulus","","","1","11","","","","","","","","","",""
"","","","","","","","","","","","canvas-button-response","137","439777","0.0-137.0","1635","bed","","","","","","","","","","","","","","perceptual","","","1","11","","","","","37","bed","10","","1",""
"","","","","","","","","","","","canvas-button-response","138","440563","0.0-138.0","783","9","","","","","","","","","","","","","","confidence","","","1","11","","","","","","","","","","6"
"","","","","","","","","","","","html-keyboard-response","139","441565","0.0-139.0","null","null","","","","","","","","","","","","","","feedback","Thu Oct 09 2025 10:18:16 GMT-0400 (Eastern Daylight Time)","26965","1","11","","","","","","","","","",""
"","","","","","","","","","","","preload","140","441566","0.0-140.0","","","","","true","","","","","","","","","","","preload","","","1","12","false","[]","[]","[]","","","","","",""
"","","","","","","","","","","","canvas-keyboard-response","141","441871","0.0-141.0","null","null","","","","","","","","","","","","","","fixation","","","1","12","","","","","","","","","",""
"","","","","","","","","","","","canvas-keyboard-response","142","442175","0.0-142.0","null","null","","","","","","","","","","","","","","stimulus","","","1","12","","","","","","","","","",""
"","","","","","","","","","","","canvas-button-response","143","443791","0.0-143.0","1614","house","","","","","","","","","","","","","","perceptual","","","1","12","","","","","7","house","10","","1",""
"","","","","","","","","","","","canvas-button-response","144","444563","0.0-144.0","769","9","","","","","","","","","","","","","","confidence","","","1","12","","","","","","","","","","7"
"","","","","","","","","","","","html-keyboard-response","145","445575","0.0-145.0","null","null","","","","","","","","","","","","","","feedback","Thu Oct 09 2025 10:18:20 GMT-0400 (Eastern Daylight Time)","26965","1","12","","","","","","","","","",""
"","","","","","","","","","","","preload","146","445576","0.0-146.0","","","","","true","","","","","","","","","","","preload","","","1","13","false","[]","[]","[]","","","","","",""
"","","","","","","","","","","","canvas-keyboard-response","147","445890","0.0-147.0","null","null","","","","","","","","","","","","","","fixation","","","1","13","","","","","","","","","",""
"","","","","","","","","","","","canvas-keyboard-response","148","446201","0.0-148.0","null","null","","","","","","","","","","","","","","stimulus","","","1","13","","","","","","","","","",""
"","","","","","","","","","","","canvas-button-response","149","448285","0.0-149.0","2082","cat","","","","","","","","","","","","","","perceptual","","","1","13","","","","","14","car","6","","0",""
"","","","","","","","","","","","canvas-button-response","150","448995","0.0-150.0","707","9","","","","","","","","","","","","","","confidence","","","1","13","","","","","","","","","","7"
"","","","","","","","","","","","html-keyboard-response","151","450011","0.0-151.0","null","null","","","","","","","","","","","","","","feedback","Thu Oct 09 2025 10:18:25 GMT-0400 (Eastern Daylight Time)","26965","1","13","","","","","","","","","",""
"","","","","","","","","","","","preload","152","450012","0.0-152.0","","","","","true","","","","","","","","","","","preload","","","1","14","false","[]","[]","[]","","","","","",""
"","","","","","","","","","","","canvas-keyboard-response","153","450319","0.0-153.0","null","null","","","","","","","","","","","","","","fixation","","","1","14","","","","","","","","","",""
"","","","","","","","","","","","canvas-keyboard-response","154","450635","0.0-154.0","null","null","","","","","","","","","","","","","","stimulus","","","1","14","","","","","","","","","",""
"","","","","","","","","","","","canvas-button-response","155","451818","0.0-155.0","1181","train","","","","","","","","","","","","","","perceptual","","","1","14","","","","","27","phone","10","","0",""
"","","","","","","","","","","","canvas-button-response","156","452298","0.0-156.0","477","9","","","","","","","","","","","","","","confidence","","","1","14","","","","","","","","","","7"
"","","","","","","","","","","","html-keyboard-response","157","453301","0.0-157.0","null","null","","","","","","","","","","","","","","feedback","Thu Oct 09 2025 10:18:28 GMT-0400 (Eastern Daylight Time)","26965","1","14","","","","","","","","","",""
"","","","","","","","","","","","preload","158","453301","0.0-158.0","","","","","true","","","","","","","","","","","preload","","","1","15","false","[]","[]","[]","","","","","",""
"","","","","","","","","","","","canvas-keyboard-response","159","453607","0.0-159.0","null","null","","","","","","","","","","","","","","fixation","","","1","15","","","","","","","","","",""
"","","","","","","","","","","","canvas-keyboard-response","160","453915","0.0-160.0","null","null","","","","","","","","","","","","","","stimulus","","","1","15","","","","","","","","","",""
"","","","","","","","","","","","canvas-button-response","161","455269","0.0-161.0","1351","house","","","","","","","","","","","","","","perceptual","","","1","15","","","","","4","house","6","","1",""
"","","","","","","","","","","","canvas-button-response","162","455958","0.0-162.0","687","10","","","","","","","","","","","","","","confidence","","","1","15","","","","","","","","","","8"
"","","","","","","","","","","","html-keyboard-response","163","456964","0.0-163.0","null","null","","","","","","","","","","","","","","feedback","Thu Oct 09 2025 10:18:32 GMT-0400 (Eastern Daylight Time)","26965","1","15","","","","","","","","","",""
"","","","","","","","","","","","preload","164","456966","0.0-164.0","","","","","true","","","","","","","","","","","preload","","","1","16","false","[]","[]","[]","","","","","",""
"","","","","","","","","","","","canvas-keyboard-response","165","457272","0.0-165.0","null","null","","","","","","","","","","","","","","fixation","","","1","16","","","","","","","","","",""
"","","","","","","","","","","","canvas-keyboard-response","166","457576","0.0-166.0","null","null","","","","","","","","","","","","","","stimulus","","","1","16","","","","","","","","","",""
"","","","","","","","","","","","canvas-button-response","167","460508","0.0-167.0","2930","elephant","","","","","","","","","","","","","","perceptual","","","1","16","","","","","77","cat","10","","0",""
"","","","","","","","","","","","canvas-button-response","168","461698","0.0-168.0","1188","1","","","","","","","","","","","","","","confidence","","","1","16","","","","","","","","","","8"
"","","","","","","","","","","","html-keyboard-response","169","462710","0.0-169.0","null","null","","","","","","","","","","","","","","feedback","Thu Oct 09 2025 10:18:38 GMT-0400 (Eastern Daylight Time)","26965","1","16","","","","","","","","","",""
"","","","","","","","","","","","preload","170","462710","0.0-170.0","","","","","true","","","","","","","","","","","preload","","","1","17","false","[]","[]","[]","","","","","",""
"","","","","","","","","","","","canvas-keyboard-response","171","463019","0.0-171.0","null","null","","","","","","","","","","","","","","fixation","","","1","17","","","","","","","","","",""
"","","","","","","","","","","","canvas-keyboard-response","172","463325","0.0-172.0","null","null","","","","","","","","","","","","","","stimulus","","","1","17","","","","","","","","","",""
"","","","","","","","","","","","canvas-button-response","173","464655","0.0-173.0","1327","flower","","","","","","","","","","","","","","perceptual","","","1","17","","","","","54","flower","6","","1",""
"","","","","","","","","","","","canvas-button-response","174","465316","0.0-174.0","658","10","","","","","","","","","","","","","","confidence","","","1","17","","","","","","","","","","9"
"","","","","","","","","","","","html-keyboard-response","175","466320","0.0-175.0","null","null","","","","","","","","","","","","","","feedback","Thu Oct 09 2025 10:18:41 GMT-0400 (Eastern Daylight Time)","26965","1","17","","","","","","","","","",""
"","","","","","","","","","","","preload","176","466320","0.0-176.0","","","","","true","","","","","","","","","","","preload","","","1","18","false","[]","[]","[]","","","","","",""
"","","","","","","","","","","","canvas-keyboard-response","177","466632","0.0-177.0","null","null","","","","","","","","","","","","","","fixation","","","1","18","","","","","","","","","",""
"","","","","","","","","","","","canvas-keyboard-response","178","466936","0.0-178.0","null","null","","","","","","","","","","","","","","stimulus","","","1","18","","","","","","","","","",""
"","","","","","","","","","","","canvas-button-response","179","468036","0.0-179.0","1098","cat","","","","","","","","","","","","","","perceptual","","","1","18","","","","","74","cat","6","","1",""
"","","","","","","","","","","","canvas-button-response","180","468551","0.0-180.0","513","10","","","","","","","","","","","","","","confidence","","","1","18","","","","","","","","","","10"
"","","","","","","","","","","","html-keyboard-response","181","469557","0.0-181.0","null","null","","","","","","","","","","","","","","feedback","Thu Oct 09 2025 10:18:44 GMT-0400 (Eastern Daylight Time)","26965","1","18","","","","","","","","","",""
"","","","","","","","","","","","preload","182","469557","0.0-182.0","","","","","true","","","","","","","","","","","preload","","","1","19","false","[]","[]","[]","","","","","",""
"","","","","","","","","","","","canvas-keyboard-response","183","469859","0.0-183.0","null","null","","","","","","","","","","","","","","fixation","","","1","19","","","","","","","","","",""
"","","","","","","","","","","","canvas-keyboard-response","184","470176","0.0-184.0","null","null","","","","","","","","","","","","","","stimulus","","","1","19","","","","","","","","","",""
"","","","","","","","","","","","canvas-button-response","185","470958","0.0-185.0","780","train","","","","","","","","","","","","","","perceptual","","","1","19","","","","","64","train","6","","1",""
"","","","","","","","","","","","canvas-button-response","186","471403","0.0-186.0","443","10","","","","","","","","","","","","","","confidence","","","1","19","","","","","","","","","","11"
"","","","","","","","","","","","html-keyboard-response","187","472416","0.0-187.0","null","null","","","","","","","","","","","","","","feedback","Thu Oct 09 2025 10:18:47 GMT-0400 (Eastern Daylight Time)","26965","1","19","","","","","","","","","",""
"","","","","","","","","","","","html-button-response","188","478564","0.0-188.0","6147","0","","","","","","","","","","","","","","start experiment","Thu Oct 09 2025 10:18:48 GMT-0400 (Eastern Daylight Time)","26965","1","19","","","","","","","","","",""
"","","","","","","","","","","","preload","189","478565","0.0-189.0","","","","","true","","","","","","","","","","","preload","","","2","0","false","[]","[]","[]","","","","","",""
"","","","","","","","","","","","canvas-keyboard-response","190","478869","0.0-190.0","null","null","","","","","","","","","","","","","","fixation","","","2","0","","","","","","","","","",""
"","","","","","","","","","","","canvas-keyboard-response","191","479187","0.0-191.0","null","null","","","","","","","","","","","","","","stimulus","","","2","0","","","","","","","","","",""
"","","","","","","","","","","","canvas-button-response","192","480464","0.0-192.0","1274","cat","","","","","","","","","","","","","","perceptual","","","2","0","","","","","308","cat","10","0","1",""
"","","","","","","","","","","","canvas-button-response","193","481343","0.0-193.0","877","10","","","","","","","","","","","","","","confidence","","","2","0","","","","","","","","","","1"
"","","","","","","","","","","","preload","194","481344","0.0-194.0","","","","","true","","","","","","","","","","","preload","","","2","1","false","[]","[]","[]","","","","","",""
"","","","","","","","","","","","canvas-keyboard-response","195","481652","0.0-195.0","null","null","","","","","","","","","","","","","","fixation","","","2","1","","","","","","","","","",""
"","","","","","","","","","","","canvas-keyboard-response","196","481958","0.0-196.0","null","null","","","","","","","","","","","","","","stimulus","","","2","1","","","","","","","","","",""
"","","","","","","","","","","","canvas-button-response","197","483733","0.0-197.0","1773","bed","","","","","","","","","","","","","","perceptual","","","2","1","","","","","158","bed","10","0","1",""
"","","","","","","","","","","","canvas-button-response","198","484644","0.0-198.0","909","10","","","","","","","","","","","","","","confidence","","","2","1","","","","","","","","","","2"
"","","","","","","","","","","","preload","199","484645","0.0-199.0","","","","","true","","","","","","","","","","","preload","","","2","2","false","[]","[]","[]","","","","","",""
"","","","","","","","","","","","canvas-keyboard-response","200","484951","0.0-200.0","null","null","","","","","","","","","","","","","","fixation","","","2","2","","","","","","","","","",""
"","","","","","","","","","","","canvas-keyboard-response","201","485269","0.0-201.0","null","null","","","","","","","","","","","","","","stimulus","","","2","2","","","","","","","","","",""
"","","","","","","","","","","","canvas-button-response","202","486565","0.0-202.0","1294","car","","","","","","","","","","","","","","perceptual","","","2","2","","","","","49","car","6","0","1",""
"","","","","","","","","","","","canvas-button-response","203","487267","0.0-203.0","700","10","","","","","","","","","","","","","","confidence","","","2","2","","","","","","","","","","3"
"","","","","","","","","","","","preload","204","487268","0.0-204.0","","","","","true","","","","","","","","","","","preload","","","2","3","false","[]","[]","[]","","","","","",""
"","","","","","","","","","","","canvas-keyboard-response","205","487576","0.0-205.0","null","null","","","","","","","","","","","","","","fixation","","","2","3","","","","","","","","","",""
"","","","","","","","","","","","canvas-keyboard-response","206","487889","0.0-206.0","null","null","","","","","","","","","","","","","","stimulus","","","2","3","","","","","","","","","",""
"","","","","","","","","","","","canvas-button-response","207","490274","0.0-207.0","2382","bridge","","","","","","","","","","","","","","perceptual","","","2","3","","","","","293","cat","6","0","0",""
"","","","","","","","","","","","canvas-button-response","208","490997","0.0-208.0","721","1","","","","","","","","","","","","","","confidence","","","2","3","","","","","","","","","","3"
"","","","","","","","","","","","preload","209","490998","0.0-209.0","","","","","true","","","","","","","","","","","preload","","","2","4","false","[]","[]","[]","","","","","",""
"","","","","","","","","","","","canvas-keyboard-response","210","491315","0.0-210.0","null","null","","","","","","","","","","","","","","fixation","","","2","4","","","","","","","","","",""
"","","","","","","","","","","","canvas-keyboard-response","211","491617","0.0-211.0","null","null","","","","","","","","","","","","","","stimulus","","","2","4","","","","","","","","","",""
"","","","","","","","","","","","canvas-button-response","212","493206","0.0-212.0","1587","bridge","","","","","","","","","","","","","","perceptual","","","2","4","","","","","183","bridge","10","0","1",""
"","","","","","","","","","","","canvas-button-response","213","494243","0.0-213.0","1034","8","","","","","","","","","","","","","","confidence","","","2","4","","","","","","","","","","4"
"","","","","","","","","","","","preload","214","494244","0.0-214.0","","","","","true","","","","","","","","","","","preload","","","2","5","false","[]","[]","[]","","","","","",""
"","","","","","","","","","","","canvas-keyboard-response","215","494558","0.0-215.0","null","null","","","","","","","","","","","","","","fixation","","","2","5","","","","","","","","","",""
"","","","","","","","","","","","canvas-keyboard-response","216","494874","0.0-216.0","null","null","","","","","","","","","","","","","","stimulus","","","2","5","","","","","","","","","",""
"","","","","","","","","","","","canvas-button-response","217","496328","0.0-217.0","1452","flower","","","","","","","","","","","","","","perceptual","","","2","5","","","","","228","flower","10","0","1",""
"","","","","","","","","","","","canvas-button-response","218","497061","0.0-218.0","731","6","","","","","","","","","","","","","","confidence","","","2","5","","","","","","","","","","5"
"","","","","","","","","","","","preload","219","497062","0.0-219.0","","","","","true","","","","","","","","","","","preload","","","2","6","false","[]","[]","[]","","","","","",""
"","","","","","","","","","","","canvas-keyboard-response","220","497374","0.0-220.0","null","null","","","","","","","","","","","","","","fixation","","","2","6","","","","","","","","","",""
"","","","","","","","","","","","canvas-keyboard-response","221","497690","0.0-221.0","null","null","","","","","","","","","","","","","","stimulus","","","2","6","","","","","","","","","",""
"","","","","","","","","","","","canvas-button-response","222","502784","0.0-222.0","5092","bridge","","","","","","","","","","","","","","perceptual","","","2","6","","","","","250","train","6","0","0",""
"","","","","","","","","","","","canvas-button-response","223","503864","0.0-223.0","1077","0","","","","","","","","","","","","","","confidence","","","2","6","","","","","","","","","","5"
"","","","","","","","","","","","preload","224","503864","0.0-224.0","","","","","true","","","","","","","","","","","preload","","","2","7","false","[]","[]","[]","","","","","",""
"","","","","","","","","","","","canvas-keyboard-response","225","504169","0.0-225.0","null","null","","","","","","","","","","","","","","fixation","","","2","7","","","","","","","","","",""
"","","","","","","","","","","","canvas-keyboard-response","226","504472","0.0-226.0","null","null","","","","","","","","","","","","","","stimulus","","","2","7","","","","","","","","","",""
"","","","","","","","","","","","canvas-button-response","227","505240","0.0-227.0","767","cat","","","","","","","","","","","","","","perceptual","","","2","7","","","","","298","cat","6","0","1",""
"","","","","","","","","","","","canvas-button-response","228","505839","0.0-228.0","596","10","","","","","","","","","","","","","","confidence","","","2","7","","","","","","","","","","6"
"","","","","","","","","","","","preload","229","505840","0.0-229.0","","","","","true","","","","","","","","","","","preload","","","2","8","false","[]","[]","[]","","","","","",""
"","","","","","","","","","","","canvas-keyboard-response","230","506153","0.0-230.0","null","null","","","","","","","","","","","","","","fixation","","","2","8","","","","","","","","","",""
"","","","","","","","","","","","canvas-keyboard-response","231","506467","0.0-231.0","null","null","","","","","","","","","","","","","","stimulus","","","2","8","","","","","","","","","",""
"","","","","","","","","","","","canvas-button-response","232","508754","0.0-232.0","2285","car","","","","","","","","","","","","","","perceptual","","","2","8","","","","","159","bed","10","0","0",""
"","","","","","","","","","","","canvas-button-response","233","509631","0.0-233.0","875","1","","","","","","","","","","","","","","confidence","","","2","8","","","","","","","","","","6"
"","","","","","","","","","","","preload","234","509632","0.0-234.0","","","","","true","","","","","","","","","","","preload","","","2","9","false","[]","[]","[]","","","","","",""
"","","","","","","","","","","","canvas-keyboard-response","235","509941","0.0-235.0","null","null","","","","","","","","","","","","","","fixation","","","2","9","","","","","","","","","",""
"","","","","","","","","","","","canvas-keyboard-response","236","510250","0.0-236.0","null","null","","","","","","","","","","","","","","stimulus","","","2","9","","","","","","","","","",""
"","","","","","","","","","","","canvas-button-response","237","513341","0.0-237.0","3089","car","","","","","","","","","","","","","","perceptual","","","2","9","","","","","54","car","6","0","1",""
"","","","","","","","","","","","canvas-button-response","238","514517","0.0-238.0","1174","1","","","","","","","","","","","","","","confidence","","","2","9","","","","","","","","","","7"
"","","","","","","","","","","","preload","239","514518","0.0-239.0","","","","","true","","","","","","","","","","","preload","","","2","10","false","[]","[]","[]","","","","","",""
"","","","","","","","","","","","canvas-keyboard-response","240","514823","0.0-240.0","null","null","","","","","","","","","","","","","","fixation","","","2","10","","","","","","","","","",""
"","","","","","","","","","","","canvas-keyboard-response","241","515140","0.0-241.0","null","null","","","","","","","","","","","","","","stimulus","","","2","10","","","","","","","","","",""
"","","","","","","","","","","","canvas-button-response","242","518539","0.0-242.0","3397","house","","","","","","","","","","","","","","perceptual","","","2","10","","","","","157","bed","10","0","0",""
"","","","","","","","","","","","canvas-button-response","243","519312","0.0-243.0","770","0","","","","","","","","","","","","","","confidence","","","2","10","","","","","","","","","","7"
"","","","","","","","","","","","preload","244","519313","0.0-244.0","","","","","true","","","","","","","","","","","preload","","","2","11","false","[]","[]","[]","","","","","",""
"","","","","","","","","","","","canvas-keyboard-response","245","519621","0.0-245.0","null","null","","","","","","","","","","","","","","fixation","","","2","11","","","","","","","","","",""
"","","","","","","","","","","","canvas-keyboard-response","246","519922","0.0-246.0","null","null","","","","","","","","","","","","","","stimulus","","","2","11","","","","","","","","","",""
"","","","","","","","","","","","canvas-button-response","247","521462","0.0-247.0","1538","knife","","","","","","","","","","","","","","perceptual","","","2","11","","","","","380","knife","10","0","1",""
"","","","","","","","","","","","canvas-button-response","248","522389","0.0-248.0","924","10","","","","","","","","","","","","","","confidence","","","2","11","","","","","","","","","","8"
"","","","","","","","","","","","preload","249","522389","0.0-249.0","","","","","true","","","","","","","","","","","preload","","","2","12","false","[]","[]","[]","","","","","",""
"","","","","","","","","","","","canvas-keyboard-response","250","522706","0.0-250.0","null","null","","","","","","","","","","","","","","fixation","","","2","12","","","","","","","","","",""
"","","","","","","","","","","","canvas-keyboard-response","251","523020","0.0-251.0","null","null","","","","","","","","","","","","","","stimulus","","","2","12","","","","","","","","","",""
"","","","","","","","","","","","canvas-button-response","252","523760","0.0-252.0","738","cat","","","","","","","","","","","","","","perceptual","","","2","12","","","","","296","cat","6","0","1",""
"","","","","","","","","","","","canvas-button-response","253","524378","0.0-253.0","615","10","","","","","","","","","","","","","","confidence","","","2","12","","","","","","","","","","9"
"","","","","","","","","","","","preload","254","524379","0.0-254.0","","","","","true","","","","","","","","","","","preload","","","2","13","false","[]","[]","[]","","","","","",""
"","","","","","","","","","","","canvas-keyboard-response","255","524684","0.0-255.0","null","null","","","","","","","","","","","","","","fixation","","","2","13","","","","","","","","","",""
"","","","","","","","","","","","canvas-keyboard-response","256","524989","0.0-256.0","null","null","","","","","","","","","","","","","","stimulus","","","2","13","","","","","","","","","",""
"","","","","","","","","","","","canvas-button-response","257","525916","0.0-257.0","926","car","","","","","","","","","","","","","","perceptual","","","2","13","","","","","45","car","6","0","1",""
"","","","","","","","","","","","canvas-button-response","258","526983","0.0-258.0","1064","10","","","","","","","","","","","","","","confidence","","","2","13","","","","","","","","","","10"
"","","","","","","","","","","","preload","259","526983","0.0-259.0","","","","","true","","","","","","","","","","","preload","","","2","14","false","[]","[]","[]","","","","","",""
"","","","","","","","","","","","canvas-keyboard-response","260","527300","0.0-260.0","null","null","","","","","","","","","","","","","","fixation","","","2","14","","","","","","","","","",""
"","","","","","","","","","","","canvas-keyboard-response","261","527604","0.0-261.0","null","null","","","","","","","","","","","","","","stimulus","","","2","14","","","","","","","","","",""
"","","","","","","","","","","","canvas-button-response","262","528554","0.0-262.0","947","train","","","","","","","","","","","","","","perceptual","","","2","14","","","","","271","train","10","0","1",""
"","","","","","","","","","","","canvas-button-response","263","530011","0.0-263.0","1454","4","","","","","","","","","","","","","","confidence","","","2","14","","","","","","","","","","11"
"","","","","","","","","","","","preload","264","530011","0.0-264.0","","","","","true","","","","","","","","","","","preload","","","2","15","false","[]","[]","[]","","","","","",""
"","","","","","","","","","","","canvas-keyboard-response","265","530321","0.0-265.0","null","null","","","","","","","","","","","","","","fixation","","","2","15","","","","","","","","","",""
"","","","","","","","","","","","canvas-keyboard-response","266","530636","0.0-266.0","null","null","","","","","","","","","","","","","","stimulus","","","2","15","","","","","","","","","",""
"","","","","","","","","","","","canvas-button-response","267","532838","0.0-267.0","2199","knife","","","","","","","","","","","","","","perceptual","","","2","15","","","","","383","knife","10","0","1",""
"","","","","","","","","","","","canvas-button-response","268","533621","0.0-268.0","781","6","","","","","","","","","","","","","","confidence","","","2","15","","","","","","","","","","12"
"","","","","","","","","","","","preload","269","533622","0.0-269.0","","","","","true","","","","","","","","","","","preload","","","2","16","false","[]","[]","[]","","","","","",""
"","","","","","","","","","","","canvas-keyboard-response","270","533937","0.0-270.0","null","null","","","","","","","","","","","","","","fixation","","","2","16","","","","","","","","","",""
"","","","","","","","","","","","canvas-keyboard-response","271","534239","0.0-271.0","null","null","","","","","","","","","","","","","","stimulus","","","2","16","","","","","","","","","",""
"","","","","","","","","","","","canvas-button-response","272","536043","0.0-272.0","1802","bed","","","","","","","","","","","","","","perceptual","","","2","16","","","","","147","bed","10","0","1",""
"","","","","","","","","","","","canvas-button-response","273","536829","0.0-273.0","784","9","","","","","","","","","","","","","","confidence","","","2","16","","","","","","","","","","13"
"","","","","","","","","","","","preload","274","536830","0.0-274.0","","","","","true","","","","","","","","","","","preload","","","2","17","false","[]","[]","[]","","","","","",""
"","","","","","","","","","","","canvas-keyboard-response","275","537133","0.0-275.0","null","null","","","","","","","","","","","","","","fixation","","","2","17","","","","","","","","","",""
"","","","","","","","","","","","canvas-keyboard-response","276","537447","0.0-276.0","null","null","","","","","","","","","","","","","","stimulus","","","2","17","","","","","","","","","",""
"","","","","","","","","","","","canvas-button-response","277","538284","0.0-277.0","835","train","","","","","","","","","","","","","","perceptual","","","2","17","","","","","241","train","6","0","1",""
"","","","","","","","","","","","canvas-button-response","278","538821","0.0-278.0","534","10","","","","","","","","","","","","","","confidence","","","2","17","","","","","","","","","","14"
"","","","","","","","","","","","preload","279","538822","0.0-279.0","","","","","true","","","","","","","","","","","preload","","","2","18","false","[]","[]","[]","","","","","",""
"","","","","","","","","","","","canvas-keyboard-response","280","539139","0.0-280.0","null","null","","","","","","","","","","","","","","fixation","","","2","18","","","","","","","","","",""
"","","","","","","","","","","","canvas-keyboard-response","281","539448","0.0-281.0","null","null","","","","","","","","","","","","","","stimulus","","","2","18","","","","","","","","","",""
"","","","","","","","","","","","canvas-button-response","282","540211","0.0-282.0","760","cat","","","","","","","","","","","","","","perceptual","","","2","18","","","","","333","elephant","6","0","0",""
"","","","","","","","","","","","canvas-button-response","283","540893","0.0-283.0","680","10","","","","","","","","","","","","","","confidence","","","2","18","","","","","","","","","","14"
"","","","","","","","","","","","preload","284","540894","0.0-284.0","","","","","true","","","","","","","","","","","preload","","","2","19","false","[]","[]","[]","","","","","",""
"","","","","","","","","","","","canvas-keyboard-response","285","541199","0.0-285.0","null","null","","","","","","","","","","","","","","fixation","","","2","19","","","","","","","","","",""
"","","","","","","","","","","","canvas-keyboard-response","286","541516","0.0-286.0","null","null","","","","","","","","","","","","","","stimulus","","","2","19","","","","","","","","","",""
"","","","","","","","","","","","canvas-button-response","287","542294","0.0-287.0","776","elephant","","","","","","","","","","","","","","perceptual","","","2","19","","","","","344","elephant","10","0","1",""
"","","","","","","","","","","","canvas-button-response","288","542779","0.0-288.0","482","10","","","","","","","","","","","","","","confidence","","","2","19","","","","","","","","","","15"
"","","","","","","","","","","","preload","289","542780","0.0-289.0","","","","","true","","","","","","","","","","","preload","","","2","20","false","[]","[]","[]","","","","","",""
"","","","","","","","","","","","canvas-keyboard-response","290","543089","0.0-290.0","null","null","","","","","","","","","","","","","","fixation","","","2","20","","","","","","","","","",""
"","","","","","","","","","","","canvas-keyboard-response","291","543404","0.0-291.0","null","null","","","","","","","","","","","","","","stimulus","","","2","20","","","","","","","","","",""
"","","","","","","","","","","","canvas-button-response","292","548909","0.0-292.0","5503","car","","","","","","","","","","","","","","perceptual","","","2","20","","","","","311","cat","10","0","0",""
"","","","","","","","","","","","canvas-button-response","293","549897","0.0-293.0","986","1","","","","","","","","","","","","","","confidence","","","2","20","","","","","","","","","","15"
"","","","","","","","","","","","preload","294","549898","0.0-294.0","","","","","true","","","","","","","","","","","preload","","","2","21","false","[]","[]","[]","","","","","",""
"","","","","","","","","","","","canvas-keyboard-response","295","550214","0.0-295.0","null","null","","","","","","","","","","","","","","fixation","","","2","21","","","","","","","","","",""
"","","","","","","","","","","","canvas-keyboard-response","296","550531","0.0-296.0","null","null","","","","","","","","","","","","","","stimulus","","","2","21","","","","","","","","","",""
"","","","","","","","","","","","canvas-button-response","297","552139","0.0-297.0","1606","house","","","","","","","","","","","","","","perceptual","","","2","21","","","","","1","house","6","0","1",""
"","","","","","","","","","","","canvas-button-response","298","553623","0.0-298.0","1481","6","","","","","","","","","","","","","","confidence","","","2","21","","","","","","","","","","16"
"","","","","","","","","","","","preload","299","553624","0.0-299.0","","","","","true","","","","","","","","","","","preload","","","2","22","false","[]","[]","[]","","","","","",""
"","","","","","","","","","","","canvas-keyboard-response","300","553937","0.0-300.0","null","null","","","","","","","","","","","","","","fixation","","","2","22","","","","","","","","","",""
"","","","","","","","","","","","canvas-keyboard-response","301","554254","0.0-301.0","null","null","","","","","","","","","","","","","","stimulus","","","2","22","","","","","","","","","",""
"","","","","","","","","","","","canvas-button-response","302","555549","0.0-302.0","1293","bridge","","","","","","","","","","","","","","perceptual","","","2","22","","","","","181","bridge","10","0","1",""
"","","","","","","","","","","","canvas-button-response","303","557008","0.0-303.0","1456","2","","","","","","","","","","","","","","confidence","","","2","22","","","","","","","","","","17"
"","","","","","","","","","","","preload","304","557009","0.0-304.0","","","","","true","","","","","","","","","","","preload","","","2","23","false","[]","[]","[]","","","","","",""
"","","","","","","","","","","","canvas-keyboard-response","305","557320","0.0-305.0","null","null","","","","","","","","","","","","","","fixation","","","2","23","","","","","","","","","",""
"","","","","","","","","","","","canvas-keyboard-response","306","557637","0.0-306.0","null","null","","","","","","","","","","","","","","stimulus","","","2","23","","","","","","","","","",""
"","","","","","","","","","","","canvas-button-response","307","558744","0.0-307.0","1105","phone","","","","","","","","","","","","","","perceptual","","","2","23","","","","","99","phone","6","0","1",""
"","","","","","","","","","","","canvas-button-response","308","559397","0.0-308.0","652","10","","","","","","","","","","","","","","confidence","","","2","23","","","","","","","","","","18"
"","","","","","","","","","","","preload","309","559398","0.0-309.0","","","","","true","","","","","","","","","","","preload","","","2","24","false","[]","[]","[]","","","","","",""
"","","","","","","","","","","","canvas-keyboard-response","310","559704","0.0-310.0","null","null","","","","","","","","","","","","","","fixation","","","2","24","","","","","","","","","",""
"","","","","","","","","","","","canvas-keyboard-response","311","560020","0.0-311.0","null","null","","","","","","","","","","","","","","stimulus","","","2","24","","","","","","","","","",""
"","","","","","","","","","","","canvas-button-response","312","560921","0.0-312.0","899","elephant","","","","","","","","","","","","","","perceptual","","","2","24","","","","","356","elephant","10","0","1",""
"","","","","","","","","","","","canvas-button-response","313","561458","0.0-313.0","535","10","","","","","","","","","","","","","","confidence","","","2","24","","","","","","","","","","19"
"","","","","","","","","","","","preload","314","561460","0.0-314.0","","","","","true","","","","","","","","","","","preload","","","2","25","false","[]","[]","[]","","","","","",""
"","","","","","","","","","","","canvas-keyboard-response","315","561768","0.0-315.0","null","null","","","","","","","","","","","","","","fixation","","","2","25","","","","","","","","","",""
"","","","","","","","","","","","canvas-keyboard-response","316","562070","0.0-316.0","null","null","","","","","","","","","","","","","","stimulus","","","2","25","","","","","","","","","",""
"","","","","","","","","","","","canvas-button-response","317","563385","0.0-317.0","1313","flower","","","","","","","","","","","","","","perceptual","","","2","25","","","","","239","flower","10","0","1",""
"","","","","","","","","","","","canvas-button-response","318","564109","0.0-318.0","721","10","","","","","","","","","","","","","","confidence","","","2","25","","","","","","","","","","20"
"","","","","","","","","","","","preload","319","564110","0.0-319.0","","","","","true","","","","","","","","","","","preload","","","2","26","false","[]","[]","[]","","","","","",""
"","","","","","","","","","","","canvas-keyboard-response","320","564417","0.0-320.0","null","null","","","","","","","","","","","","","","fixation","","","2","26","","","","","","","","","",""
"","","","","","","","","","","","canvas-keyboard-response","321","564731","0.0-321.0","null","null","","","","","","","","","","","","","","stimulus","","","2","26","","","","","","","","","",""
"","","","","","","","","","","","canvas-button-response","322","565646","0.0-322.0","913","car","","","","","","","","","","","","","","perceptual","","","2","26","","","","","46","car","6","0","1",""
"","","","","","","","","","","","canvas-button-response","323","566718","0.0-323.0","1069","10","","","","","","","","","","","","","","confidence","","","2","26","","","","","","","","","","21"
"","","","","","","","","","","","preload","324","566719","0.0-324.0","","","","","true","","","","","","","","","","","preload","","","2","27","false","[]","[]","[]","","","","","",""
"","","","","","","","","","","","canvas-keyboard-response","325","567036","0.0-325.0","null","null","","","","","","","","","","","","","","fixation","","","2","27","","","","","","","","","",""
"","","","","","","","","","","","canvas-keyboard-response","326","567353","0.0-326.0","null","null","","","","","","","","","","","","","","stimulus","","","2","27","","","","","","","","","",""
"","","","","","","","","","","","canvas-button-response","327","568941","0.0-327.0","1585","phone","","","","","","","","","","","","","","perceptual","","","2","27","","","","","107","phone","10","0","1",""
"","","","","","","","","","","","canvas-button-response","328","569606","0.0-328.0","663","10","","","","","","","","","","","","","","confidence","","","2","27","","","","","","","","","","22"
"","","","","","","","","","","","preload","329","569607","0.0-329.0","","","","","true","","","","","","","","","","","preload","","","2","28","false","[]","[]","[]","","","","","",""
"","","","","","","","","","","","canvas-keyboard-response","330","569913","0.0-330.0","null","null","","","","","","","","","","","","","","fixation","","","2","28","","","","","","","","","",""
"","","","","","","","","","","","canvas-keyboard-response","331","570231","0.0-331.0","null","null","","","","","","","","","","","","","","stimulus","","","2","28","","","","","","","","","",""
"","","","","","","","","","","","canvas-button-response","332","573239","0.0-332.0","3006","flower","","","","","","","","","","","","","","perceptual","","","2","28","","","","","227","flower","10","0","1",""
"","","","","","","","","","","","canvas-button-response","333","574132","0.0-333.0","891","10","","","","","","","","","","","","","","confidence","","","2","28","","","","","","","","","","23"
"","","","","","","","","","","","preload","334","574133","0.0-334.0","","","","","true","","","","","","","","","","","preload","","","2","29","false","[]","[]","[]","","","","","",""
"","","","","","","","","","","","canvas-keyboard-response","335","574436","0.0-335.0","null","null","","","","","","","","","","","","","","fixation","","","2","29","","","","","","","","","",""
"","","","","","","","","","","","canvas-keyboard-response","336","574746","0.0-336.0","null","null","","","","","","","","","","","","","","stimulus","","","2","29","","","","","","","","","",""
"","","","","","","","","","","","canvas-button-response","337","575539","0.0-337.0","791","flower","","","","","","","","","","","","","","perceptual","","","2","29","","","","","221","flower","10","0","1",""
"","","","","","","","","","","","canvas-button-response","338","576328","0.0-338.0","787","10","","","","","","","","","","","","","","confidence","","","2","29","","","","","","","","","","24"
"","","","","","","","","","","","preload","339","576329","0.0-339.0","","","","","true","","","","","","","","","","","preload","","","2","30","false","[]","[]","[]","","","","","",""
"","","","","","","","","","","","canvas-keyboard-response","340","576638","0.0-340.0","null","null","","","","","","","","","","","","","","fixation","","","2","30","","","","","","","","","",""
"","","","","","","","","","","","canvas-keyboard-response","341","576945","0.0-341.0","null","null","","","","","","","","","","","","","","stimulus","","","2","30","","","","","","","","","",""
"","","","","","","","","","","","canvas-button-response","342","578077","0.0-342.0","1130","car","","","","","","","","","","","","","","perceptual","","","2","30","","","","","261","train","10","0","0",""
"","","","","","","","","","","","canvas-button-response","343","580198","0.0-343.0","2118","4","","","","","","","","","","","","","","confidence","","","2","30","","","","","","","","","","24"
"","","","","","","","","","","","preload","344","580199","0.0-344.0","","","","","true","","","","","","","","","","","preload","","","2","31","false","[]","[]","[]","","","","","",""
"","","","","","","","","","","","canvas-keyboard-response","345","580510","0.0-345.0","null","null","","","","","","","","","","","","","","fixation","","","2","31","","","","","","","","","",""
"","","","","","","","","","","","canvas-keyboard-response","346","580819","0.0-346.0","null","null","","","","","","","","","","","","","","stimulus","","","2","31","","","","","","","","","",""
"","","","","","","","","","","","canvas-button-response","347","581666","0.0-347.0","844","flower","","","","","","","","","","","","","","perceptual","","","2","31","","","","","208","flower","6","0","1",""
"","","","","","","","","","","","canvas-button-response","348","582521","0.0-348.0","853","10","","","","","","","","","","","","","","confidence","","","2","31","","","","","","","","","","25"
"","","","","","","","","","","","preload","349","582522","0.0-349.0","","","","","true","","","","","","","","","","","preload","","","2","32","false","[]","[]","[]","","","","","",""
"","","","","","","","","","","","canvas-keyboard-response","350","582833","0.0-350.0","null","null","","","","","","","","","","","","","","fixation","","","2","32","","","","","","","","","",""
"","","","","","","","","","","","canvas-keyboard-response","351","583143","0.0-351.0","null","null","","","","","","","","","","","","","","stimulus","","","2","32","","","","","","","","","",""
"","","","","","","","","","","","canvas-button-response","352","584122","0.0-352.0","977","flower","","","","","","","","","","","","","","perceptual","","","2","32","","","","","191","bridge","10","0","0",""
"","","","","","","","","","","","canvas-button-response","353","585068","0.0-353.0","944","10","","","","","","","","","","","","","","confidence","","","2","32","","","","","","","","","","25"
"","","","","","","","","","","","preload","354","585069","0.0-354.0","","","","","true","","","","","","","","","","","preload","","","2","33","false","[]","[]","[]","","","","","",""
"","","","","","","","","","","","canvas-keyboard-response","355","585377","0.0-355.0","null","null","","","","","","","","","","","","","","fixation","","","2","33","","","","","","","","","",""
"","","","","","","","","","","","canvas-keyboard-response","356","585683","0.0-356.0","null","null","","","","","","","","","","","","","","stimulus","","","2","33","","","","","","","","","",""
"","","","","","","","","","","","canvas-button-response","357","586696","0.0-357.0","1012","train","","","","","","","","","","","","","","perceptual","","","2","33","","","","","77","car","10","0","0",""
"","","","","","","","","","","","canvas-button-response","358","587914","0.0-358.0","1216","6","","","","","","","","","","","","","","confidence","","","2","33","","","","","","","","","","25"
"","","","","","","","","","","","preload","359","587915","0.0-359.0","","","","","true","","","","","","","","","","","preload","","","2","34","false","[]","[]","[]","","","","","",""
"","","","","","","","","","","","canvas-keyboard-response","360","588231","0.0-360.0","null","null","","","","","","","","","","","","","","fixation","","","2","34","","","","","","","","","",""
"","","","","","","","","","","","canvas-keyboard-response","361","588544","0.0-361.0","null","null","","","","","","","","","","","","","","stimulus","","","2","34","","","","","","","","","",""
"","","","","","","","","","","","canvas-button-response","362","591192","0.0-362.0","2646","phone","","","","","","","","","","","","","","perceptual","","","2","34","","","","","98","phone","6","0","1",""
"","","","","","","","","","","","canvas-button-response","363","592471","0.0-363.0","1277","7","","","","","","","","","","","","","","confidence","","","2","34","","","","","","","","","","26"
"","","","","","","","","","","","preload","364","592472","0.0-364.0","","","","","true","","","","","","","","","","","preload","","","2","35","false","[]","[]","[]","","","","","",""
"","","","","","","","","","","","canvas-keyboard-response","365","592778","0.0-365.0","null","null","","","","","","","","","","","","","","fixation","","","2","35","","","","","","","","","",""
"","","","","","","","","","","","canvas-keyboard-response","366","593084","0.0-366.0","null","null","","","","","","","","","","","","","","stimulus","","","2","35","","","","","","","","","",""
"","","","","","","","","","","","canvas-button-response","367","594899","0.0-367.0","1813","bridge","","","","","","","","","","","","","","perceptual","","","2","35","","","","","272","train","10","0","0",""
"","","","","","","","","","","","canvas-button-response","368","595567","0.0-368.0","666","7","","","","","","","","","","","","","","confidence","","","2","35","","","","","","","","","","26"
"","","","","","","","","","","","preload","369","595568","0.0-369.0","","","","","true","","","","","","","","","","","preload","","","2","36","false","[]","[]","[]","","","","","",""
"","","","","","","","","","","","canvas-keyboard-response","370","595885","0.0-370.0","null","null","","","","","","","","","","","","","","fixation","","","2","36","","","","","","","","","",""
"","","","","","","","","","","","canvas-keyboard-response","371","596194","0.0-371.0","null","null","","","","","","","","","","","","","","stimulus","","","2","36","","","","","","","","","",""
"","","","","","","","","","","","canvas-button-response","372","597029","0.0-372.0","833","elephant","","","","","","","","","","","","","","perceptual","","","2","36","","","","","341","elephant","10","0","1",""
"","","","","","","","","","","","canvas-button-response","373","597543","0.0-373.0","512","10","","","","","","","","","","","","","","confidence","","","2","36","","","","","","","","","","27"
"","","","","","","","","","","","preload","374","597544","0.0-374.0","","","","","true","","","","","","","","","","","preload","","","2","37","false","[]","[]","[]","","","","","",""
"","","","","","","","","","","","canvas-keyboard-response","375","597852","0.0-375.0","null","null","","","","","","","","","","","","","","fixation","","","2","37","","","","","","","","","",""
"","","","","","","","","","","","canvas-keyboard-response","376","598161","0.0-376.0","null","null","","","","","","","","","","","","","","stimulus","","","2","37","","","","","","","","","",""
"","","","","","","","","","","","canvas-button-response","377","599088","0.0-377.0","925","train","","","","","","","","","","","","","","perceptual","","","2","37","","","","","264","train","10","0","1",""
"","","","","","","","","","","","canvas-button-response","378","599686","0.0-378.0","596","9","","","","","","","","","","","","","","confidence","","","2","37","","","","","","","","","","28"
"","","","","","","","","","","","preload","379","599687","0.0-379.0","","","","","true","","","","","","","","","","","preload","","","2","38","false","[]","[]","[]","","","","","",""
"","","","","","","","","","","","canvas-keyboard-response","380","599993","0.0-380.0","null","null","","","","","","","","","","","","","","fixation","","","2","38","","","","","","","","","",""
"","","","","","","","","","","","canvas-keyboard-response","381","600294","0.0-381.0","null","null","","","","","","","","","","","","","","stimulus","","","2","38","","","","","","","","","",""
"","","","","","","","","","","","canvas-button-response","382","601460","0.0-382.0","1164","bridge","","","","","","","","","","","","","","perceptual","","","2","38","","","","","163","bridge","6","0","1",""
"","","","","","","","","","","","canvas-button-response","383","602145","0.0-383.0","683","10","","","","","","","","","","","","","","confidence","","","2","38","","","","","","","","","","29"
"","","","","","","","","","","","preload","384","602146","0.0-384.0","","","","","true","","","","","","","","","","","preload","","","2","39","false","[]","[]","[]","","","","","",""
"","","","","","","","","","","","canvas-keyboard-response","385","602461","0.0-385.0","null","null","","","","","","","","","","","","","","fixation","","","2","39","","","","","","","","","",""
"","","","","","","","","","","","canvas-keyboard-response","386","602766","0.0-386.0","null","null","","","","","","","","","","","","","","stimulus","","","2","39","","","","","","","","","",""
"","","","","","","","","","","","canvas-button-response","387","604454","0.0-387.0","1687","train","","","","","","","","","","","","","","perceptual","","","2","39","","","","","110","phone","10","0","0",""
"","","","","","","","","","","","canvas-button-response","388","606005","0.0-388.0","1548","7","","","","","","","","","","","","","","confidence","","","2","39","","","","","","","","","","29"
"","","","","","","","","","","","preload","389","606006","0.0-389.0","","","","","true","","","","","","","","","","","preload","","","2","40","false","[]","[]","[]","","","","","",""
"","","","","","","","","","","","canvas-keyboard-response","390","606317","0.0-390.0","null","null","","","","","","","","","","","","","","fixation","","","2","40","","","","","","","","","",""
"","","","","","","","","","","","canvas-keyboard-response","391","606627","0.0-391.0","null","null","","","","","","","","","","","","","","stimulus","","","2","40","","","","","","","","","",""
"","","","","","","","","","","","canvas-button-response","392","609302","0.0-392.0","2673","bridge","","","","","","","","","","","","","","perceptual","","","2","40","","","","","170","bridge","6","0","1",""
"","","","","","","","","","","","canvas-button-response","393","610839","0.0-393.0","1535","8","","","","","","","","","","","","","","confidence","","","2","40","","","","","","","","","","30"
"","","","","","","","","","","","preload","394","610841","0.0-394.0","","","","","true","","","","","","","","","","","preload","","","2","41","false","[]","[]","[]","","","","","",""
"","","","","","","","","","","","canvas-keyboard-response","395","611150","0.0-395.0","null","null","","","","","","","","","","","","","","fixation","","","2","41","","","","","","","","","",""
"","","","","","","","","","","","canvas-keyboard-response","396","611467","0.0-396.0","null","null","","","","","","","","","","","","","","stimulus","","","2","41","","","","","","","","","",""
"","","","","","","","","","","","canvas-button-response","397","612308","0.0-397.0","839","flower","","","","","","","","","","","","","","perceptual","","","2","41","","","","","216","flower","6","0","1",""
"","","","","","","","","","","","canvas-button-response","398","613031","0.0-398.0","721","10","","","","","","","","","","","","","","confidence","","","2","41","","","","","","","","","","31"
"","","","","","","","","","","","preload","399","613032","0.0-399.0","","","","","true","","","","","","","","","","","preload","","","2","42","false","[]","[]","[]","","","","","",""
"","","","","","","","","","","","canvas-keyboard-response","400","613344","0.0-400.0","null","null","","","","","","","","","","","","","","fixation","","","2","42","","","","","","","","","",""
"","","","","","","","","","","","canvas-keyboard-response","401","613661","0.0-401.0","null","null","","","","","","","","","","","","","","stimulus","","","2","42","","","","","","","","","",""
"","","","","","","","","","","","canvas-button-response","402","616983","0.0-402.0","3320","train","","","","","","","","","","","","","","perceptual","","","2","42","","","","","278","train","10","0","1",""
"","","","","","","","","","","","canvas-button-response","403","618166","0.0-403.0","1181","6","","","","","","","","","","","","","","confidence","","","2","42","","","","","","","","","","32"
"","","","","","","","","","","","preload","404","618167","0.0-404.0","","","","","true","","","","","","","","","","","preload","","","2","43","false","[]","[]","[]","","","","","",""
"","","","","","","","","","","","canvas-keyboard-response","405","618475","0.0-405.0","null","null","","","","","","","","","","","","","","fixation","","","2","43","","","","","","","","","",""
"","","","","","","","","","","","canvas-keyboard-response","406","618777","0.0-406.0","null","null","","","","","","","","","","","","","","stimulus","","","2","43","","","","","","","","","",""
"","","","","","","","","","","","canvas-button-response","407","631246","0.0-407.0","12467","car","","","","","","","","","","","","","","perceptual","","","2","43","","","","","143","bed","10","0","0",""
"","","","","","","","","","","","canvas-button-response","408","632053","0.0-408.0","806","0","","","","","","","","","","","","","","confidence","","","2","43","","","","","","","","","","32"
"","","","","","","","","","","","preload","409","632054","0.0-409.0","","","","","true","","","","","","","","","","","preload","","","2","44","false","[]","[]","[]","","","","","",""
"","","","","","","","","","","","canvas-keyboard-response","410","632367","0.0-410.0","null","null","","","","","","","","","","","","","","fixation","","","2","44","","","","","","","","","",""
"","","","","","","","","","","","canvas-keyboard-response","411","632677","0.0-411.0","null","null","","","","","","","","","","","","","","stimulus","","","2","44","","","","","","","","","",""
"","","","","","","","","","","","canvas-button-response","412","633671","0.0-412.0","991","bed","","","","","","","","","","","","","","perceptual","","","2","44","","","","","122","bed","6","0","1",""
"","","","","","","","","","","","canvas-button-response","413","634449","0.0-413.0","776","10","","","","","","","","","","","","","","confidence","","","2","44","","","","","","","","","","33"
"","","","","","","","","","","","preload","414","634450","0.0-414.0","","","","","true","","","","","","","","","","","preload","","","2","45","false","[]","[]","[]","","","","","",""
"","","","","","","","","","","","canvas-keyboard-response","415","634765","0.0-415.0","null","null","","","","","","","","","","","","","","fixation","","","2","45","","","","","","","","","",""
"","","","","","","","","","","","canvas-keyboard-response","416","635067","0.0-416.0","null","null","","","","","","","","","","","","","","stimulus","","","2","45","","","","","","","","","",""
"","","","","","","","","","","","canvas-button-response","417","636388","0.0-417.0","1319","car","","","","","","","","","","","","","","perceptual","","","2","45","","","","","40","car","6","0","1",""
"","","","","","","","","","","","canvas-button-response","418","637257","0.0-418.0","868","8","","","","","","","","","","","","","","confidence","","","2","45","","","","","","","","","","34"
"","","","","","","","","","","","preload","419","637258","0.0-419.0","","","","","true","","","","","","","","","","","preload","","","2","46","false","[]","[]","[]","","","","","",""
"","","","","","","","","","","","canvas-keyboard-response","420","637565","0.0-420.0","null","null","","","","","","","","","","","","","","fixation","","","2","46","","","","","","","","","",""
"","","","","","","","","","","","canvas-keyboard-response","421","637876","0.0-421.0","null","null","","","","","","","","","","","","","","stimulus","","","2","46","","","","","","","","","",""
"","","","","","","","","","","","canvas-button-response","422","640110","0.0-422.0","2232","bridge","","","","","","","","","","","","","","perceptual","","","2","46","","","","","262","train","10","0","0",""
"","","","","","","","","","","","canvas-button-response","423","641008","0.0-423.0","895","5","","","","","","","","","","","","","","confidence","","","2","46","","","","","","","","","","34"
"","","","","","","","","","","","preload","424","641008","0.0-424.0","","","","","true","","","","","","","","","","","preload","","","2","47","false","[]","[]","[]","","","","","",""
"","","","","","","","","","","","canvas-keyboard-response","425","641324","0.0-425.0","null","null","","","","","","","","","","","","","","fixation","","","2","47","","","","","","","","","",""
"","","","","","","","","","","","canvas-keyboard-response","426","641632","0.0-426.0","null","null","","","","","","","","","","","","","","stimulus","","","2","47","","","","","","","","","",""
"","","","","","","","","","","","canvas-button-response","427","642866","0.0-427.0","1232","knife","","","","","","","","","","","","","","perceptual","","","2","47","","","","","397","knife","10","0","1",""
"","","","","","","","","","","","canvas-button-response","428","643554","0.0-428.0","685","10","","","","","","","","","","","","","","confidence","","","2","47","","","","","","","","","","35"
"","","","","","","","","","","","preload","429","643555","0.0-429.0","","","","","true","","","","","","","","","","","preload","","","2","48","false","[]","[]","[]","","","","","",""
"","","","","","","","","","","","canvas-keyboard-response","430","643864","0.0-430.0","null","null","","","","","","","","","","","","","","fixation","","","2","48","","","","","","","","","",""
"","","","","","","","","","","","canvas-keyboard-response","431","644175","0.0-431.0","null","null","","","","","","","","","","","","","","stimulus","","","2","48","","","","","","","","","",""
"","","","","","","","","","","","canvas-button-response","432","644948","0.0-432.0","771","knife","","","","","","","","","","","","","","perceptual","","","2","48","","","","","379","knife","6","0","1",""
"","","","","","","","","","","","canvas-button-response","433","646073","0.0-433.0","1122","10","","","","","","","","","","","","","","confidence","","","2","48","","","","","","","","","","36"
"","","","","","","","","","","","preload","434","646074","0.0-434.0","","","","","true","","","","","","","","","","","preload","","","2","49","false","[]","[]","[]","","","","","",""
"","","","","","","","","","","","canvas-keyboard-response","435","646382","0.0-435.0","null","null","","","","","","","","","","","","","","fixation","","","2","49","","","","","","","","","",""
"","","","","","","","","","","","canvas-keyboard-response","436","646690","0.0-436.0","null","null","","","","","","","","","","","","","","stimulus","","","2","49","","","","","","","","","",""
"","","","","","","","","","","","canvas-button-response","437","652435","0.0-437.0","5742","cat","","","","","","","","","","","","","","perceptual","","","2","49","","","","","279","train","10","0","0",""
"","","","","","","","","","","","canvas-button-response","438","653916","0.0-438.0","1479","4","","","","","","","","","","","","","","confidence","","","2","49","","","","","","","","","","36"
"","","","","","","","","","","","html-button-response","439","657924","0.0-439.0","4006","0","","","","","","","","","","","","","","<p style=""font-size:20px;color:#000000"">You got 36 out of 50 trials correct in this block.<br><br>You have completed 6% of the experiment.<br><br>Take a short break.<br><br>When you are ready, click Continue to proceed.","","","2","49","","","","","","","","","",""
"","","","","","","","","","","","html-keyboard-response","440","658931","0.0-440.0","null","null","","","","","","","","","","","","","","<p style=""font-size:32px;color:#000000""><br><br> RUN: &nbsp 1/4 <br><br> BLOCK: 2/4 ","","","2","49","","","","","","","","","",""
"","","","","","","","","","","","preload","441","658932","0.0-441.0","","","","","true","","","","","","","","","","","preload","","","2","50","false","[]","[]","[]","","","","","",""
"","","","","","","","","","","","canvas-keyboard-response","442","659241","0.0-442.0","null","null","","","","","","","","","","","","","","fixation","","","2","50","","","","","","","","","",""
"","","","","","","","","","","","canvas-keyboard-response","443","659548","0.0-443.0","null","null","","","","","","","","","","","","","","stimulus","","","2","50","","","","","","","","","",""
"","","","","","","","","","","","canvas-button-response","444","660562","0.0-444.0","1011","train","","","","","","","","","","","","","","perceptual","","","2","50","","","","","256","train","6","0","1",""
"","","","","","","","","","","","canvas-button-response","445","661181","0.0-445.0","616","10","","","","","","","","","","","","","","confidence","","","2","50","","","","","","","","","","1"
"","","","","","","","","","","","preload","446","661182","0.0-446.0","","","","","true","","","","","","","","","","","preload","","","2","51","false","[]","[]","[]","","","","","",""
"","","","","","","","","","","","canvas-keyboard-response","447","661501","0.0-447.0","null","null","","","","","","","","","","","","","","fixation","","","2","51","","","","","","","","","",""
"","","","","","","","","","","","canvas-keyboard-response","448","661809","0.0-448.0","null","null","","","","","","","","","","","","","","stimulus","","","2","51","","","","","","","","","",""
"","","","","","","","","","","","canvas-button-response","449","662697","0.0-449.0","886","cat","","","","","","","","","","","","","","perceptual","","","2","51","","","","","326","elephant","6","0","0",""
"","","","","","","","","","","","canvas-button-response","450","663372","0.0-450.0","673","10","","","","","","","","","","","","","","confidence","","","2","51","","","","","","","","","","1"
"","","","","","","","","","","","preload","451","663373","0.0-451.0","","","","","true","","","","","","","","","","","preload","","","2","52","false","[]","[]","[]","","","","","",""
"","","","","","","","","","","","canvas-keyboard-response","452","663690","0.0-452.0","null","null","","","","","","","","","","","","","","fixation","","","2","52","","","","","","","","","",""
"","","","","","","","","","","","canvas-keyboard-response","453","663996","0.0-453.0","null","null","","","","","","","","","","","","","","stimulus","","","2","52","","","","","","","","","",""
"","","","","","","","","","","","canvas-button-response","454","665336","0.0-454.0","1337","knife","","","","","","","","","","","","","","perceptual","","","2","52","","","","","388","knife","10","0","1",""
"","","","","","","","","","","","canvas-button-response","455","666085","0.0-455.0","747","10","","","","","","","","","","","","","","confidence","","","2","52","","","","","","","","","","2"
"","","","","","","","","","","","preload","456","666086","0.0-456.0","","","","","true","","","","","","","","","","","preload","","","2","53","false","[]","[]","[]","","","","","",""
"","","","","","","","","","","","canvas-keyboard-response","457","666390","0.0-457.0","null","null","","","","","","","","","","","","","","fixation","","","2","53","","","","","","","","","",""
"","","","","","","","","","","","canvas-keyboard-response","458","666707","0.0-458.0","null","null","","","","","","","","","","","","","","stimulus","","","2","53","","","","","","","","","",""
"","","","","","","","","","","","canvas-button-response","459","667854","0.0-459.0","1145","flower","","","","","","","","","","","","","","perceptual","","","2","53","","","","","237","flower","10","0","1",""
"","","","","","","","","","","","canvas-button-response","460","668536","0.0-460.0","679","10","","","","","","","","","","","","","","confidence","","","2","53","","","","","","","","","","3"
"","","","","","","","","","","","preload","461","668537","0.0-461.0","","","","","true","","","","","","","","","","","preload","","","2","54","false","[]","[]","[]","","","","","",""
"","","","","","","","","","","","canvas-keyboard-response","462","668848","0.0-462.0","null","null","","","","","","","","","","","","","","fixation","","","2","54","","","","","","","","","",""
"","","","","","","","","","","","canvas-keyboard-response","463","669157","0.0-463.0","null","null","","","","","","","","","","","","","","stimulus","","","2","54","","","","","","","","","",""
"","","","","","","","","","","","canvas-button-response","464","670633","0.0-464.0","1475","bed","","","","","","","","","","","","","","perceptual","","","2","54","","","","","139","bed","6","0","1",""
"","","","","","","","","","","","canvas-button-response","465","671417","0.0-465.0","782","10","","","","","","","","","","","","","","confidence","","","2","54","","","","","","","","","","4"
"","","","","","","","","","","","preload","466","671418","0.0-466.0","","","","","true","","","","","","","","","","","preload","","","2","55","false","[]","[]","[]","","","","","",""
"","","","","","","","","","","","canvas-keyboard-response","467","671723","0.0-467.0","null","null","","","","","","","","","","","","","","fixation","","","2","55","","","","","","","","","",""
"","","","","","","","","","","","canvas-keyboard-response","468","672039","0.0-468.0","null","null","","","","","","","","","","","","","","stimulus","","","2","55","","","","","","","","","",""
"","","","","","","","","","","","canvas-button-response","469","674883","0.0-469.0","2841","knife","","","","","","","","","","","","","","perceptual","","","2","55","","","","","392","knife","10","0","1",""
"","","","","","","","","","","","canvas-button-response","470","676517","0.0-470.0","1632","4","","","","","","","","","","","","","","confidence","","","2","55","","","","","","","","","","5"
"","","","","","","","","","","","preload","471","676518","0.0-471.0","","","","","true","","","","","","","","","","","preload","","","2","56","false","[]","[]","[]","","","","","",""
"","","","","","","","","","","","canvas-keyboard-response","472","676830","0.0-472.0","null","null","","","","","","","","","","","","","","fixation","","","2","56","","","","","","","","","",""
"","","","","","","","","","","","canvas-keyboard-response","473","677146","0.0-473.0","null","null","","","","","","","","","","","","","","stimulus","","","2","56","","","","","","","","","",""
"","","","","","","","","","","","canvas-button-response","474","678118","0.0-474.0","970","car","","","","","","","","","","","","","","perceptual","","","2","56","","","","","61","car","10","0","1",""
"","","","","","","","","","","","canvas-button-response","475","678812","0.0-475.0","692","10","","","","","","","","","","","","","","confidence","","","2","56","","","","","","","","","","6"
"","","","","","","","","","","","preload","476","678813","0.0-476.0","","","","","true","","","","","","","","","","","preload","","","2","57","false","[]","[]","[]","","","","","",""
"","","","","","","","","","","","canvas-keyboard-response","477","679127","0.0-477.0","null","null","","","","","","","","","","","","","","fixation","","","2","57","","","","","","","","","",""
"","","","","","","","","","","","canvas-keyboard-response","478","679430","0.0-478.0","null","null","","","","","","","","","","","","","","stimulus","","","2","57","","","","","","","","","",""
"","","","","","","","","","","","canvas-button-response","479","680337","0.0-479.0","905","knife","","","","","","","","","","","","","","perceptual","","","2","57","","","","","366","knife","6","0","1",""
"","","","","","","","","","","","canvas-button-response","480","681029","0.0-480.0","690","10","","","","","","","","","","","","","","confidence","","","2","57","","","","","","","","","","7"
"","","","","","","","","","","","preload","481","681030","0.0-481.0","","","","","true","","","","","","","","","","","preload","","","2","58","false","[]","[]","[]","","","","","",""
"","","","","","","","","","","","canvas-keyboard-response","482","681347","0.0-482.0","null","null","","","","","","","","","","","","","","fixation","","","2","58","","","","","","","","","",""
"","","","","","","","","","","","canvas-keyboard-response","483","681663","0.0-483.0","null","null","","","","","","","","","","","","","","stimulus","","","2","58","","","","","","","","","",""
"","","","","","","","","","","","canvas-button-response","484","683795","0.0-484.0","2130","flower","","","","","","","","","","","","","","perceptual","","","2","58","","","","","225","flower","10","0","1",""
"","","","","","","","","","","","canvas-button-response","485","684671","0.0-485.0","874","10","","","","","","","","","","","","","","confidence","","","2","58","","","","","","","","","","8"
"","","","","","","","","","","","preload","486","684672","0.0-486.0","","","","","true","","","","","","","","","","","preload","","","2","59","false","[]","[]","[]","","","","","",""
"","","","","","","","","","","","canvas-keyboard-response","487","684987","0.0-487.0","null","null","","","","","","","","","","","","","","fixation","","","2","59","","","","","","","","","",""
"","","","","","","","","","","","canvas-keyboard-response","488","685295","0.0-488.0","null","null","","","","","","","","","","","","","","stimulus","","","2","59","","","","","","","","","",""
"","","","","","","","","","","","canvas-button-response","489","686135","0.0-489.0","838","flower","","","","","","","","","","","","","","perceptual","","","2","59","","","","","213","flower","6","0","1",""
"","","","","","","","","","","","canvas-button-response","490","686862","0.0-490.0","725","10","","","","","","","","","","","","","","confidence","","","2","59","","","","","","","","","","9"
