"width","height","webaudio","browser","browser_version","mobile","os","fullscreen","vsync_rate","webcam","microphone","trial_type","trial_index","time_elapsed","internal_node_id","rt","response","accuracy","view_history","success","item_width_mm","item_height_mm","item_width_px","px2mm","view_dist_mm","item_width_deg","px2deg","scale_factor","win_width_deg","win_height_deg","stimulus","datetime","subjectID","curr_triallist","trial_no","timeout","failed_images","failed_audio","failed_video","image_index","category","blur","reps","correct","running_score"
"1440","725","true","chrome","133.0.0","false","Mac OS","true","59.99","true","true","browser-check","0","1009","0.0-0.0","","","","","","","","","","","","","","","","","","","","","","","","","","","","","",""
"","","","","","","","","","","","survey","1","24986","0.0-1.0","23929","{""P0_Q0"":""903812253"",""P0_Q1"":""21"",""P1_Q0"":""Female"",""P1_Q1"":""Hispanic or Latino"",""P1_Q2"":""More than one race"",""P1_Q3"":""Corrected-to-Normal (using glasses/contacts)"",""P1_Q4"":""Right-Handed""}","[]","","","","","","","","","","","","","","","","","","","","","","","","","","",""
"","","","","","","","","","","","instructions","2","72137","0.0-2.0","47150","","","[{""page_index"":0,""viewing_time"":7947},{""page_index"":1,""viewing_time"":16643},{""page_index"":2,""viewing_time"":11776},{""page_index"":3,""viewing_time"":10784}]","","","","","","","","","","","","","","","","","","","","","","","","","",""
"","","","","","","","","","","","fullscreen","3","75178","0.0-3.0","2038","","","","true","","","","","","","","","","","","","","","","","","","","","","","","",""
"","","","","","","","","","","","virtual-chinrest","4","173615","0.0-4.0","98436","","","","","85.6","53.98","265.0611507978649","3.0964516925004038","554","8.835371693262164","30","1.6373580160412398","48","30","","","","","","","","","","","","","","",""
"","","","","","","","","","","","instructions","5","252161","0.0-5.0","78547","","","[{""page_index"":0,""viewing_time"":7480},{""page_index"":1,""viewing_time"":10434},{""page_index"":2,""viewing_time"":11679},{""page_index"":3,""viewing_time"":5692},{""page_index"":4,""viewing_time"":14506},{""page_index"":5,""viewing_time"":24022},{""page_index"":6,""viewing_time"":4734}]","","","","","","","","","","","","","","","","","","","","","","","","","",""
"","","","","","","","","","","","html-button-response","6","257267","0.0-6.0","5102","0","","","","","","","","","","","","","","start_practice","Tue Oct 14 2025 22:37:20 GMT-0400 (Eastern Daylight Time)","26590","","","","","","","","","","","",""
"","","","","","","","","","","","preload","7","257269","0.0-7.0","","","","","true","","","","","","","","","","","preload","","","0","0","false","[]","[]","[]","","","","","",""
"","","","","","","","","","","","canvas-keyboard-response","8","257573","0.0-8.0","null","null","","","","","","","","","","","","","","fixation","","","0","0","","","","","","","","","",""
"","","","","","","","","","","","canvas-keyboard-response","9","257877","0.0-9.0","null","null","","","","","","","","","","","","","","stimulus","","","0","0","","","","","","","","","",""
"","","","","","","","","","","","canvas-button-response","10","262496","0.0-10.0","4617","knife","","","","","","","","","","","","","","perceptual","","","0","0","","","","","52","flower","1","","0",""
"","","","","","","","","","","","canvas-button-response","11","265092","0.0-11.0","2593","0","","","","","","","","","","","","","","confidence","","","0","0","","","","","","","","","","0"
"","","","","","","","","","","","html-keyboard-response","12","266096","0.0-12.0","null","null","","","","","","","","","","","","","","feedback","Tue Oct 14 2025 22:37:33 GMT-0400 (Eastern Daylight Time)","26590","0","0","","","","","","","","","",""
"","","","","","","","","","","","preload","13","266098","0.0-13.0","","","","","true","","","","","","","","","","","preload","","","0","1","false","[]","[]","[]","","","","","",""
"","","","","","","","","","","","canvas-keyboard-response","14","266400","0.0-14.0","null","null","","","","","","","","","","","","","","fixation","","","0","1","","","","","","","","","",""
"","","","","","","","","","","","canvas-keyboard-response","15","266703","0.0-15.0","null","null","","","","","","","","","","","","","","stimulus","","","0","1","","","","","","","","","",""
"","","","","","","","","","","","canvas-button-response","16","268005","0.0-16.0","1299","bridge","","","","","","","","","","","","","","perceptual","","","0","1","","","","","42","bridge","1","","1",""
"","","","","","","","","","","","canvas-button-response","17","269642","0.0-17.0","1635","10","","","","","","","","","","","","","","confidence","","","0","1","","","","","","","","","","1"
"","","","","","","","","","","","html-keyboard-response","18","270644","0.0-18.0","null","null","","","","","","","","","","","","","","feedback","Tue Oct 14 2025 22:37:38 GMT-0400 (Eastern Daylight Time)","26590","0","1","","","","","","","","","",""
"","","","","","","","","","","","preload","19","270645","0.0-19.0","","","","","true","","","","","","","","","","","preload","","","0","2","false","[]","[]","[]","","","","","",""
"","","","","","","","","","","","canvas-keyboard-response","20","270947","0.0-20.0","null","null","","","","","","","","","","","","","","fixation","","","0","2","","","","","","","","","",""
"","","","","","","","","","","","canvas-keyboard-response","21","271250","0.0-21.0","null","null","","","","","","","","","","","","","","stimulus","","","0","2","","","","","","","","","",""
"","","","","","","","","","","","canvas-button-response","22","274577","0.0-22.0","3325","train","","","","","","","","","","","","","","perceptual","","","0","2","","","","","62","train","1","","1",""
"","","","","","","","","","","","canvas-button-response","23","275440","0.0-23.0","861","10","","","","","","","","","","","","","","confidence","","","0","2","","","","","","","","","","2"
"","","","","","","","","","","","html-keyboard-response","24","276443","0.0-24.0","null","null","","","","","","","","","","","","","","feedback","Tue Oct 14 2025 22:37:43 GMT-0400 (Eastern Daylight Time)","26590","0","2","","","","","","","","","",""
"","","","","","","","","","","","preload","25","276444","0.0-25.0","","","","","true","","","","","","","","","","","preload","","","0","3","false","[]","[]","[]","","","","","",""
"","","","","","","","","","","","canvas-keyboard-response","26","276747","0.0-26.0","null","null","","","","","","","","","","","","","","fixation","","","0","3","","","","","","","","","",""
"","","","","","","","","","","","canvas-keyboard-response","27","277051","0.0-27.0","null","null","","","","","","","","","","","","","","stimulus","","","0","3","","","","","","","","","",""
"","","","","","","","","","","","canvas-button-response","28","281178","0.0-28.0","4125","house","","","","","","","","","","","","","","perceptual","","","0","3","","","","","82","elephant","1","","0",""
"","","","","","","","","","","","canvas-button-response","29","282386","0.0-29.0","1206","1","","","","","","","","","","","","","","confidence","","","0","3","","","","","","","","","","2"
"","","","","","","","","","","","html-keyboard-response","30","283389","0.0-30.0","null","null","","","","","","","","","","","","","","feedback","Tue Oct 14 2025 22:37:50 GMT-0400 (Eastern Daylight Time)","26590","0","3","","","","","","","","","",""
"","","","","","","","","","","","preload","31","283390","0.0-31.0","","","","","true","","","","","","","","","","","preload","","","0","4","false","[]","[]","[]","","","","","",""
"","","","","","","","","","","","canvas-keyboard-response","32","283693","0.0-32.0","null","null","","","","","","","","","","","","","","fixation","","","0","4","","","","","","","","","",""
"","","","","","","","","","","","canvas-keyboard-response","33","283996","0.0-33.0","null","null","","","","","","","","","","","","","","stimulus","","","0","4","","","","","","","","","",""
"","","","","","","","","","","","canvas-button-response","34","285115","0.0-34.0","1116","house","","","","","","","","","","","","","","perceptual","","","0","4","","","","","2","house","1","","1",""
"","","","","","","","","","","","canvas-button-response","35","286444","0.0-35.0","1326","10","","","","","","","","","","","","","","confidence","","","0","4","","","","","","","","","","3"
"","","","","","","","","","","","html-keyboard-response","36","287447","0.0-36.0","null","null","","","","","","","","","","","","","","feedback","Tue Oct 14 2025 22:37:54 GMT-0400 (Eastern Daylight Time)","26590","0","4","","","","","","","","","",""
"","","","","","","","","","","","preload","37","287447","0.0-37.0","","","","","true","","","","","","","","","","","preload","","","0","5","false","[]","[]","[]","","","","","",""
"","","","","","","","","","","","canvas-keyboard-response","38","287750","0.0-38.0","null","null","","","","","","","","","","","","","","fixation","","","0","5","","","","","","","","","",""
"","","","","","","","","","","","canvas-keyboard-response","39","288052","0.0-39.0","null","null","","","","","","","","","","","","","","stimulus","","","0","5","","","","","","","","","",""
"","","","","","","","","","","","canvas-button-response","40","289325","0.0-40.0","1271","bed","","","","","","","","","","","","","","perceptual","","","0","5","","","","","32","bed","1","","1",""
"","","","","","","","","","","","canvas-button-response","41","290335","0.0-41.0","1007","10","","","","","","","","","","","","","","confidence","","","0","5","","","","","","","","","","4"
"","","","","","","","","","","","html-keyboard-response","42","291338","0.0-42.0","null","null","","","","","","","","","","","","","","feedback","Tue Oct 14 2025 22:37:58 GMT-0400 (Eastern Daylight Time)","26590","0","5","","","","","","","","","",""
"","","","","","","","","","","","preload","43","291340","0.0-43.0","","","","","true","","","","","","","","","","","preload","","","0","6","false","[]","[]","[]","","","","","",""
"","","","","","","","","","","","canvas-keyboard-response","44","291643","0.0-44.0","null","null","","","","","","","","","","","","","","fixation","","","0","6","","","","","","","","","",""
"","","","","","","","","","","","canvas-keyboard-response","45","291946","0.0-45.0","null","null","","","","","","","","","","","","","","stimulus","","","0","6","","","","","","","","","",""
"","","","","","","","","","","","canvas-button-response","46","293186","0.0-46.0","1238","knife","","","","","","","","","","","","","","perceptual","","","0","6","","","","","92","knife","1","","1",""
"","","","","","","","","","","","canvas-button-response","47","294144","0.0-47.0","956","10","","","","","","","","","","","","","","confidence","","","0","6","","","","","","","","","","5"
"","","","","","","","","","","","html-keyboard-response","48","295147","0.0-48.0","null","null","","","","","","","","","","","","","","feedback","Tue Oct 14 2025 22:38:02 GMT-0400 (Eastern Daylight Time)","26590","0","6","","","","","","","","","",""
"","","","","","","","","","","","preload","49","295148","0.0-49.0","","","","","true","","","","","","","","","","","preload","","","0","7","false","[]","[]","[]","","","","","",""
"","","","","","","","","","","","canvas-keyboard-response","50","295451","0.0-50.0","null","null","","","","","","","","","","","","","","fixation","","","0","7","","","","","","","","","",""
"","","","","","","","","","","","canvas-keyboard-response","51","295755","0.0-51.0","null","null","","","","","","","","","","","","","","stimulus","","","0","7","","","","","","","","","",""
"","","","","","","","","","","","canvas-button-response","52","297377","0.0-52.0","1620","phone","","","","","","","","","","","","","","perceptual","","","0","7","","","","","22","phone","1","","1",""
"","","","","","","","","","","","canvas-button-response","53","298090","0.0-53.0","711","10","","","","","","","","","","","","","","confidence","","","0","7","","","","","","","","","","6"
"","","","","","","","","","","","html-keyboard-response","54","299093","0.0-54.0","null","null","","","","","","","","","","","","","","feedback","Tue Oct 14 2025 22:38:06 GMT-0400 (Eastern Daylight Time)","26590","0","7","","","","","","","","","",""
"","","","","","","","","","","","preload","55","299094","0.0-55.0","","","","","true","","","","","","","","","","","preload","","","0","8","false","[]","[]","[]","","","","","",""
"","","","","","","","","","","","canvas-keyboard-response","56","299396","0.0-56.0","null","null","","","","","","","","","","","","","","fixation","","","0","8","","","","","","","","","",""
"","","","","","","","","","","","canvas-keyboard-response","57","299700","0.0-57.0","null","null","","","","","","","","","","","","","","stimulus","","","0","8","","","","","","","","","",""
"","","","","","","","","","","","canvas-button-response","58","300678","0.0-58.0","975","car","","","","","","","","","","","","","","perceptual","","","0","8","","","","","12","car","1","","1",""
"","","","","","","","","","","","canvas-button-response","59","301532","0.0-59.0","852","10","","","","","","","","","","","","","","confidence","","","0","8","","","","","","","","","","7"
"","","","","","","","","","","","html-keyboard-response","60","302535","0.0-60.0","null","null","","","","","","","","","","","","","","feedback","Tue Oct 14 2025 22:38:10 GMT-0400 (Eastern Daylight Time)","26590","0","8","","","","","","","","","",""
"","","","","","","","","","","","preload","61","302536","0.0-61.0","","","","","true","","","","","","","","","","","preload","","","0","9","false","[]","[]","[]","","","","","",""
"","","","","","","","","","","","canvas-keyboard-response","62","302839","0.0-62.0","null","null","","","","","","","","","","","","","","fixation","","","0","9","","","","","","","","","",""
"","","","","","","","","","","","canvas-keyboard-response","63","303142","0.0-63.0","null","null","","","","","","","","","","","","","","stimulus","","","0","9","","","","","","","","","",""
"","","","","","","","","","","","canvas-button-response","64","304090","0.0-64.0","946","cat","","","","","","","","","","","","","","perceptual","","","0","9","","","","","72","cat","1","","1",""
"","","","","","","","","","","","canvas-button-response","65","304833","0.0-65.0","740","10","","","","","","","","","","","","","","confidence","","","0","9","","","","","","","","","","8"
"","","","","","","","","","","","html-keyboard-response","66","305836","0.0-66.0","null","null","","","","","","","","","","","","","","feedback","Tue Oct 14 2025 22:38:13 GMT-0400 (Eastern Daylight Time)","26590","0","9","","","","","","","","","",""
"","","","","","","","","","","","html-button-response","67","319294","0.0-67.0","13456","0","","","","","","","","","","","","","","start_practice","Tue Oct 14 2025 22:38:14 GMT-0400 (Eastern Daylight Time)","26590","0","9","","","","","","","","","",""
"","","","","","","","","","","","preload","68","319295","0.0-68.0","","","","","true","","","","","","","","","","","preload","","","1","0","false","[]","[]","[]","","","","","",""
"","","","","","","","","","","","canvas-keyboard-response","69","319597","0.0-69.0","null","null","","","","","","","","","","","","","","fixation","","","1","0","","","","","","","","","",""
"","","","","","","","","","","","canvas-keyboard-response","70","319899","0.0-70.0","null","null","","","","","","","","","","","","","","stimulus","","","1","0","","","","","","","","","",""
"","","","","","","","","","","","canvas-button-response","71","324453","0.0-71.0","4551","bed","","","","","","","","","","","","","","perceptual","","","1","0","","","","","34","bed","6","","1",""
"","","","","","","","","","","","canvas-button-response","72","325696","0.0-72.0","1241","1","","","","","","","","","","","","","","confidence","","","1","0","","","","","","","","","","1"
"","","","","","","","","","","","html-keyboard-response","73","326699","0.0-73.0","null","null","","","","","","","","","","","","","","feedback","Tue Oct 14 2025 22:38:34 GMT-0400 (Eastern Daylight Time)","26590","1","0","","","","","","","","","",""
"","","","","","","","","","","","preload","74","326700","0.0-74.0","","","","","true","","","","","","","","","","","preload","","","1","1","false","[]","[]","[]","","","","","",""
"","","","","","","","","","","","canvas-keyboard-response","75","327003","0.0-75.0","null","null","","","","","","","","","","","","","","fixation","","","1","1","","","","","","","","","",""
"","","","","","","","","","","","canvas-keyboard-response","76","327307","0.0-76.0","null","null","","","","","","","","","","","","","","stimulus","","","1","1","","","","","","","","","",""
"","","","","","","","","","","","canvas-button-response","77","328172","0.0-77.0","863","knife","","","","","","","","","","","","","","perceptual","","","1","1","","","","","97","knife","10","","1",""
"","","","","","","","","","","","canvas-button-response","78","329248","0.0-78.0","1073","10","","","","","","","","","","","","","","confidence","","","1","1","","","","","","","","","","2"
"","","","","","","","","","","","html-keyboard-response","79","330250","0.0-79.0","null","null","","","","","","","","","","","","","","feedback","Tue Oct 14 2025 22:38:37 GMT-0400 (Eastern Daylight Time)","26590","1","1","","","","","","","","","",""
"","","","","","","","","","","","preload","80","330252","0.0-80.0","","","","","true","","","","","","","","","","","preload","","","1","2","false","[]","[]","[]","","","","","",""
"","","","","","","","","","","","canvas-keyboard-response","81","330555","0.0-81.0","null","null","","","","","","","","","","","","","","fixation","","","1","2","","","","","","","","","",""
"","","","","","","","","","","","canvas-keyboard-response","82","330858","0.0-82.0","null","null","","","","","","","","","","","","","","stimulus","","","1","2","","","","","","","","","",""
"","","","","","","","","","","","canvas-button-response","83","332029","0.0-83.0","1169","car","","","","","","","","","","","","","","perceptual","","","1","2","","","","","17","car","10","","1",""
"","","","","","","","","","","","canvas-button-response","84","334129","0.0-84.0","2098","1","","","","","","","","","","","","","","confidence","","","1","2","","","","","","","","","","3"
"","","","","","","","","","","","html-keyboard-response","85","335131","0.0-85.0","null","null","","","","","","","","","","","","","","feedback","Tue Oct 14 2025 22:38:42 GMT-0400 (Eastern Daylight Time)","26590","1","2","","","","","","","","","",""
"","","","","","","","","","","","preload","86","335132","0.0-86.0","","","","","true","","","","","","","","","","","preload","","","1","3","false","[]","[]","[]","","","","","",""
"","","","","","","","","","","","canvas-keyboard-response","87","335435","0.0-87.0","null","null","","","","","","","","","","","","","","fixation","","","1","3","","","","","","","","","",""
"","","","","","","","","","","","canvas-keyboard-response","88","335738","0.0-88.0","null","null","","","","","","","","","","","","","","stimulus","","","1","3","","","","","","","","","",""
"","","","","","","","","","","","canvas-button-response","89","339010","0.0-89.0","3270","flower","","","","","","","","","","","","","","perceptual","","","1","3","","","","","87","elephant","10","","0",""
"","","","","","","","","","","","canvas-button-response","90","340067","0.0-90.0","1055","1","","","","","","","","","","","","","","confidence","","","1","3","","","","","","","","","","3"
"","","","","","","","","","","","html-keyboard-response","91","341071","0.0-91.0","null","null","","","","","","","","","","","","","","feedback","Tue Oct 14 2025 22:38:48 GMT-0400 (Eastern Daylight Time)","26590","1","3","","","","","","","","","",""
"","","","","","","","","","","","preload","92","341072","0.0-92.0","","","","","true","","","","","","","","","","","preload","","","1","4","false","[]","[]","[]","","","","","",""
"","","","","","","","","","","","canvas-keyboard-response","93","341375","0.0-93.0","null","null","","","","","","","","","","","","","","fixation","","","1","4","","","","","","","","","",""
"","","","","","","","","","","","canvas-keyboard-response","94","341679","0.0-94.0","null","null","","","","","","","","","","","","","","stimulus","","","1","4","","","","","","","","","",""
"","","","","","","","","","","","canvas-button-response","95","343128","0.0-95.0","1447","flower","","","","","","","","","","","","","","perceptual","","","1","4","","","","","57","flower","10","","1",""
"","","","","","","","","","","","canvas-button-response","96","343863","0.0-96.0","733","1","","","","","","","","","","","","","","confidence","","","1","4","","","","","","","","","","4"
"","","","","","","","","","","","html-keyboard-response","97","344866","0.0-97.0","null","null","","","","","","","","","","","","","","feedback","Tue Oct 14 2025 22:38:52 GMT-0400 (Eastern Daylight Time)","26590","1","4","","","","","","","","","",""
"","","","","","","","","","","","preload","98","344867","0.0-98.0","","","","","true","","","","","","","","","","","preload","","","1","5","false","[]","[]","[]","","","","","",""
"","","","","","","","","","","","canvas-keyboard-response","99","345170","0.0-99.0","null","null","","","","","","","","","","","","","","fixation","","","1","5","","","","","","","","","",""
"","","","","","","","","","","","canvas-keyboard-response","100","345473","0.0-100.0","null","null","","","","","","","","","","","","","","stimulus","","","1","5","","","","","","","","","",""
"","","","","","","","","","","","canvas-button-response","101","347485","0.0-101.0","2008","train","","","","","","","","","","","","","","perceptual","","","1","5","","","","","67","train","10","","1",""
"","","","","","","","","","","","canvas-button-response","102","347958","0.0-102.0","471","10","","","","","","","","","","","","","","confidence","","","1","5","","","","","","","","","","5"
"","","","","","","","","","","","html-keyboard-response","103","348960","0.0-103.0","null","null","","","","","","","","","","","","","","feedback","Tue Oct 14 2025 22:38:56 GMT-0400 (Eastern Daylight Time)","26590","1","5","","","","","","","","","",""
"","","","","","","","","","","","preload","104","348961","0.0-104.0","","","","","true","","","","","","","","","","","preload","","","1","6","false","[]","[]","[]","","","","","",""
"","","","","","","","","","","","canvas-keyboard-response","105","349265","0.0-105.0","null","null","","","","","","","","","","","","","","fixation","","","1","6","","","","","","","","","",""
"","","","","","","","","","","","canvas-keyboard-response","106","349568","0.0-106.0","null","null","","","","","","","","","","","","","","stimulus","","","1","6","","","","","","","","","",""
"","","","","","","","","","","","canvas-button-response","107","350484","0.0-107.0","914","elephant","","","","","","","","","","","","","","perceptual","","","1","6","","","","","84","elephant","6","","1",""
"","","","","","","","","","","","canvas-button-response","108","351116","0.0-108.0","630","10","","","","","","","","","","","","","","confidence","","","1","6","","","","","","","","","","6"
"","","","","","","","","","","","html-keyboard-response","109","352119","0.0-109.0","null","null","","","","","","","","","","","","","","feedback","Tue Oct 14 2025 22:38:59 GMT-0400 (Eastern Daylight Time)","26590","1","6","","","","","","","","","",""
"","","","","","","","","","","","preload","110","352120","0.0-110.0","","","","","true","","","","","","","","","","","preload","","","1","7","false","[]","[]","[]","","","","","",""
"","","","","","","","","","","","canvas-keyboard-response","111","352422","0.0-111.0","null","null","","","","","","","","","","","","","","fixation","","","1","7","","","","","","","","","",""
"","","","","","","","","","","","canvas-keyboard-response","112","352725","0.0-112.0","null","null","","","","","","","","","","","","","","stimulus","","","1","7","","","","","","","","","",""
"","","","","","","","","","","","canvas-button-response","113","355166","0.0-113.0","2438","bed","","","","","","","","","","","","","","perceptual","","","1","7","","","","","37","bed","10","","1",""
"","","","","","","","","","","","canvas-button-response","114","356694","0.0-114.0","1526","1","","","","","","","","","","","","","","confidence","","","1","7","","","","","","","","","","7"
"","","","","","","","","","","","html-keyboard-response","115","357698","0.0-115.0","null","null","","","","","","","","","","","","","","feedback","Tue Oct 14 2025 22:39:05 GMT-0400 (Eastern Daylight Time)","26590","1","7","","","","","","","","","",""
"","","","","","","","","","","","preload","116","357699","0.0-116.0","","","","","true","","","","","","","","","","","preload","","","1","8","false","[]","[]","[]","","","","","",""
"","","","","","","","","","","","canvas-keyboard-response","117","358001","0.0-117.0","null","null","","","","","","","","","","","","","","fixation","","","1","8","","","","","","","","","",""
"","","","","","","","","","","","canvas-keyboard-response","118","358305","0.0-118.0","null","null","","","","","","","","","","","","","","stimulus","","","1","8","","","","","","","","","",""
"","","","","","","","","","","","canvas-button-response","119","359794","0.0-119.0","1487","cat","","","","","","","","","","","","","","perceptual","","","1","8","","","","","74","cat","6","","1",""
"","","","","","","","","","","","canvas-button-response","120","360448","0.0-120.0","651","10","","","","","","","","","","","","","","confidence","","","1","8","","","","","","","","","","8"
"","","","","","","","","","","","html-keyboard-response","121","361451","0.0-121.0","null","null","","","","","","","","","","","","","","feedback","Tue Oct 14 2025 22:39:08 GMT-0400 (Eastern Daylight Time)","26590","1","8","","","","","","","","","",""
"","","","","","","","","","","","preload","122","361452","0.0-122.0","","","","","true","","","","","","","","","","","preload","","","1","9","false","[]","[]","[]","","","","","",""
"","","","","","","","","","","","canvas-keyboard-response","123","361756","0.0-123.0","null","null","","","","","","","","","","","","","","fixation","","","1","9","","","","","","","","","",""
"","","","","","","","","","","","canvas-keyboard-response","124","362058","0.0-124.0","null","null","","","","","","","","","","","","","","stimulus","","","1","9","","","","","","","","","",""
"","","","","","","","","","","","canvas-button-response","125","363134","0.0-125.0","1073","train","","","","","","","","","","","","","","perceptual","","","1","9","","","","","64","train","6","","1",""
"","","","","","","","","","","","canvas-button-response","126","363695","0.0-126.0","558","10","","","","","","","","","","","","","","confidence","","","1","9","","","","","","","","","","9"
"","","","","","","","","","","","html-keyboard-response","127","364698","0.0-127.0","null","null","","","","","","","","","","","","","","feedback","Tue Oct 14 2025 22:39:12 GMT-0400 (Eastern Daylight Time)","26590","1","9","","","","","","","","","",""
"","","","","","","","","","","","preload","128","364699","0.0-128.0","","","","","true","","","","","","","","","","","preload","","","1","10","false","[]","[]","[]","","","","","",""
"","","","","","","","","","","","canvas-keyboard-response","129","365003","0.0-129.0","null","null","","","","","","","","","","","","","","fixation","","","1","10","","","","","","","","","",""
"","","","","","","","","","","","canvas-keyboard-response","130","365306","0.0-130.0","null","null","","","","","","","","","","","","","","stimulus","","","1","10","","","","","","","","","",""
"","","","","","","","","","","","canvas-button-response","131","369334","0.0-131.0","4026","house","","","","","","","","","","","","","","perceptual","","","1","10","","","","","14","car","6","","0",""
"","","","","","","","","","","","canvas-button-response","132","371456","0.0-132.0","2120","0","","","","","","","","","","","","","","confidence","","","1","10","","","","","","","","","","9"
"","","","","","","","","","","","html-keyboard-response","133","372458","0.0-133.0","null","null","","","","","","","","","","","","","","feedback","Tue Oct 14 2025 22:39:19 GMT-0400 (Eastern Daylight Time)","26590","1","10","","","","","","","","","",""
"","","","","","","","","","","","preload","134","372459","0.0-134.0","","","","","true","","","","","","","","","","","preload","","","1","11","false","[]","[]","[]","","","","","",""
"","","","","","","","","","","","canvas-keyboard-response","135","372760","0.0-135.0","null","null","","","","","","","","","","","","","","fixation","","","1","11","","","","","","","","","",""
"","","","","","","","","","","","canvas-keyboard-response","136","373061","0.0-136.0","null","null","","","","","","","","","","","","","","stimulus","","","1","11","","","","","","","","","",""
"","","","","","","","","","","","canvas-button-response","137","378799","0.0-137.0","5735","flower","","","","","","","","","","","","","","perceptual","","","1","11","","","","","27","phone","10","","0",""
"","","","","","","","","","","","canvas-button-response","138","380261","0.0-138.0","1460","0","","","","","","","","","","","","","","confidence","","","1","11","","","","","","","","","","9"
"","","","","","","","","","","","html-keyboard-response","139","381265","0.0-139.0","null","null","","","","","","","","","","","","","","feedback","Tue Oct 14 2025 22:39:28 GMT-0400 (Eastern Daylight Time)","26590","1","11","","","","","","","","","",""
"","","","","","","","","","","","preload","140","381266","0.0-140.0","","","","","true","","","","","","","","","","","preload","","","1","12","false","[]","[]","[]","","","","","",""
"","","","","","","","","","","","canvas-keyboard-response","141","381568","0.0-141.0","null","null","","","","","","","","","","","","","","fixation","","","1","12","","","","","","","","","",""
"","","","","","","","","","","","canvas-keyboard-response","142","381870","0.0-142.0","null","null","","","","","","","","","","","","","","stimulus","","","1","12","","","","","","","","","",""
"","","","","","","","","","","","canvas-button-response","143","386418","0.0-143.0","4547","house","","","","","","","","","","","","","","perceptual","","","1","12","","","","","94","knife","6","","0",""
"","","","","","","","","","","","canvas-button-response","144","387407","0.0-144.0","987","0","","","","","","","","","","","","","","confidence","","","1","12","","","","","","","","","","9"
"","","","","","","","","","","","html-keyboard-response","145","388409","0.0-145.0","null","null","","","","","","","","","","","","","","feedback","Tue Oct 14 2025 22:39:35 GMT-0400 (Eastern Daylight Time)","26590","1","12","","","","","","","","","",""
"","","","","","","","","","","","preload","146","388411","0.0-146.0","","","","","true","","","","","","","","","","","preload","","","1","13","false","[]","[]","[]","","","","","",""
"","","","","","","","","","","","canvas-keyboard-response","147","388713","0.0-147.0","null","null","","","","","","","","","","","","","","fixation","","","1","13","","","","","","","","","",""
"","","","","","","","","","","","canvas-keyboard-response","148","389016","0.0-148.0","null","null","","","","","","","","","","","","","","stimulus","","","1","13","","","","","","","","","",""
"","","","","","","","","","","","canvas-button-response","149","391743","0.0-149.0","2725","bridge","","","","","","","","","","","","","","perceptual","","","1","13","","","","","7","house","10","","0",""
"","","","","","","","","","","","canvas-button-response","150","393288","0.0-150.0","1543","1","","","","","","","","","","","","","","confidence","","","1","13","","","","","","","","","","9"
"","","","","","","","","","","","html-keyboard-response","151","394291","0.0-151.0","null","null","","","","","","","","","","","","","","feedback","Tue Oct 14 2025 22:39:41 GMT-0400 (Eastern Daylight Time)","26590","1","13","","","","","","","","","",""
"","","","","","","","","","","","preload","152","394292","0.0-152.0","","","","","true","","","","","","","","","","","preload","","","1","14","false","[]","[]","[]","","","","","",""
"","","","","","","","","","","","canvas-keyboard-response","153","394596","0.0-153.0","null","null","","","","","","","","","","","","","","fixation","","","1","14","","","","","","","","","",""
"","","","","","","","","","","","canvas-keyboard-response","154","394899","0.0-154.0","null","null","","","","","","","","","","","","","","stimulus","","","1","14","","","","","","","","","",""
"","","","","","","","","","","","canvas-button-response","155","396806","0.0-155.0","1904","phone","","","","","","","","","","","","","","perceptual","","","1","14","","","","","24","phone","6","","1",""
"","","","","","","","","","","","canvas-button-response","156","397744","0.0-156.0","936","10","","","","","","","","","","","","","","confidence","","","1","14","","","","","","","","","","10"
"","","","","","","","","","","","html-keyboard-response","157","398747","0.0-157.0","null","null","","","","","","","","","","","","","","feedback","Tue Oct 14 2025 22:39:46 GMT-0400 (Eastern Daylight Time)","26590","1","14","","","","","","","","","",""
"","","","","","","","","","","","preload","158","398749","0.0-158.0","","","","","true","","","","","","","","","","","preload","","","1","15","false","[]","[]","[]","","","","","",""
"","","","","","","","","","","","canvas-keyboard-response","159","399051","0.0-159.0","null","null","","","","","","","","","","","","","","fixation","","","1","15","","","","","","","","","",""
"","","","","","","","","","","","canvas-keyboard-response","160","399354","0.0-160.0","null","null","","","","","","","","","","","","","","stimulus","","","1","15","","","","","","","","","",""
"","","","","","","","","","","","canvas-button-response","161","404471","0.0-161.0","5115","car","","","","","","","","","","","","","","perceptual","","","1","15","","","","","47","bridge","10","","0",""
"","","","","","","","","","","","canvas-button-response","162","405161","0.0-162.0","688","0","","","","","","","","","","","","","","confidence","","","1","15","","","","","","","","","","10"
"","","","","","","","","","","","html-keyboard-response","163","406164","0.0-163.0","null","null","","","","","","","","","","","","","","feedback","Tue Oct 14 2025 22:39:53 GMT-0400 (Eastern Daylight Time)","26590","1","15","","","","","","","","","",""
"","","","","","","","","","","","preload","164","406166","0.0-164.0","","","","","true","","","","","","","","","","","preload","","","1","16","false","[]","[]","[]","","","","","",""
"","","","","","","","","","","","canvas-keyboard-response","165","406469","0.0-165.0","null","null","","","","","","","","","","","","","","fixation","","","1","16","","","","","","","","","",""
"","","","","","","","","","","","canvas-keyboard-response","166","406772","0.0-166.0","null","null","","","","","","","","","","","","","","stimulus","","","1","16","","","","","","","","","",""
"","","","","","","","","","","","canvas-button-response","167","409820","0.0-167.0","3045","bridge","","","","","","","","","","","","","","perceptual","","","1","16","","","","","44","bridge","6","","1",""
"","","","","","","","","","","","canvas-button-response","168","411784","0.0-168.0","1962","1","","","","","","","","","","","","","","confidence","","","1","16","","","","","","","","","","11"
"","","","","","","","","","","","html-keyboard-response","169","412787","0.0-169.0","null","null","","","","","","","","","","","","","","feedback","Tue Oct 14 2025 22:40:00 GMT-0400 (Eastern Daylight Time)","26590","1","16","","","","","","","","","",""
"","","","","","","","","","","","preload","170","412788","0.0-170.0","","","","","true","","","","","","","","","","","preload","","","1","17","false","[]","[]","[]","","","","","",""
"","","","","","","","","","","","canvas-keyboard-response","171","413091","0.0-171.0","null","null","","","","","","","","","","","","","","fixation","","","1","17","","","","","","","","","",""
"","","","","","","","","","","","canvas-keyboard-response","172","413394","0.0-172.0","null","null","","","","","","","","","","","","","","stimulus","","","1","17","","","","","","","","","",""
"","","","","","","","","","","","canvas-button-response","173","416192","0.0-173.0","2795","house","","","","","","","","","","","","","","perceptual","","","1","17","","","","","4","house","6","","1",""
"","","","","","","","","","","","canvas-button-response","174","417915","0.0-174.0","1720","10","","","","","","","","","","","","","","confidence","","","1","17","","","","","","","","","","12"
"","","","","","","","","","","","html-keyboard-response","175","418917","0.0-175.0","null","null","","","","","","","","","","","","","","feedback","Tue Oct 14 2025 22:40:06 GMT-0400 (Eastern Daylight Time)","26590","1","17","","","","","","","","","",""
"","","","","","","","","","","","preload","176","418918","0.0-176.0","","","","","true","","","","","","","","","","","preload","","","1","18","false","[]","[]","[]","","","","","",""
"","","","","","","","","","","","canvas-keyboard-response","177","419221","0.0-177.0","null","null","","","","","","","","","","","","","","fixation","","","1","18","","","","","","","","","",""
"","","","","","","","","","","","canvas-keyboard-response","178","419524","0.0-178.0","null","null","","","","","","","","","","","","","","stimulus","","","1","18","","","","","","","","","",""
"","","","","","","","","","","","canvas-button-response","179","423467","0.0-179.0","3941","flower","","","","","","","","","","","","","","perceptual","","","1","18","","","","","54","flower","6","","1",""
"","","","","","","","","","","","canvas-button-response","180","424113","0.0-180.0","644","1","","","","","","","","","","","","","","confidence","","","1","18","","","","","","","","","","13"
"","","","","","","","","","","","html-keyboard-response","181","425117","0.0-181.0","null","null","","","","","","","","","","","","","","feedback","Tue Oct 14 2025 22:40:12 GMT-0400 (Eastern Daylight Time)","26590","1","18","","","","","","","","","",""
"","","","","","","","","","","","preload","182","425118","0.0-182.0","","","","","true","","","","","","","","","","","preload","","","1","19","false","[]","[]","[]","","","","","",""
"","","","","","","","","","","","canvas-keyboard-response","183","425421","0.0-183.0","null","null","","","","","","","","","","","","","","fixation","","","1","19","","","","","","","","","",""
"","","","","","","","","","","","canvas-keyboard-response","184","425724","0.0-184.0","null","null","","","","","","","","","","","","","","stimulus","","","1","19","","","","","","","","","",""
"","","","","","","","","","","","canvas-button-response","185","428771","0.0-185.0","3044","cat","","","","","","","","","","","","","","perceptual","","","1","19","","","","","77","cat","10","","1",""
"","","","","","","","","","","","canvas-button-response","186","429739","0.0-186.0","966","1","","","","","","","","","","","","","","confidence","","","1","19","","","","","","","","","","14"
"","","","","","","","","","","","html-keyboard-response","187","430741","0.0-187.0","null","null","","","","","","","","","","","","","","feedback","Tue Oct 14 2025 22:40:18 GMT-0400 (Eastern Daylight Time)","26590","1","19","","","","","","","","","",""
"","","","","","","","","","","","html-button-response","188","444011","0.0-188.0","13269","0","","","","","","","","","","","","","","start experiment","Tue Oct 14 2025 22:40:19 GMT-0400 (Eastern Daylight Time)","26590","1","19","","","","","","","","","",""
"","","","","","","","","","","","preload","189","444012","0.0-189.0","","","","","true","","","","","","","","","","","preload","","","2","0","false","[]","[]","[]","","","","","",""
"","","","","","","","","","","","canvas-keyboard-response","190","444314","0.0-190.0","null","null","","","","","","","","","","","","","","fixation","","","2","0","","","","","","","","","",""
"","","","","","","","","","","","canvas-keyboard-response","191","444617","0.0-191.0","null","null","","","","","","","","","","","","","","stimulus","","","2","0","","","","","","","","","",""
"","","","","","","","","","","","canvas-button-response","192","451595","0.0-192.0","6975","house","","","","","","","","","","","","","","perceptual","","","2","0","","","","","336","elephant","6","0","0",""
"","","","","","","","","","","","canvas-button-response","193","452651","0.0-193.0","1055","0","","","","","","","","","","","","","","confidence","","","2","0","","","","","","","","","","0"
"","","","","","","","","","","","preload","194","452652","0.0-194.0","","","","","true","","","","","","","","","","","preload","","","2","1","false","[]","[]","[]","","","","","",""
"","","","","","","","","","","","canvas-keyboard-response","195","452955","0.0-195.0","null","null","","","","","","","","","","","","","","fixation","","","2","1","","","","","","","","","",""
"","","","","","","","","","","","canvas-keyboard-response","196","453258","0.0-196.0","null","null","","","","","","","","","","","","","","stimulus","","","2","1","","","","","","","","","",""
"","","","","","","","","","","","canvas-button-response","197","455756","0.0-197.0","2495","bridge","","","","","","","","","","","","","","perceptual","","","2","1","","","","","135","bed","6","0","0",""
"","","","","","","","","","","","canvas-button-response","198","456746","0.0-198.0","988","0","","","","","","","","","","","","","","confidence","","","2","1","","","","","","","","","","0"
"","","","","","","","","","","","preload","199","456747","0.0-199.0","","","","","true","","","","","","","","","","","preload","","","2","2","false","[]","[]","[]","","","","","",""
"","","","","","","","","","","","canvas-keyboard-response","200","457050","0.0-200.0","null","null","","","","","","","","","","","","","","fixation","","","2","2","","","","","","","","","",""
"","","","","","","","","","","","canvas-keyboard-response","201","457353","0.0-201.0","null","null","","","","","","","","","","","","","","stimulus","","","2","2","","","","","","","","","",""
"","","","","","","","","","","","canvas-button-response","202","461060","0.0-202.0","3705","bridge","","","","","","","","","","","","","","perceptual","","","2","2","","","","","385","knife","10","0","0",""
"","","","","","","","","","","","canvas-button-response","203","461718","0.0-203.0","656","0","","","","","","","","","","","","","","confidence","","","2","2","","","","","","","","","","0"
"","","","","","","","","","","","preload","204","461719","0.0-204.0","","","","","true","","","","","","","","","","","preload","","","2","3","false","[]","[]","[]","","","","","",""
"","","","","","","","","","","","canvas-keyboard-response","205","462022","0.0-205.0","null","null","","","","","","","","","","","","","","fixation","","","2","3","","","","","","","","","",""
"","","","","","","","","","","","canvas-keyboard-response","206","462325","0.0-206.0","null","null","","","","","","","","","","","","","","stimulus","","","2","3","","","","","","","","","",""
"","","","","","","","","","","","canvas-button-response","207","465318","0.0-207.0","2990","elephant","","","","","","","","","","","","","","perceptual","","","2","3","","","","","326","elephant","6","0","1",""
"","","","","","","","","","","","canvas-button-response","208","466580","0.0-208.0","1260","8","","","","","","","","","","","","","","confidence","","","2","3","","","","","","","","","","1"
"","","","","","","","","","","","preload","209","466581","0.0-209.0","","","","","true","","","","","","","","","","","preload","","","2","4","false","[]","[]","[]","","","","","",""
"","","","","","","","","","","","canvas-keyboard-response","210","466883","0.0-210.0","null","null","","","","","","","","","","","","","","fixation","","","2","4","","","","","","","","","",""
"","","","","","","","","","","","canvas-keyboard-response","211","467187","0.0-211.0","null","null","","","","","","","","","","","","","","stimulus","","","2","4","","","","","","","","","",""
"","","","","","","","","","","","canvas-button-response","212","469219","0.0-212.0","2029","bridge","","","","","","","","","","","","","","perceptual","","","2","4","","","","","1","house","6","0","0",""
"","","","","","","","","","","","canvas-button-response","213","470967","0.0-213.0","1746","8","","","","","","","","","","","","","","confidence","","","2","4","","","","","","","","","","1"
"","","","","","","","","","","","preload","214","470969","0.0-214.0","","","","","true","","","","","","","","","","","preload","","","2","5","false","[]","[]","[]","","","","","",""
"","","","","","","","","","","","canvas-keyboard-response","215","471271","0.0-215.0","null","null","","","","","","","","","","","","","","fixation","","","2","5","","","","","","","","","",""
"","","","","","","","","","","","canvas-keyboard-response","216","471574","0.0-216.0","null","null","","","","","","","","","","","","","","stimulus","","","2","5","","","","","","","","","",""
"","","","","","","","","","","","canvas-button-response","217","472976","0.0-217.0","1399","flower","","","","","","","","","","","","","","perceptual","","","2","5","","","","","220","flower","10","0","1",""
"","","","","","","","","","","","canvas-button-response","218","474258","0.0-218.0","1280","10","","","","","","","","","","","","","","confidence","","","2","5","","","","","","","","","","2"
"","","","","","","","","","","","preload","219","474259","0.0-219.0","","","","","true","","","","","","","","","","","preload","","","2","6","false","[]","[]","[]","","","","","",""
"","","","","","","","","","","","canvas-keyboard-response","220","474562","0.0-220.0","null","null","","","","","","","","","","","","","","fixation","","","2","6","","","","","","","","","",""
"","","","","","","","","","","","canvas-keyboard-response","221","474866","0.0-221.0","null","null","","","","","","","","","","","","","","stimulus","","","2","6","","","","","","","","","",""
"","","","","","","","","","","","canvas-button-response","222","480161","0.0-222.0","5293","flower","","","","","","","","","","","","","","perceptual","","","2","6","","","","","235","flower","10","0","1",""
"","","","","","","","","","","","canvas-button-response","223","481931","0.0-223.0","1767","7","","","","","","","","","","","","","","confidence","","","2","6","","","","","","","","","","3"
"","","","","","","","","","","","preload","224","481932","0.0-224.0","","","","","true","","","","","","","","","","","preload","","","2","7","false","[]","[]","[]","","","","","",""
"","","","","","","","","","","","canvas-keyboard-response","225","482234","0.0-225.0","null","null","","","","","","","","","","","","","","fixation","","","2","7","","","","","","","","","",""
"","","","","","","","","","","","canvas-keyboard-response","226","482537","0.0-226.0","null","null","","","","","","","","","","","","","","stimulus","","","2","7","","","","","","","","","",""
"","","","","","","","","","","","canvas-button-response","227","483664","0.0-227.0","1124","cat","","","","","","","","","","","","","","perceptual","","","2","7","","","","","302","cat","10","0","1",""
"","","","","","","","","","","","canvas-button-response","228","485203","0.0-228.0","1537","5","","","","","","","","","","","","","","confidence","","","2","7","","","","","","","","","","4"
"","","","","","","","","","","","preload","229","485204","0.0-229.0","","","","","true","","","","","","","","","","","preload","","","2","8","false","[]","[]","[]","","","","","",""
"","","","","","","","","","","","canvas-keyboard-response","230","485507","0.0-230.0","null","null","","","","","","","","","","","","","","fixation","","","2","8","","","","","","","","","",""
"","","","","","","","","","","","canvas-keyboard-response","231","485810","0.0-231.0","null","null","","","","","","","","","","","","","","stimulus","","","2","8","","","","","","","","","",""
"","","","","","","","","","","","canvas-button-response","232","486903","0.0-232.0","1091","train","","","","","","","","","","","","","","perceptual","","","2","8","","","","","267","train","10","0","1",""
"","","","","","","","","","","","canvas-button-response","233","488389","0.0-233.0","1483","10","","","","","","","","","","","","","","confidence","","","2","8","","","","","","","","","","5"
"","","","","","","","","","","","preload","234","488390","0.0-234.0","","","","","true","","","","","","","","","","","preload","","","2","9","false","[]","[]","[]","","","","","",""
"","","","","","","","","","","","canvas-keyboard-response","235","488692","0.0-235.0","null","null","","","","","","","","","","","","","","fixation","","","2","9","","","","","","","","","",""
"","","","","","","","","","","","canvas-keyboard-response","236","488994","0.0-236.0","null","null","","","","","","","","","","","","","","stimulus","","","2","9","","","","","","","","","",""
"","","","","","","","","","","","canvas-button-response","237","492855","0.0-237.0","3859","train","","","","","","","","","","","","","","perceptual","","","2","9","","","","","185","bridge","10","0","0",""
"","","","","","","","","","","","canvas-button-response","238","494043","0.0-238.0","1186","1","","","","","","","","","","","","","","confidence","","","2","9","","","","","","","","","","5"
"","","","","","","","","","","","preload","239","494044","0.0-239.0","","","","","true","","","","","","","","","","","preload","","","2","10","false","[]","[]","[]","","","","","",""
"","","","","","","","","","","","canvas-keyboard-response","240","494347","0.0-240.0","null","null","","","","","","","","","","","","","","fixation","","","2","10","","","","","","","","","",""
"","","","","","","","","","","","canvas-keyboard-response","241","494649","0.0-241.0","null","null","","","","","","","","","","","","","","stimulus","","","2","10","","","","","","","","","",""
"","","","","","","","","","","","canvas-button-response","242","496781","0.0-242.0","2131","car","","","","","","","","","","","","","","perceptual","","","2","10","","","","","272","train","10","0","0",""
"","","","","","","","","","","","canvas-button-response","243","497764","0.0-243.0","981","1","","","","","","","","","","","","","","confidence","","","2","10","","","","","","","","","","5"
"","","","","","","","","","","","preload","244","497765","0.0-244.0","","","","","true","","","","","","","","","","","preload","","","2","11","false","[]","[]","[]","","","","","",""
"","","","","","","","","","","","canvas-keyboard-response","245","498068","0.0-245.0","null","null","","","","","","","","","","","","","","fixation","","","2","11","","","","","","","","","",""
"","","","","","","","","","","","canvas-keyboard-response","246","498371","0.0-246.0","null","null","","","","","","","","","","","","","","stimulus","","","2","11","","","","","","","","","",""
"","","","","","","","","","","","canvas-button-response","247","500254","0.0-247.0","1880","cat","","","","","","","","","","","","","","perceptual","","","2","11","","","","","24","house","10","0","0",""
"","","","","","","","","","","","canvas-button-response","248","501986","0.0-248.0","1730","1","","","","","","","","","","","","","","confidence","","","2","11","","","","","","","","","","5"
"","","","","","","","","","","","preload","249","501987","0.0-249.0","","","","","true","","","","","","","","","","","preload","","","2","12","false","[]","[]","[]","","","","","",""
"","","","","","","","","","","","canvas-keyboard-response","250","502289","0.0-250.0","null","null","","","","","","","","","","","","","","fixation","","","2","12","","","","","","","","","",""
"","","","","","","","","","","","canvas-keyboard-response","251","502592","0.0-251.0","null","null","","","","","","","","","","","","","","stimulus","","","2","12","","","","","","","","","",""
"","","","","","","","","","","","canvas-button-response","252","503359","0.0-252.0","764","flower","","","","","","","","","","","","","","perceptual","","","2","12","","","","","216","flower","6","0","1",""
"","","","","","","","","","","","canvas-button-response","253","504522","0.0-253.0","1161","10","","","","","","","","","","","","","","confidence","","","2","12","","","","","","","","","","6"
"","","","","","","","","","","","preload","254","504523","0.0-254.0","","","","","true","","","","","","","","","","","preload","","","2","13","false","[]","[]","[]","","","","","",""
"","","","","","","","","","","","canvas-keyboard-response","255","504826","0.0-255.0","null","null","","","","","","","","","","","","","","fixation","","","2","13","","","","","","","","","",""
"","","","","","","","","","","","canvas-keyboard-response","256","505130","0.0-256.0","null","null","","","","","","","","","","","","","","stimulus","","","2","13","","","","","","","","","",""
"","","","","","","","","","","","canvas-button-response","257","506778","0.0-257.0","1645","phone","","","","","","","","","","","","","","perceptual","","","2","13","","","","","95","phone","6","0","1",""
"","","","","","","","","","","","canvas-button-response","258","508466","0.0-258.0","1685","10","","","","","","","","","","","","","","confidence","","","2","13","","","","","","","","","","7"
"","","","","","","","","","","","preload","259","508467","0.0-259.0","","","","","true","","","","","","","","","","","preload","","","2","14","false","[]","[]","[]","","","","","",""
"","","","","","","","","","","","canvas-keyboard-response","260","508769","0.0-260.0","null","null","","","","","","","","","","","","","","fixation","","","2","14","","","","","","","","","",""
"","","","","","","","","","","","canvas-keyboard-response","261","509072","0.0-261.0","null","null","","","","","","","","","","","","","","stimulus","","","2","14","","","","","","","","","",""
"","","","","","","","","","","","canvas-button-response","262","510123","0.0-262.0","1048","train","","","","","","","","","","","","","","perceptual","","","2","14","","","","","392","knife","10","0","0",""
"","","","","","","","","","","","canvas-button-response","263","511024","0.0-263.0","899","10","","","","","","","","","","","","","","confidence","","","2","14","","","","","","","","","","7"
"","","","","","","","","","","","preload","264","511026","0.0-264.0","","","","","true","","","","","","","","","","","preload","","","2","15","false","[]","[]","[]","","","","","",""
"","","","","","","","","","","","canvas-keyboard-response","265","511328","0.0-265.0","null","null","","","","","","","","","","","","","","fixation","","","2","15","","","","","","","","","",""
"","","","","","","","","","","","canvas-keyboard-response","266","511631","0.0-266.0","null","null","","","","","","","","","","","","","","stimulus","","","2","15","","","","","","","","","",""
"","","","","","","","","","","","canvas-button-response","267","512906","0.0-267.0","1272","bridge","","","","","","","","","","","","","","perceptual","","","2","15","","","","","162","bridge","6","0","1",""
"","","","","","","","","","","","canvas-button-response","268","513836","0.0-268.0","928","10","","","","","","","","","","","","","","confidence","","","2","15","","","","","","","","","","8"
"","","","","","","","","","","","preload","269","513837","0.0-269.0","","","","","true","","","","","","","","","","","preload","","","2","16","false","[]","[]","[]","","","","","",""
"","","","","","","","","","","","canvas-keyboard-response","270","514138","0.0-270.0","null","null","","","","","","","","","","","","","","fixation","","","2","16","","","","","","","","","",""
"","","","","","","","","","","","canvas-keyboard-response","271","514440","0.0-271.0","null","null","","","","","","","","","","","","","","stimulus","","","2","16","","","","","","","","","",""
"","","","","","","","","","","","canvas-button-response","272","515940","0.0-272.0","1499","cat","","","","","","","","","","","","","","perceptual","","","2","16","","","","","358","elephant","10","0","0",""
"","","","","","","","","","","","canvas-button-response","273","517451","0.0-273.0","1510","0","","","","","","","","","","","","","","confidence","","","2","16","","","","","","","","","","8"
"","","","","","","","","","","","preload","274","517453","0.0-274.0","","","","","true","","","","","","","","","","","preload","","","2","17","false","[]","[]","[]","","","","","",""
"","","","","","","","","","","","canvas-keyboard-response","275","517754","0.0-275.0","null","null","","","","","","","","","","","","","","fixation","","","2","17","","","","","","","","","",""
"","","","","","","","","","","","canvas-keyboard-response","276","518055","0.0-276.0","null","null","","","","","","","","","","","","","","stimulus","","","2","17","","","","","","","","","",""
"","","","","","","","","","","","canvas-button-response","277","519610","0.0-277.0","1554","flower","","","","","","","","","","","","","","perceptual","","","2","17","","","","","205","flower","6","0","1",""
"","","","","","","","","","","","canvas-button-response","278","520489","0.0-278.0","876","10","","","","","","","","","","","","","","confidence","","","2","17","","","","","","","","","","9"
"","","","","","","","","","","","preload","279","520490","0.0-279.0","","","","","true","","","","","","","","","","","preload","","","2","18","false","[]","[]","[]","","","","","",""
"","","","","","","","","","","","canvas-keyboard-response","280","520792","0.0-280.0","null","null","","","","","","","","","","","","","","fixation","","","2","18","","","","","","","","","",""
"","","","","","","","","","","","canvas-keyboard-response","281","521096","0.0-281.0","null","null","","","","","","","","","","","","","","stimulus","","","2","18","","","","","","","","","",""
"","","","","","","","","","","","canvas-button-response","282","522265","0.0-282.0","1167","phone","","","","","","","","","","","","","","perceptual","","","2","18","","","","","372","knife","6","0","0",""
"","","","","","","","","","","","canvas-button-response","283","523377","0.0-283.0","1110","0","","","","","","","","","","","","","","confidence","","","2","18","","","","","","","","","","9"
"","","","","","","","","","","","preload","284","523377","0.0-284.0","","","","","true","","","","","","","","","","","preload","","","2","19","false","[]","[]","[]","","","","","",""
"","","","","","","","","","","","canvas-keyboard-response","285","523679","0.0-285.0","null","null","","","","","","","","","","","","","","fixation","","","2","19","","","","","","","","","",""
"","","","","","","","","","","","canvas-keyboard-response","286","523981","0.0-286.0","null","null","","","","","","","","","","","","","","stimulus","","","2","19","","","","","","","","","",""
"","","","","","","","","","","","canvas-button-response","287","526181","0.0-287.0","2197","knife","","","","","","","","","","","","","","perceptual","","","2","19","","","","","371","knife","6","0","1",""
"","","","","","","","","","","","canvas-button-response","288","527637","0.0-288.0","1453","10","","","","","","","","","","","","","","confidence","","","2","19","","","","","","","","","","10"
"","","","","","","","","","","","preload","289","527638","0.0-289.0","","","","","true","","","","","","","","","","","preload","","","2","20","false","[]","[]","[]","","","","","",""
"","","","","","","","","","","","canvas-keyboard-response","290","527941","0.0-290.0","null","null","","","","","","","","","","","","","","fixation","","","2","20","","","","","","","","","",""
"","","","","","","","","","","","canvas-keyboard-response","291","528244","0.0-291.0","null","null","","","","","","","","","","","","","","stimulus","","","2","20","","","","","","","","","",""
"","","","","","","","","","","","canvas-button-response","292","529638","0.0-292.0","1392","bridge","","","","","","","","","","","","","","perceptual","","","2","20","","","","","167","bridge","6","0","1",""
"","","","","","","","","","","","canvas-button-response","293","532250","0.0-293.0","2609","10","","","","","","","","","","","","","","confidence","","","2","20","","","","","","","","","","11"
"","","","","","","","","","","","preload","294","532251","0.0-294.0","","","","","true","","","","","","","","","","","preload","","","2","21","false","[]","[]","[]","","","","","",""
"","","","","","","","","","","","canvas-keyboard-response","295","532554","0.0-295.0","null","null","","","","","","","","","","","","","","fixation","","","2","21","","","","","","","","","",""
"","","","","","","","","","","","canvas-keyboard-response","296","532856","0.0-296.0","null","null","","","","","","","","","","","","","","stimulus","","","2","21","","","","","","","","","",""
"","","","","","","","","","","","canvas-button-response","297","534477","0.0-297.0","1618","house","","","","","","","","","","","","","","perceptual","","","2","21","","","","","14","house","6","0","1",""
"","","","","","","","","","","","canvas-button-response","298","535722","0.0-298.0","1243","10","","","","","","","","","","","","","","confidence","","","2","21","","","","","","","","","","12"
"","","","","","","","","","","","preload","299","535723","0.0-299.0","","","","","true","","","","","","","","","","","preload","","","2","22","false","[]","[]","[]","","","","","",""
"","","","","","","","","","","","canvas-keyboard-response","300","536026","0.0-300.0","null","null","","","","","","","","","","","","","","fixation","","","2","22","","","","","","","","","",""
"","","","","","","","","","","","canvas-keyboard-response","301","536329","0.0-301.0","null","null","","","","","","","","","","","","","","stimulus","","","2","22","","","","","","","","","",""
"","","","","","","","","","","","canvas-button-response","302","541662","0.0-302.0","5330","car","","","","","","","","","","","","","","perceptual","","","2","22","","","","","340","elephant","10","0","0",""
"","","","","","","","","","","","canvas-button-response","303","543063","0.0-303.0","1399","0","","","","","","","","","","","","","","confidence","","","2","22","","","","","","","","","","12"
"","","","","","","","","","","","preload","304","543064","0.0-304.0","","","","","true","","","","","","","","","","","preload","","","2","23","false","[]","[]","[]","","","","","",""
"","","","","","","","","","","","canvas-keyboard-response","305","543366","0.0-305.0","null","null","","","","","","","","","","","","","","fixation","","","2","23","","","","","","","","","",""
"","","","","","","","","","","","canvas-keyboard-response","306","543668","0.0-306.0","null","null","","","","","","","","","","","","","","stimulus","","","2","23","","","","","","","","","",""
"","","","","","","","","","","","canvas-button-response","307","544985","0.0-307.0","1314","cat","","","","","","","","","","","","","","perceptual","","","2","23","","","","","299","cat","6","0","1",""
"","","","","","","","","","","","canvas-button-response","308","546296","0.0-308.0","1309","10","","","","","","","","","","","","","","confidence","","","2","23","","","","","","","","","","13"
"","","","","","","","","","","","preload","309","546297","0.0-309.0","","","","","true","","","","","","","","","","","preload","","","2","24","false","[]","[]","[]","","","","","",""
"","","","","","","","","","","","canvas-keyboard-response","310","546600","0.0-310.0","null","null","","","","","","","","","","","","","","fixation","","","2","24","","","","","","","","","",""
"","","","","","","","","","","","canvas-keyboard-response","311","546903","0.0-311.0","null","null","","","","","","","","","","","","","","stimulus","","","2","24","","","","","","","","","",""
"","","","","","","","","","","","canvas-button-response","312","547836","0.0-312.0","930","train","","","","","","","","","","","","","","perceptual","","","2","24","","","","","274","train","10","0","1",""
"","","","","","","","","","","","canvas-button-response","313","548508","0.0-313.0","670","10","","","","","","","","","","","","","","confidence","","","2","24","","","","","","","","","","14"
"","","","","","","","","","","","preload","314","548509","0.0-314.0","","","","","true","","","","","","","","","","","preload","","","2","25","false","[]","[]","[]","","","","","",""
"","","","","","","","","","","","canvas-keyboard-response","315","548811","0.0-315.0","null","null","","","","","","","","","","","","","","fixation","","","2","25","","","","","","","","","",""
"","","","","","","","","","","","canvas-keyboard-response","316","549114","0.0-316.0","null","null","","","","","","","","","","","","","","stimulus","","","2","25","","","","","","","","","",""
"","","","","","","","","","","","canvas-button-response","317","550474","0.0-317.0","1359","knife","","","","","","","","","","","","","","perceptual","","","2","25","","","","","291","cat","6","0","0",""
"","","","","","","","","","","","canvas-button-response","318","551477","0.0-318.0","1001","10","","","","","","","","","","","","","","confidence","","","2","25","","","","","","","","","","14"
"","","","","","","","","","","","preload","319","551479","0.0-319.0","","","","","true","","","","","","","","","","","preload","","","2","26","false","[]","[]","[]","","","","","",""
"","","","","","","","","","","","canvas-keyboard-response","320","551782","0.0-320.0","null","null","","","","","","","","","","","","","","fixation","","","2","26","","","","","","","","","",""
"","","","","","","","","","","","canvas-keyboard-response","321","552085","0.0-321.0","null","null","","","","","","","","","","","","","","stimulus","","","2","26","","","","","","","","","",""
"","","","","","","","","","","","canvas-button-response","322","554262","0.0-322.0","2174","house","","","","","","","","","","","","","","perceptual","","","2","26","","","","","10","house","6","0","1",""
"","","","","","","","","","","","canvas-button-response","323","555349","0.0-323.0","1085","1","","","","","","","","","","","","","","confidence","","","2","26","","","","","","","","","","15"
"","","","","","","","","","","","preload","324","555350","0.0-324.0","","","","","true","","","","","","","","","","","preload","","","2","27","false","[]","[]","[]","","","","","",""
"","","","","","","","","","","","canvas-keyboard-response","325","555652","0.0-325.0","null","null","","","","","","","","","","","","","","fixation","","","2","27","","","","","","","","","",""
"","","","","","","","","","","","canvas-keyboard-response","326","555956","0.0-326.0","null","null","","","","","","","","","","","","","","stimulus","","","2","27","","","","","","","","","",""
"","","","","","","","","","","","canvas-button-response","327","559421","0.0-327.0","3463","bridge","","","","","","","","","","","","","","perceptual","","","2","27","","","","","73","car","10","0","0",""
"","","","","","","","","","","","canvas-button-response","328","560673","0.0-328.0","1249","8","","","","","","","","","","","","","","confidence","","","2","27","","","","","","","","","","15"
"","","","","","","","","","","","preload","329","560674","0.0-329.0","","","","","true","","","","","","","","","","","preload","","","2","28","false","[]","[]","[]","","","","","",""
"","","","","","","","","","","","canvas-keyboard-response","330","560977","0.0-330.0","null","null","","","","","","","","","","","","","","fixation","","","2","28","","","","","","","","","",""
"","","","","","","","","","","","canvas-keyboard-response","331","561280","0.0-331.0","null","null","","","","","","","","","","","","","","stimulus","","","2","28","","","","","","","","","",""
"","","","","","","","","","","","canvas-button-response","332","564439","0.0-332.0","3155","bed","","","","","","","","","","","","","","perceptual","","","2","28","","","","","149","bed","10","0","1",""
"","","","","","","","","","","","canvas-button-response","333","566877","0.0-333.0","2436","1","","","","","","","","","","","","","","confidence","","","2","28","","","","","","","","","","16"
"","","","","","","","","","","","preload","334","566878","0.0-334.0","","","","","true","","","","","","","","","","","preload","","","2","29","false","[]","[]","[]","","","","","",""
"","","","","","","","","","","","canvas-keyboard-response","335","567181","0.0-335.0","null","null","","","","","","","","","","","","","","fixation","","","2","29","","","","","","","","","",""
"","","","","","","","","","","","canvas-keyboard-response","336","567483","0.0-336.0","null","null","","","","","","","","","","","","","","stimulus","","","2","29","","","","","","","","","",""
"","","","","","","","","","","","canvas-button-response","337","568330","0.0-337.0","845","cat","","","","","","","","","","","","","","perceptual","","","2","29","","","","","283","cat","6","0","1",""
"","","","","","","","","","","","canvas-button-response","338","569637","0.0-338.0","1305","10","","","","","","","","","","","","","","confidence","","","2","29","","","","","","","","","","17"
"","","","","","","","","","","","preload","339","569638","0.0-339.0","","","","","true","","","","","","","","","","","preload","","","2","30","false","[]","[]","[]","","","","","",""
"","","","","","","","","","","","canvas-keyboard-response","340","569939","0.0-340.0","null","null","","","","","","","","","","","","","","fixation","","","2","30","","","","","","","","","",""
"","","","","","","","","","","","canvas-keyboard-response","341","570242","0.0-341.0","null","null","","","","","","","","","","","","","","stimulus","","","2","30","","","","","","","","","",""
"","","","","","","","","","","","canvas-button-response","342","571474","0.0-342.0","1229","flower","","","","","","","","","","","","","","perceptual","","","2","30","","","","","214","flower","6","0","1",""
"","","","","","","","","","","","canvas-button-response","343","572704","0.0-343.0","1227","10","","","","","","","","","","","","","","confidence","","","2","30","","","","","","","","","","18"
"","","","","","","","","","","","preload","344","572705","0.0-344.0","","","","","true","","","","","","","","","","","preload","","","2","31","false","[]","[]","[]","","","","","",""
"","","","","","","","","","","","canvas-keyboard-response","345","573008","0.0-345.0","null","null","","","","","","","","","","","","","","fixation","","","2","31","","","","","","","","","",""
"","","","","","","","","","","","canvas-keyboard-response","346","573310","0.0-346.0","null","null","","","","","","","","","","","","","","stimulus","","","2","31","","","","","","","","","",""
"","","","","","","","","","","","canvas-button-response","347","574397","0.0-347.0","1085","bridge","","","","","","","","","","","","","","perceptual","","","2","31","","","","","168","bridge","6","0","1",""
"","","","","","","","","","","","canvas-button-response","348","575576","0.0-348.0","1177","10","","","","","","","","","","","","","","confidence","","","2","31","","","","","","","","","","19"
"","","","","","","","","","","","preload","349","575577","0.0-349.0","","","","","true","","","","","","","","","","","preload","","","2","32","false","[]","[]","[]","","","","","",""
"","","","","","","","","","","","canvas-keyboard-response","350","575880","0.0-350.0","null","null","","","","","","","","","","","","","","fixation","","","2","32","","","","","","","","","",""
"","","","","","","","","","","","canvas-keyboard-response","351","576183","0.0-351.0","null","null","","","","","","","","","","","","","","stimulus","","","2","32","","","","","","","","","",""
"","","","","","","","","","","","canvas-button-response","352","577203","0.0-352.0","1017","car","","","","","","","","","","","","","","perceptual","","","2","32","","","","","44","car","6","0","1",""
"","","","","","","","","","","","canvas-button-response","353","578314","0.0-353.0","1109","10","","","","","","","","","","","","","","confidence","","","2","32","","","","","","","","","","20"
"","","","","","","","","","","","preload","354","578315","0.0-354.0","","","","","true","","","","","","","","","","","preload","","","2","33","false","[]","[]","[]","","","","","",""
"","","","","","","","","","","","canvas-keyboard-response","355","578618","0.0-355.0","null","null","","","","","","","","","","","","","","fixation","","","2","33","","","","","","","","","",""
"","","","","","","","","","","","canvas-keyboard-response","356","578922","0.0-356.0","null","null","","","","","","","","","","","","","","stimulus","","","2","33","","","","","","","","","",""
"","","","","","","","","","","","canvas-button-response","357","579626","0.0-357.0","702","train","","","","","","","","","","","","","","perceptual","","","2","33","","","","","259","train","6","0","1",""
"","","","","","","","","","","","canvas-button-response","358","580203","0.0-358.0","575","10","","","","","","","","","","","","","","confidence","","","2","33","","","","","","","","","","21"
"","","","","","","","","","","","preload","359","580204","0.0-359.0","","","","","true","","","","","","","","","","","preload","","","2","34","false","[]","[]","[]","","","","","",""
"","","","","","","","","","","","canvas-keyboard-response","360","580507","0.0-360.0","null","null","","","","","","","","","","","","","","fixation","","","2","34","","","","","","","","","",""
"","","","","","","","","","","","canvas-keyboard-response","361","580810","0.0-361.0","null","null","","","","","","","","","","","","","","stimulus","","","2","34","","","","","","","","","",""
"","","","","","","","","","","","canvas-button-response","362","581598","0.0-362.0","786","train","","","","","","","","","","","","","","perceptual","","","2","34","","","","","241","train","6","0","1",""
"","","","","","","","","","","","canvas-button-response","363","582131","0.0-363.0","531","10","","","","","","","","","","","","","","confidence","","","2","34","","","","","","","","","","22"
"","","","","","","","","","","","preload","364","582132","0.0-364.0","","","","","true","","","","","","","","","","","preload","","","2","35","false","[]","[]","[]","","","","","",""
"","","","","","","","","","","","canvas-keyboard-response","365","582435","0.0-365.0","null","null","","","","","","","","","","","","","","fixation","","","2","35","","","","","","","","","",""
"","","","","","","","","","","","canvas-keyboard-response","366","582738","0.0-366.0","null","null","","","","","","","","","","","","","","stimulus","","","2","35","","","","","","","","","",""
"","","","","","","","","","","","canvas-button-response","367","583956","0.0-367.0","1216","cat","","","","","","","","","","","","","","perceptual","","","2","35","","","","","282","cat","6","0","1",""
"","","","","","","","","","","","canvas-button-response","368","584868","0.0-368.0","911","10","","","","","","","","","","","","","","confidence","","","2","35","","","","","","","","","","23"
"","","","","","","","","","","","preload","369","584870","0.0-369.0","","","","","true","","","","","","","","","","","preload","","","2","36","false","[]","[]","[]","","","","","",""
"","","","","","","","","","","","canvas-keyboard-response","370","585173","0.0-370.0","null","null","","","","","","","","","","","","","","fixation","","","2","36","","","","","","","","","",""
"","","","","","","","","","","","canvas-keyboard-response","371","585476","0.0-371.0","null","null","","","","","","","","","","","","","","stimulus","","","2","36","","","","","","","","","",""
"","","","","","","","","","","","canvas-button-response","372","587276","0.0-372.0","1798","house","","","","","","","","","","","","","","perceptual","","","2","36","","","","","28","house","10","0","1",""
"","","","","","","","","","","","canvas-button-response","373","590006","0.0-373.0","2728","5","","","","","","","","","","","","","","confidence","","","2","36","","","","","","","","","","24"
"","","","","","","","","","","","preload","374","590007","0.0-374.0","","","","","true","","","","","","","","","","","preload","","","2","37","false","[]","[]","[]","","","","","",""
"","","","","","","","","","","","canvas-keyboard-response","375","590309","0.0-375.0","null","null","","","","","","","","","","","","","","fixation","","","2","37","","","","","","","","","",""
"","","","","","","","","","","","canvas-keyboard-response","376","590610","0.0-376.0","null","null","","","","","","","","","","","","","","stimulus","","","2","37","","","","","","","","","",""
"","","","","","","","","","","","canvas-button-response","377","592241","0.0-377.0","1630","bridge","","","","","","","","","","","","","","perceptual","","","2","37","","","","","25","house","10","0","0",""
"","","","","","","","","","","","canvas-button-response","378","593044","0.0-378.0","801","10","","","","","","","","","","","","","","confidence","","","2","37","","","","","","","","","","24"
"","","","","","","","","","","","preload","379","593045","0.0-379.0","","","","","true","","","","","","","","","","","preload","","","2","38","false","[]","[]","[]","","","","","",""
"","","","","","","","","","","","canvas-keyboard-response","380","593347","0.0-380.0","null","null","","","","","","","","","","","","","","fixation","","","2","38","","","","","","","","","",""
"","","","","","","","","","","","canvas-keyboard-response","381","593651","0.0-381.0","null","null","","","","","","","","","","","","","","stimulus","","","2","38","","","","","","","","","",""
"","","","","","","","","","","","canvas-button-response","382","594590","0.0-382.0","936","flower","","","","","","","","","","","","","","perceptual","","","2","38","","","","","236","flower","10","0","1",""
"","","","","","","","","","","","canvas-button-response","383","595391","0.0-383.0","799","10","","","","","","","","","","","","","","confidence","","","2","38","","","","","","","","","","25"
"","","","","","","","","","","","preload","384","595392","0.0-384.0","","","","","true","","","","","","","","","","","preload","","","2","39","false","[]","[]","[]","","","","","",""
"","","","","","","","","","","","canvas-keyboard-response","385","595695","0.0-385.0","null","null","","","","","","","","","","","","","","fixation","","","2","39","","","","","","","","","",""
"","","","","","","","","","","","canvas-keyboard-response","386","595998","0.0-386.0","null","null","","","","","","","","","","","","","","stimulus","","","2","39","","","","","","","","","",""
"","","","","","","","","","","","canvas-button-response","387","596899","0.0-387.0","899","bridge","","","","","","","","","","","","","","perceptual","","","2","39","","","","","169","bridge","6","0","1",""
"","","","","","","","","","","","canvas-button-response","388","598008","0.0-388.0","1107","10","","","","","","","","","","","","","","confidence","","","2","39","","","","","","","","","","26"
"","","","","","","","","","","","preload","389","598009","0.0-389.0","","","","","true","","","","","","","","","","","preload","","","2","40","false","[]","[]","[]","","","","","",""
"","","","","","","","","","","","canvas-keyboard-response","390","598312","0.0-390.0","null","null","","","","","","","","","","","","","","fixation","","","2","40","","","","","","","","","",""
"","","","","","","","","","","","canvas-keyboard-response","391","598616","0.0-391.0","null","null","","","","","","","","","","","","","","stimulus","","","2","40","","","","","","","","","",""
"","","","","","","","","","","","canvas-button-response","392","601046","0.0-392.0","2428","house","","","","","","","","","","","","","","perceptual","","","2","40","","","","","266","train","10","0","0",""
"","","","","","","","","","","","canvas-button-response","393","602275","0.0-393.0","1226","2","","","","","","","","","","","","","","confidence","","","2","40","","","","","","","","","","26"
"","","","","","","","","","","","preload","394","602276","0.0-394.0","","","","","true","","","","","","","","","","","preload","","","2","41","false","[]","[]","[]","","","","","",""
"","","","","","","","","","","","canvas-keyboard-response","395","602579","0.0-395.0","null","null","","","","","","","","","","","","","","fixation","","","2","41","","","","","","","","","",""
"","","","","","","","","","","","canvas-keyboard-response","396","602881","0.0-396.0","null","null","","","","","","","","","","","","","","stimulus","","","2","41","","","","","","","","","",""
"","","","","","","","","","","","canvas-button-response","397","604068","0.0-397.0","1185","train","","","","","","","","","","","","","","perceptual","","","2","41","","","","","256","train","6","0","1",""
"","","","","","","","","","","","canvas-button-response","398","604736","0.0-398.0","665","10","","","","","","","","","","","","","","confidence","","","2","41","","","","","","","","","","27"
"","","","","","","","","","","","preload","399","604737","0.0-399.0","","","","","true","","","","","","","","","","","preload","","","2","42","false","[]","[]","[]","","","","","",""
"","","","","","","","","","","","canvas-keyboard-response","400","605038","0.0-400.0","null","null","","","","","","","","","","","","","","fixation","","","2","42","","","","","","","","","",""
"","","","","","","","","","","","canvas-keyboard-response","401","605341","0.0-401.0","null","null","","","","","","","","","","","","","","stimulus","","","2","42","","","","","","","","","",""
"","","","","","","","","","","","canvas-button-response","402","606281","0.0-402.0","938","knife","","","","","","","","","","","","","","perceptual","","","2","42","","","","","370","knife","6","0","1",""
"","","","","","","","","","","","canvas-button-response","403","607639","0.0-403.0","1357","10","","","","","","","","","","","","","","confidence","","","2","42","","","","","","","","","","28"
"","","","","","","","","","","","preload","404","607640","0.0-404.0","","","","","true","","","","","","","","","","","preload","","","2","43","false","[]","[]","[]","","","","","",""
"","","","","","","","","","","","canvas-keyboard-response","405","607943","0.0-405.0","null","null","","","","","","","","","","","","","","fixation","","","2","43","","","","","","","","","",""
"","","","","","","","","","","","canvas-keyboard-response","406","608246","0.0-406.0","null","null","","","","","","","","","","","","","","stimulus","","","2","43","","","","","","","","","",""
"","","","","","","","","","","","canvas-button-response","407","609101","0.0-407.0","852","flower","","","","","","","","","","","","","","perceptual","","","2","43","","","","","221","flower","10","0","1",""
"","","","","","","","","","","","canvas-button-response","408","609978","0.0-408.0","875","10","","","","","","","","","","","","","","confidence","","","2","43","","","","","","","","","","29"
"","","","","","","","","","","","preload","409","609979","0.0-409.0","","","","","true","","","","","","","","","","","preload","","","2","44","false","[]","[]","[]","","","","","",""
"","","","","","","","","","","","canvas-keyboard-response","410","610281","0.0-410.0","null","null","","","","","","","","","","","","","","fixation","","","2","44","","","","","","","","","",""
"","","","","","","","","","","","canvas-keyboard-response","411","610584","0.0-411.0","null","null","","","","","","","","","","","","","","stimulus","","","2","44","","","","","","","","","",""
"","","","","","","","","","","","canvas-button-response","412","612295","0.0-412.0","1710","bridge","","","","","","","","","","","","","","perceptual","","","2","44","","","","","186","bridge","10","0","1",""
"","","","","","","","","","","","canvas-button-response","413","613466","0.0-413.0","1169","10","","","","","","","","","","","","","","confidence","","","2","44","","","","","","","","","","30"
"","","","","","","","","","","","preload","414","613467","0.0-414.0","","","","","true","","","","","","","","","","","preload","","","2","45","false","[]","[]","[]","","","","","",""
"","","","","","","","","","","","canvas-keyboard-response","415","613769","0.0-415.0","null","null","","","","","","","","","","","","","","fixation","","","2","45","","","","","","","","","",""
"","","","","","","","","","","","canvas-keyboard-response","416","614072","0.0-416.0","null","null","","","","","","","","","","","","","","stimulus","","","2","45","","","","","","","","","",""
"","","","","","","","","","","","canvas-button-response","417","616309","0.0-417.0","2235","house","","","","","","","","","","","","","","perceptual","","","2","45","","","","","275","train","10","0","0",""
"","","","","","","","","","","","canvas-button-response","418","617546","0.0-418.0","1235","1","","","","","","","","","","","","","","confidence","","","2","45","","","","","","","","","","30"
"","","","","","","","","","","","preload","419","617547","0.0-419.0","","","","","true","","","","","","","","","","","preload","","","2","46","false","[]","[]","[]","","","","","",""
"","","","","","","","","","","","canvas-keyboard-response","420","617850","0.0-420.0","null","null","","","","","","","","","","","","","","fixation","","","2","46","","","","","","","","","",""
"","","","","","","","","","","","canvas-keyboard-response","421","618153","0.0-421.0","null","null","","","","","","","","","","","","","","stimulus","","","2","46","","","","","","","","","",""
"","","","","","","","","","","","canvas-button-response","422","619796","0.0-422.0","1641","elephant","","","","","","","","","","","","","","perceptual","","","2","46","","","","","352","elephant","10","0","1",""
"","","","","","","","","","","","canvas-button-response","423","620704","0.0-423.0","906","10","","","","","","","","","","","","","","confidence","","","2","46","","","","","","","","","","31"
"","","","","","","","","","","","preload","424","620705","0.0-424.0","","","","","true","","","","","","","","","","","preload","","","2","47","false","[]","[]","[]","","","","","",""
"","","","","","","","","","","","canvas-keyboard-response","425","621007","0.0-425.0","null","null","","","","","","","","","","","","","","fixation","","","2","47","","","","","","","","","",""
"","","","","","","","","","","","canvas-keyboard-response","426","621311","0.0-426.0","null","null","","","","","","","","","","","","","","stimulus","","","2","47","","","","","","","","","",""
"","","","","","","","","","","","canvas-button-response","427","622595","0.0-427.0","1281","train","","","","","","","","","","","","","","perceptual","","","2","47","","","","","264","train","10","0","1",""
"","","","","","","","","","","","canvas-button-response","428","623524","0.0-428.0","928","9","","","","","","","","","","","","","","confidence","","","2","47","","","","","","","","","","32"
"","","","","","","","","","","","preload","429","623525","0.0-429.0","","","","","true","","","","","","","","","","","preload","","","2","48","false","[]","[]","[]","","","","","",""
"","","","","","","","","","","","canvas-keyboard-response","430","623828","0.0-430.0","null","null","","","","","","","","","","","","","","fixation","","","2","48","","","","","","","","","",""
"","","","","","","","","","","","canvas-keyboard-response","431","624130","0.0-431.0","null","null","","","","","","","","","","","","","","stimulus","","","2","48","","","","","","","","","",""
"","","","","","","","","","","","canvas-button-response","432","625346","0.0-432.0","1213","bridge","","","","","","","","","","","","","","perceptual","","","2","48","","","","","164","bridge","6","0","1",""
"","","","","","","","","","","","canvas-button-response","433","626367","0.0-433.0","1019","10","","","","","","","","","","","","","","confidence","","","2","48","","","","","","","","","","33"
"","","","","","","","","","","","preload","434","626368","0.0-434.0","","","","","true","","","","","","","","","","","preload","","","2","49","false","[]","[]","[]","","","","","",""
"","","","","","","","","","","","canvas-keyboard-response","435","626671","0.0-435.0","null","null","","","","","","","","","","","","","","fixation","","","2","49","","","","","","","","","",""
"","","","","","","","","","","","canvas-keyboard-response","436","626975","0.0-436.0","null","null","","","","","","","","","","","","","","stimulus","","","2","49","","","","","","","","","",""
"","","","","","","","","","","","canvas-button-response","437","628324","0.0-437.0","1346","flower","","","","","","","","","","","","","","perceptual","","","2","49","","","","","226","flower","10","0","1",""
"","","","","","","","","","","","canvas-button-response","438","629848","0.0-438.0","1523","10","","","","","","","","","","","","","","confidence","","","2","49","","","","","","","","","","34"
"","","","","","","","","","","","html-button-response","439","652077","0.0-439.0","22227","0","","","","","","","","","","","","","","<p style=""font-size:20px;color:#000000"">You got 34 out of 50 trials correct in this block.<br><br>You have completed 6% of the experiment.<br><br>Take a short break.<br><br>When you are ready, click Continue to proceed.","","","2","49","","","","","","","","","",""
"","","","","","","","","","","","html-keyboard-response","440","653080","0.0-440.0","null","null","","","","","","","","","","","","","","<p style=""font-size:32px;color:#000000""><br><br> RUN: &nbsp 1/4 <br><br> BLOCK: 2/4 ","","","2","49","","","","","","","","","",""
"","","","","","","","","","","","preload","441","653081","0.0-441.0","","","","","true","","","","","","","","","","","preload","","","2","50","false","[]","[]","[]","","","","","",""
"","","","","","","","","","","","canvas-keyboard-response","442","653384","0.0-442.0","null","null","","","","","","","","","","","","","","fixation","","","2","50","","","","","","","","","",""
"","","","","","","","","","","","canvas-keyboard-response","443","653687","0.0-443.0","null","null","","","","","","","","","","","","","","stimulus","","","2","50","","","","","","","","","",""
"","","","","","","","","","","","canvas-button-response","444","655829","0.0-444.0","2139","house","","","","","","","","","","","","","","perceptual","","","2","50","","","","","364","knife","6","0","0",""
"","","","","","","","","","","","canvas-button-response","445","656614","0.0-445.0","783","1","","","","","","","","","","","","","","confidence","","","2","50","","","","","","","","","","0"
"","","","","","","","","","","","preload","446","656615","0.0-446.0","","","","","true","","","","","","","","","","","preload","","","2","51","false","[]","[]","[]","","","","","",""
"","","","","","","","","","","","canvas-keyboard-response","447","656918","0.0-447.0","null","null","","","","","","","","","","","","","","fixation","","","2","51","","","","","","","","","",""
"","","","","","","","","","","","canvas-keyboard-response","448","657222","0.0-448.0","null","null","","","","","","","","","","","","","","stimulus","","","2","51","","","","","","","","","",""
"","","","","","","","","","","","canvas-button-response","449","659044","0.0-449.0","1820","knife","","","","","","","","","","","","","","perceptual","","","2","51","","","","","315","cat","10","0","0",""
"","","","","","","","","","","","canvas-button-response","450","660425","0.0-450.0","1379","2","","","","","","","","","","","","","","confidence","","","2","51","","","","","","","","","","0"
"","","","","","","","","","","","preload","451","660426","0.0-451.0","","","","","true","","","","","","","","","","","preload","","","2","52","false","[]","[]","[]","","","","","",""
"","","","","","","","","","","","canvas-keyboard-response","452","660729","0.0-452.0","null","null","","","","","","","","","","","","","","fixation","","","2","52","","","","","","","","","",""
"","","","","","","","","","","","canvas-keyboard-response","453","661032","0.0-453.0","null","null","","","","","","","","","","","","","","stimulus","","","2","52","","","","","","","","","",""
"","","","","","","","","","","","canvas-button-response","454","662097","0.0-454.0","1062","phone","","","","","","","","","","","","","","perceptual","","","2","52","","","","","117","phone","10","0","1",""
"","","","","","","","","","","","canvas-button-response","455","662884","0.0-455.0","785","10","","","","","","","","","","","","","","confidence","","","2","52","","","","","","","","","","1"
"","","","","","","","","","","","preload","456","662885","0.0-456.0","","","","","true","","","","","","","","","","","preload","","","2","53","false","[]","[]","[]","","","","","",""
"","","","","","","","","","","","canvas-keyboard-response","457","663187","0.0-457.0","null","null","","","","","","","","","","","","","","fixation","","","2","53","","","","","","","","","",""
"","","","","","","","","","","","canvas-keyboard-response","458","663490","0.0-458.0","null","null","","","","","","","","","","","","","","stimulus","","","2","53","","","","","","","","","",""
"","","","","","","","","","","","canvas-button-response","459","665989","0.0-459.0","2496","bed","","","","","","","","","","","","","","perceptual","","","2","53","","","","","321","elephant","6","0","0",""
"","","","","","","","","","","","canvas-button-response","460","666567","0.0-460.0","577","1","","","","","","","","","","","","","","confidence","","","2","53","","","","","","","","","","1"
"","","","","","","","","","","","preload","461","666568","0.0-461.0","","","","","true","","","","","","","","","","","preload","","","2","54","false","[]","[]","[]","","","","","",""
"","","","","","","","","","","","canvas-keyboard-response","462","666871","0.0-462.0","null","null","","","","","","","","","","","","","","fixation","","","2","54","","","","","","","","","",""
"","","","","","","","","","","","canvas-keyboard-response","463","667174","0.0-463.0","null","null","","","","","","","","","","","","","","stimulus","","","2","54","","","","","","","","","",""
"","","","","","","","","","","","canvas-button-response","464","673308","0.0-464.0","6132","bed","","","","","","","","","","","","","","perceptual","","","2","54","","","","","399","knife","10","0","0",""
"","","","","","","","","","","","canvas-button-response","465","674636","0.0-465.0","1326","0","","","","","","","","","","","","","","confidence","","","2","54","","","","","","","","","","1"
"","","","","","","","","","","","preload","466","674637","0.0-466.0","","","","","true","","","","","","","","","","","preload","","","2","55","false","[]","[]","[]","","","","","",""
"","","","","","","","","","","","canvas-keyboard-response","467","674940","0.0-467.0","null","null","","","","","","","","","","","","","","fixation","","","2","55","","","","","","","","","",""
"","","","","","","","","","","","canvas-keyboard-response","468","675244","0.0-468.0","null","null","","","","","","","","","","","","","","stimulus","","","2","55","","","","","","","","","",""
"","","","","","","","","","","","canvas-button-response","469","675985","0.0-469.0","739","flower","","","","","","","","","","","","","","perceptual","","","2","55","","","","","219","flower","6","0","1",""
"","","","","","","","","","","","canvas-button-response","470","677059","0.0-470.0","1071","10","","","","","","","","","","","","","","confidence","","","2","55","","","","","","","","","","2"
"","","","","","","","","","","","preload","471","677060","0.0-471.0","","","","","true","","","","","","","","","","","preload","","","2","56","false","[]","[]","[]","","","","","",""
"","","","","","","","","","","","canvas-keyboard-response","472","677362","0.0-472.0","null","null","","","","","","","","","","","","","","fixation","","","2","56","","","","","","","","","",""
"","","","","","","","","","","","canvas-keyboard-response","473","677666","0.0-473.0","null","null","","","","","","","","","","","","","","stimulus","","","2","56","","","","","","","","","",""
"","","","","","","","","","","","canvas-button-response","474","678708","0.0-474.0","1039","bridge","","","","","","","","","","","","","","perceptual","","","2","56","","","","","26","house","10","0","0",""
"","","","","","","","","","","","canvas-button-response","475","679797","0.0-475.0","1087","8","","","","","","","","","","","","","","confidence","","","2","56","","","","","","","","","","2"
"","","","","","","","","","","","preload","476","679798","0.0-476.0","","","","","true","","","","","","","","","","","preload","","","2","57","false","[]","[]","[]","","","","","",""
"","","","","","","","","","","","canvas-keyboard-response","477","680101","0.0-477.0","null","null","","","","","","","","","","","","","","fixation","","","2","57","","","","","","","","","",""
"","","","","","","","","","","","canvas-keyboard-response","478","680405","0.0-478.0","null","null","","","","","","","","","","","","","","stimulus","","","2","57","","","","","","","","","",""
"","","","","","","","","","","","canvas-button-response","479","681469","0.0-479.0","1062","bridge","","","","","","","","","","","","","","perceptual","","","2","57","","","","","163","bridge","6","0","1",""
"","","","","","","","","","","","canvas-button-response","480","682354","0.0-480.0","883","9","","","","","","","","","","","","","","confidence","","","2","57","","","","","","","","","","3"
"","","","","","","","","","","","preload","481","682355","0.0-481.0","","","","","true","","","","","","","","","","","preload","","","2","58","false","[]","[]","[]","","","","","",""
"","","","","","","","","","","","canvas-keyboard-response","482","682658","0.0-482.0","null","null","","","","","","","","","","","","","","fixation","","","2","58","","","","","","","","","",""
"","","","","","","","","","","","canvas-keyboard-response","483","682962","0.0-483.0","null","null","","","","","","","","","","","","","","stimulus","","","2","58","","","","","","","","","",""
"","","","","","","","","","","","canvas-button-response","484","686234","0.0-484.0","3269","bed","","","","","","","","","","","","","","perceptual","","","2","58","","","","","343","elephant","10","0","0",""
"","","","","","","","","","","","canvas-button-response","485","686763","0.0-485.0","528","0","","","","","","","","","","","","","","confidence","","","2","58","","","","","","","","","","3"
"","","","","","","","","","","","preload","486","686765","0.0-486.0","","","","","true","","","","","","","","","","","preload","","","2","59","false","[]","[]","[]","","","","","",""
"","","","","","","","","","","","canvas-keyboard-response","487","687067","0.0-487.0","null","null","","","","","","","","","","","","","","fixation","","","2","59","","","","","","","","","",""
"","","","","","","","","","","","canvas-keyboard-response","488","687371","0.0-488.0","null","null","","","","","","","","","","","","","","stimulus","","","2","59","","","","","","","","","",""
"","","","","","","","","","","","canvas-button-response","489","688527","0.0-489.0","1153","phone","","","","","","","","","","","","","","perceptual","","","2","59","","","","","92","phone","6","0","1",""
"","","","","","","","","","","","canvas-button-response","490","689314","0.0-490.0","785","10","","","","","","","","","","","","","","confidence","","","2","59","","","","","","","","","","4"
"","","","","","","","","","","","preload","491","689315","0.0-491.0","","","","","true","","","","","","","","","","","preload","","","2","60","false","[]","[]","[]","","","","","",""
