"width","height","webaudio","browser","browser_version","mobile","os","fullscreen","vsync_rate","webcam","microphone","trial_type","trial_index","time_elapsed","internal_node_id","rt","response","accuracy","view_history","success","item_width_mm","item_height_mm","item_width_px","px2mm","view_dist_mm","item_width_deg","px2deg","scale_factor","win_width_deg","win_height_deg","stimulus","datetime","subjectID","curr_triallist","trial_no","timeout","failed_images","failed_audio","failed_video","image_index","category","blur","reps","correct","running_score"
"1366","633","true","chrome","141.0.0","false","Windows 10","true","53.6","true","true","browser-check","0","1166","0.0-0.0","","","","","","","","","","","","","","","","","","","","","","","","","","","","","",""
"","","","","","","","","","","","survey","1","24990","0.0-1.0","23785","{""P0_Q0"":""903977331"",""P0_Q1"":""19"",""P1_Q0"":""Female"",""P1_Q1"":""Not Hispanic or Latino"",""P1_Q2"":""White"",""P1_Q3"":""Normal"",""P1_Q4"":""Right-Handed""}","[]","","","","","","","","","","","","","","","","","","","","","","","","","","",""
"","","","","","","","","","","","instructions","2","63964","0.0-2.0","38971","","","[{""page_index"":0,""viewing_time"":5898},{""page_index"":1,""viewing_time"":11392},{""page_index"":2,""viewing_time"":12617},{""page_index"":3,""viewing_time"":9064}]","","","","","","","","","","","","","","","","","","","","","","","","","",""
"","","","","","","","","","","","fullscreen","3","67805","0.0-3.0","2828","","","","true","","","","","","","","","","","","","","","","","","","","","","","","",""
"","","","","","","","","","","","virtual-chinrest","4","136439","0.0-4.0","68629","","","","","85.6","53.98","239.60532043966947","2.797744476898494","613.08","7.98684401465565","29.999999999999996","1.4190002099123213","45.53333333333334","25.6","","","","","","","","","","","","","","",""
"","","","","","","","","","","","instructions","5","199011","0.0-5.0","62570","","","[{""page_index"":0,""viewing_time"":8373},{""page_index"":1,""viewing_time"":7130},{""page_index"":2,""viewing_time"":9682},{""page_index"":3,""viewing_time"":5285},{""page_index"":4,""viewing_time"":15219},{""page_index"":5,""viewing_time"":12628},{""page_index"":6,""viewing_time"":4255}]","","","","","","","","","","","","","","","","","","","","","","","","","",""
"","","","","","","","","","","","html-button-response","6","205948","0.0-6.0","6931","0","","","","","","","","","","","","","","start_practice","Fri Oct 10 2025 10:36:45 GMT-0400 (Eastern Daylight Time)","27563","","","","","","","","","","","",""
"","","","","","","","","","","","preload","7","205953","0.0-7.0","","","","","true","","","","","","","","","","","preload","","","0","0","false","[]","[]","[]","","","","","",""
"","","","","","","","","","","","canvas-keyboard-response","8","206262","0.0-8.0","null","null","","","","","","","","","","","","","","fixation","","","0","0","","","","","","","","","",""
"","","","","","","","","","","","canvas-keyboard-response","9","206574","0.0-9.0","null","null","","","","","","","","","","","","","","stimulus","","","0","0","","","","","","","","","",""
"","","","","","","","","","","","canvas-button-response","10","208725","0.0-10.0","2147","bridge","","","","","","","","","","","","","","perceptual","","","0","0","","","","","42","bridge","1","","1",""
"","","","","","","","","","","","canvas-button-response","11","210097","0.0-11.0","1366","10","","","","","","","","","","","","","","confidence","","","0","0","","","","","","","","","","1"
"","","","","","","","","","","","html-keyboard-response","12","211105","0.0-12.0","null","null","","","","","","","","","","","","","","feedback","Fri Oct 10 2025 10:36:57 GMT-0400 (Eastern Daylight Time)","27563","0","0","","","","","","","","","",""
"","","","","","","","","","","","preload","13","211106","0.0-13.0","","","","","true","","","","","","","","","","","preload","","","0","1","false","[]","[]","[]","","","","","",""
"","","","","","","","","","","","canvas-keyboard-response","14","211409","0.0-14.0","null","null","","","","","","","","","","","","","","fixation","","","0","1","","","","","","","","","",""
"","","","","","","","","","","","canvas-keyboard-response","15","211716","0.0-15.0","null","null","","","","","","","","","","","","","","stimulus","","","0","1","","","","","","","","","",""
"","","","","","","","","","","","canvas-button-response","16","212681","0.0-16.0","960","cat","","","","","","","","","","","","","","perceptual","","","0","1","","","","","72","cat","1","","1",""
"","","","","","","","","","","","canvas-button-response","17","213501","0.0-17.0","814","10","","","","","","","","","","","","","","confidence","","","0","1","","","","","","","","","","2"
"","","","","","","","","","","","html-keyboard-response","18","214520","0.0-18.0","null","null","","","","","","","","","","","","","","feedback","Fri Oct 10 2025 10:37:00 GMT-0400 (Eastern Daylight Time)","27563","0","1","","","","","","","","","",""
"","","","","","","","","","","","preload","19","214520","0.0-19.0","","","","","true","","","","","","","","","","","preload","","","0","2","false","[]","[]","[]","","","","","",""
"","","","","","","","","","","","canvas-keyboard-response","20","214837","0.0-20.0","null","null","","","","","","","","","","","","","","fixation","","","0","2","","","","","","","","","",""
"","","","","","","","","","","","canvas-keyboard-response","21","215154","0.0-21.0","null","null","","","","","","","","","","","","","","stimulus","","","0","2","","","","","","","","","",""
"","","","","","","","","","","","canvas-button-response","22","216549","0.0-22.0","1389","car","","","","","","","","","","","","","","perceptual","","","0","2","","","","","12","car","1","","1",""
"","","","","","","","","","","","canvas-button-response","23","217322","0.0-23.0","768","10","","","","","","","","","","","","","","confidence","","","0","2","","","","","","","","","","3"
"","","","","","","","","","","","html-keyboard-response","24","218331","0.0-24.0","null","null","","","","","","","","","","","","","","feedback","Fri Oct 10 2025 10:37:04 GMT-0400 (Eastern Daylight Time)","27563","0","2","","","","","","","","","",""
"","","","","","","","","","","","preload","25","218334","0.0-25.0","","","","","true","","","","","","","","","","","preload","","","0","3","false","[]","[]","[]","","","","","",""
"","","","","","","","","","","","canvas-keyboard-response","26","218641","0.0-26.0","null","null","","","","","","","","","","","","","","fixation","","","0","3","","","","","","","","","",""
"","","","","","","","","","","","canvas-keyboard-response","27","218943","0.0-27.0","null","null","","","","","","","","","","","","","","stimulus","","","0","3","","","","","","","","","",""
"","","","","","","","","","","","canvas-button-response","28","223775","0.0-28.0","4826","flower","","","","","","","","","","","","","","perceptual","","","0","3","","","","","52","flower","1","","1",""
"","","","","","","","","","","","canvas-button-response","29","224905","0.0-29.0","1124","8","","","","","","","","","","","","","","confidence","","","0","3","","","","","","","","","","4"
"","","","","","","","","","","","html-keyboard-response","30","225916","0.0-30.0","null","null","","","","","","","","","","","","","","feedback","Fri Oct 10 2025 10:37:11 GMT-0400 (Eastern Daylight Time)","27563","0","3","","","","","","","","","",""
"","","","","","","","","","","","preload","31","225917","0.0-31.0","","","","","true","","","","","","","","","","","preload","","","0","4","false","[]","[]","[]","","","","","",""
"","","","","","","","","","","","canvas-keyboard-response","32","226230","0.0-32.0","null","null","","","","","","","","","","","","","","fixation","","","0","4","","","","","","","","","",""
"","","","","","","","","","","","canvas-keyboard-response","33","226535","0.0-33.0","null","null","","","","","","","","","","","","","","stimulus","","","0","4","","","","","","","","","",""
"","","","","","","","","","","","canvas-button-response","34","228791","0.0-34.0","2250","train","","","","","","","","","","","","","","perceptual","","","0","4","","","","","62","train","1","","1",""
"","","","","","","","","","","","canvas-button-response","35","229928","0.0-35.0","1132","10","","","","","","","","","","","","","","confidence","","","0","4","","","","","","","","","","5"
"","","","","","","","","","","","html-keyboard-response","36","230938","0.0-36.0","null","null","","","","","","","","","","","","","","feedback","Fri Oct 10 2025 10:37:16 GMT-0400 (Eastern Daylight Time)","27563","0","4","","","","","","","","","",""
"","","","","","","","","","","","preload","37","230939","0.0-37.0","","","","","true","","","","","","","","","","","preload","","","0","5","false","[]","[]","[]","","","","","",""
"","","","","","","","","","","","canvas-keyboard-response","38","231247","0.0-38.0","null","null","","","","","","","","","","","","","","fixation","","","0","5","","","","","","","","","",""
"","","","","","","","","","","","canvas-keyboard-response","39","231551","0.0-39.0","null","null","","","","","","","","","","","","","","stimulus","","","0","5","","","","","","","","","",""
"","","","","","","","","","","","canvas-button-response","40","235069","0.0-40.0","3512","elephant","","","","","","","","","","","","","","perceptual","","","0","5","","","","","82","elephant","1","","1",""
"","","","","","","","","","","","canvas-button-response","41","235906","0.0-41.0","833","9","","","","","","","","","","","","","","confidence","","","0","5","","","","","","","","","","6"
"","","","","","","","","","","","html-keyboard-response","42","236917","0.0-42.0","null","null","","","","","","","","","","","","","","feedback","Fri Oct 10 2025 10:37:22 GMT-0400 (Eastern Daylight Time)","27563","0","5","","","","","","","","","",""
"","","","","","","","","","","","preload","43","236918","0.0-43.0","","","","","true","","","","","","","","","","","preload","","","0","6","false","[]","[]","[]","","","","","",""
"","","","","","","","","","","","canvas-keyboard-response","44","237226","0.0-44.0","null","null","","","","","","","","","","","","","","fixation","","","0","6","","","","","","","","","",""
"","","","","","","","","","","","canvas-keyboard-response","45","237540","0.0-45.0","null","null","","","","","","","","","","","","","","stimulus","","","0","6","","","","","","","","","",""
"","","","","","","","","","","","canvas-button-response","46","239251","0.0-46.0","1705","bed","","","","","","","","","","","","","","perceptual","","","0","6","","","","","32","bed","1","","1",""
"","","","","","","","","","","","canvas-button-response","47","240145","0.0-47.0","888","10","","","","","","","","","","","","","","confidence","","","0","6","","","","","","","","","","7"
"","","","","","","","","","","","html-keyboard-response","48","241156","0.0-48.0","null","null","","","","","","","","","","","","","","feedback","Fri Oct 10 2025 10:37:27 GMT-0400 (Eastern Daylight Time)","27563","0","6","","","","","","","","","",""
"","","","","","","","","","","","preload","49","241157","0.0-49.0","","","","","true","","","","","","","","","","","preload","","","0","7","false","[]","[]","[]","","","","","",""
"","","","","","","","","","","","canvas-keyboard-response","50","241459","0.0-50.0","null","null","","","","","","","","","","","","","","fixation","","","0","7","","","","","","","","","",""
"","","","","","","","","","","","canvas-keyboard-response","51","241767","0.0-51.0","null","null","","","","","","","","","","","","","","stimulus","","","0","7","","","","","","","","","",""
"","","","","","","","","","","","canvas-button-response","52","247368","0.0-52.0","5595","knife","","","","","","","","","","","","","","perceptual","","","0","7","","","","","92","knife","1","","1",""
"","","","","","","","","","","","canvas-button-response","53","248899","0.0-53.0","1524","7","","","","","","","","","","","","","","confidence","","","0","7","","","","","","","","","","8"
"","","","","","","","","","","","html-keyboard-response","54","249908","0.0-54.0","null","null","","","","","","","","","","","","","","feedback","Fri Oct 10 2025 10:37:35 GMT-0400 (Eastern Daylight Time)","27563","0","7","","","","","","","","","",""
"","","","","","","","","","","","preload","55","249909","0.0-55.0","","","","","true","","","","","","","","","","","preload","","","0","8","false","[]","[]","[]","","","","","",""
"","","","","","","","","","","","canvas-keyboard-response","56","250221","0.0-56.0","null","null","","","","","","","","","","","","","","fixation","","","0","8","","","","","","","","","",""
"","","","","","","","","","","","canvas-keyboard-response","57","250531","0.0-57.0","null","null","","","","","","","","","","","","","","stimulus","","","0","8","","","","","","","","","",""
"","","","","","","","","","","","canvas-button-response","58","252051","0.0-58.0","1514","house","","","","","","","","","","","","","","perceptual","","","0","8","","","","","2","house","1","","1",""
"","","","","","","","","","","","canvas-button-response","59","253583","0.0-59.0","1528","10","","","","","","","","","","","","","","confidence","","","0","8","","","","","","","","","","9"
"","","","","","","","","","","","html-keyboard-response","60","254589","0.0-60.0","null","null","","","","","","","","","","","","","","feedback","Fri Oct 10 2025 10:37:40 GMT-0400 (Eastern Daylight Time)","27563","0","8","","","","","","","","","",""
"","","","","","","","","","","","preload","61","254590","0.0-61.0","","","","","true","","","","","","","","","","","preload","","","0","9","false","[]","[]","[]","","","","","",""
"","","","","","","","","","","","canvas-keyboard-response","62","254896","0.0-62.0","null","null","","","","","","","","","","","","","","fixation","","","0","9","","","","","","","","","",""
"","","","","","","","","","","","canvas-keyboard-response","63","255204","0.0-63.0","null","null","","","","","","","","","","","","","","stimulus","","","0","9","","","","","","","","","",""
"","","","","","","","","","","","canvas-button-response","64","257226","0.0-64.0","2015","phone","","","","","","","","","","","","","","perceptual","","","0","9","","","","","22","phone","1","","1",""
"","","","","","","","","","","","canvas-button-response","65","258064","0.0-65.0","834","10","","","","","","","","","","","","","","confidence","","","0","9","","","","","","","","","","10"
"","","","","","","","","","","","html-keyboard-response","66","259076","0.0-66.0","null","null","","","","","","","","","","","","","","feedback","Fri Oct 10 2025 10:37:45 GMT-0400 (Eastern Daylight Time)","27563","0","9","","","","","","","","","",""
"","","","","","","","","","","","html-button-response","67","267627","0.0-67.0","8546","0","","","","","","","","","","","","","","start_practice","Fri Oct 10 2025 10:37:46 GMT-0400 (Eastern Daylight Time)","27563","0","9","","","","","","","","","",""
"","","","","","","","","","","","preload","68","267629","0.0-68.0","","","","","true","","","","","","","","","","","preload","","","1","0","false","[]","[]","[]","","","","","",""
"","","","","","","","","","","","canvas-keyboard-response","69","267940","0.0-69.0","null","null","","","","","","","","","","","","","","fixation","","","1","0","","","","","","","","","",""
"","","","","","","","","","","","canvas-keyboard-response","70","268256","0.0-70.0","null","null","","","","","","","","","","","","","","stimulus","","","1","0","","","","","","","","","",""
"","","","","","","","","","","","canvas-button-response","71","269817","0.0-71.0","1555","house","","","","","","","","","","","","","","perceptual","","","1","0","","","","","7","house","10","","1",""
"","","","","","","","","","","","canvas-button-response","72","270914","0.0-72.0","1092","5","","","","","","","","","","","","","","confidence","","","1","0","","","","","","","","","","1"
"","","","","","","","","","","","html-keyboard-response","73","271924","0.0-73.0","null","null","","","","","","","","","","","","","","feedback","Fri Oct 10 2025 10:37:57 GMT-0400 (Eastern Daylight Time)","27563","1","0","","","","","","","","","",""
"","","","","","","","","","","","preload","74","271925","0.0-74.0","","","","","true","","","","","","","","","","","preload","","","1","1","false","[]","[]","[]","","","","","",""
"","","","","","","","","","","","canvas-keyboard-response","75","272238","0.0-75.0","null","null","","","","","","","","","","","","","","fixation","","","1","1","","","","","","","","","",""
"","","","","","","","","","","","canvas-keyboard-response","76","272541","0.0-76.0","null","null","","","","","","","","","","","","","","stimulus","","","1","1","","","","","","","","","",""
"","","","","","","","","","","","canvas-button-response","77","276917","0.0-77.0","4369","bridge","","","","","","","","","","","","","","perceptual","","","1","1","","","","","17","car","10","","0",""
"","","","","","","","","","","","canvas-button-response","78","278373","0.0-78.0","1453","1","","","","","","","","","","","","","","confidence","","","1","1","","","","","","","","","","1"
"","","","","","","","","","","","html-keyboard-response","79","279376","0.0-79.0","null","null","","","","","","","","","","","","","","feedback","Fri Oct 10 2025 10:38:05 GMT-0400 (Eastern Daylight Time)","27563","1","1","","","","","","","","","",""
"","","","","","","","","","","","preload","80","279377","0.0-80.0","","","","","true","","","","","","","","","","","preload","","","1","2","false","[]","[]","[]","","","","","",""
"","","","","","","","","","","","canvas-keyboard-response","81","279685","0.0-81.0","null","null","","","","","","","","","","","","","","fixation","","","1","2","","","","","","","","","",""
"","","","","","","","","","","","canvas-keyboard-response","82","279988","0.0-82.0","null","null","","","","","","","","","","","","","","stimulus","","","1","2","","","","","","","","","",""
"","","","","","","","","","","","canvas-button-response","83","282043","0.0-83.0","2049","house","","","","","","","","","","","","","","perceptual","","","1","2","","","","","4","house","6","","1",""
"","","","","","","","","","","","canvas-button-response","84","283022","0.0-84.0","975","4","","","","","","","","","","","","","","confidence","","","1","2","","","","","","","","","","2"
"","","","","","","","","","","","html-keyboard-response","85","284030","0.0-85.0","null","null","","","","","","","","","","","","","","feedback","Fri Oct 10 2025 10:38:09 GMT-0400 (Eastern Daylight Time)","27563","1","2","","","","","","","","","",""
"","","","","","","","","","","","preload","86","284031","0.0-86.0","","","","","true","","","","","","","","","","","preload","","","1","3","false","[]","[]","[]","","","","","",""
"","","","","","","","","","","","canvas-keyboard-response","87","284347","0.0-87.0","null","null","","","","","","","","","","","","","","fixation","","","1","3","","","","","","","","","",""
"","","","","","","","","","","","canvas-keyboard-response","88","284660","0.0-88.0","null","null","","","","","","","","","","","","","","stimulus","","","1","3","","","","","","","","","",""
"","","","","","","","","","","","canvas-button-response","89","287316","0.0-89.0","2648","train","","","","","","","","","","","","","","perceptual","","","1","3","","","","","27","phone","10","","0",""
"","","","","","","","","","","","canvas-button-response","90","288850","0.0-90.0","1529","2","","","","","","","","","","","","","","confidence","","","1","3","","","","","","","","","","2"
"","","","","","","","","","","","html-keyboard-response","91","289860","0.0-91.0","null","null","","","","","","","","","","","","","","feedback","Fri Oct 10 2025 10:38:15 GMT-0400 (Eastern Daylight Time)","27563","1","3","","","","","","","","","",""
"","","","","","","","","","","","preload","92","289861","0.0-92.0","","","","","true","","","","","","","","","","","preload","","","1","4","false","[]","[]","[]","","","","","",""
"","","","","","","","","","","","canvas-keyboard-response","93","290169","0.0-93.0","null","null","","","","","","","","","","","","","","fixation","","","1","4","","","","","","","","","",""
"","","","","","","","","","","","canvas-keyboard-response","94","290485","0.0-94.0","null","null","","","","","","","","","","","","","","stimulus","","","1","4","","","","","","","","","",""
"","","","","","","","","","","","canvas-button-response","95","297219","0.0-95.0","6727","bed","","","","","","","","","","","","","","perceptual","","","1","4","","","","","77","cat","10","","0",""
"","","","","","","","","","","","canvas-button-response","96","298283","0.0-96.0","1058","1","","","","","","","","","","","","","","confidence","","","1","4","","","","","","","","","","2"
"","","","","","","","","","","","html-keyboard-response","97","299296","0.0-97.0","null","null","","","","","","","","","","","","","","feedback","Fri Oct 10 2025 10:38:25 GMT-0400 (Eastern Daylight Time)","27563","1","4","","","","","","","","","",""
"","","","","","","","","","","","preload","98","299297","0.0-98.0","","","","","true","","","","","","","","","","","preload","","","1","5","false","[]","[]","[]","","","","","",""
"","","","","","","","","","","","canvas-keyboard-response","99","299613","0.0-99.0","null","null","","","","","","","","","","","","","","fixation","","","1","5","","","","","","","","","",""
"","","","","","","","","","","","canvas-keyboard-response","100","299918","0.0-100.0","null","null","","","","","","","","","","","","","","stimulus","","","1","5","","","","","","","","","",""
"","","","","","","","","","","","canvas-button-response","101","304683","0.0-101.0","4759","elephant","","","","","","","","","","","","","","perceptual","","","1","5","","","","","97","knife","10","","0",""
"","","","","","","","","","","","canvas-button-response","102","305928","0.0-102.0","1240","1","","","","","","","","","","","","","","confidence","","","1","5","","","","","","","","","","2"
"","","","","","","","","","","","html-keyboard-response","103","306932","0.0-103.0","null","null","","","","","","","","","","","","","","feedback","Fri Oct 10 2025 10:38:32 GMT-0400 (Eastern Daylight Time)","27563","1","5","","","","","","","","","",""
"","","","","","","","","","","","preload","104","306932","0.0-104.0","","","","","true","","","","","","","","","","","preload","","","1","6","false","[]","[]","[]","","","","","",""
"","","","","","","","","","","","canvas-keyboard-response","105","307242","0.0-105.0","null","null","","","","","","","","","","","","","","fixation","","","1","6","","","","","","","","","",""
"","","","","","","","","","","","canvas-keyboard-response","106","307558","0.0-106.0","null","null","","","","","","","","","","","","","","stimulus","","","1","6","","","","","","","","","",""
"","","","","","","","","","","","canvas-button-response","107","310088","0.0-107.0","2526","flower","","","","","","","","","","","","","","perceptual","","","1","6","","","","","87","elephant","10","","0",""
"","","","","","","","","","","","canvas-button-response","108","311905","0.0-108.0","1811","4","","","","","","","","","","","","","","confidence","","","1","6","","","","","","","","","","2"
"","","","","","","","","","","","html-keyboard-response","109","312918","0.0-109.0","null","null","","","","","","","","","","","","","","feedback","Fri Oct 10 2025 10:38:38 GMT-0400 (Eastern Daylight Time)","27563","1","6","","","","","","","","","",""
"","","","","","","","","","","","preload","110","312920","0.0-110.0","","","","","true","","","","","","","","","","","preload","","","1","7","false","[]","[]","[]","","","","","",""
"","","","","","","","","","","","canvas-keyboard-response","111","313231","0.0-111.0","null","null","","","","","","","","","","","","","","fixation","","","1","7","","","","","","","","","",""
"","","","","","","","","","","","canvas-keyboard-response","112","313538","0.0-112.0","null","null","","","","","","","","","","","","","","stimulus","","","1","7","","","","","","","","","",""
"","","","","","","","","","","","canvas-button-response","113","316670","0.0-113.0","3126","bridge","","","","","","","","","","","","","","perceptual","","","1","7","","","","","94","knife","6","","0",""
"","","","","","","","","","","","canvas-button-response","114","318179","0.0-114.0","1505","2","","","","","","","","","","","","","","confidence","","","1","7","","","","","","","","","","2"
"","","","","","","","","","","","html-keyboard-response","115","319184","0.0-115.0","null","null","","","","","","","","","","","","","","feedback","Fri Oct 10 2025 10:38:45 GMT-0400 (Eastern Daylight Time)","27563","1","7","","","","","","","","","",""
"","","","","","","","","","","","preload","116","319185","0.0-116.0","","","","","true","","","","","","","","","","","preload","","","1","8","false","[]","[]","[]","","","","","",""
"","","","","","","","","","","","canvas-keyboard-response","117","319490","0.0-117.0","null","null","","","","","","","","","","","","","","fixation","","","1","8","","","","","","","","","",""
"","","","","","","","","","","","canvas-keyboard-response","118","319799","0.0-118.0","null","null","","","","","","","","","","","","","","stimulus","","","1","8","","","","","","","","","",""
"","","","","","","","","","","","canvas-button-response","119","326236","0.0-119.0","6432","train","","","","","","","","","","","","","","perceptual","","","1","8","","","","","37","bed","10","","0",""
"","","","","","","","","","","","canvas-button-response","120","327679","0.0-120.0","1438","1","","","","","","","","","","","","","","confidence","","","1","8","","","","","","","","","","2"
"","","","","","","","","","","","html-keyboard-response","121","328692","0.0-121.0","null","null","","","","","","","","","","","","","","feedback","Fri Oct 10 2025 10:38:54 GMT-0400 (Eastern Daylight Time)","27563","1","8","","","","","","","","","",""
"","","","","","","","","","","","preload","122","328693","0.0-122.0","","","","","true","","","","","","","","","","","preload","","","1","9","false","[]","[]","[]","","","","","",""
"","","","","","","","","","","","canvas-keyboard-response","123","329006","0.0-123.0","null","null","","","","","","","","","","","","","","fixation","","","1","9","","","","","","","","","",""
"","","","","","","","","","","","canvas-keyboard-response","124","329320","0.0-124.0","null","null","","","","","","","","","","","","","","stimulus","","","1","9","","","","","","","","","",""
"","","","","","","","","","","","canvas-button-response","125","333845","0.0-125.0","4518","elephant","","","","","","","","","","","","","","perceptual","","","1","9","","","","","44","bridge","6","","0",""
"","","","","","","","","","","","canvas-button-response","126","334889","0.0-126.0","1040","1","","","","","","","","","","","","","","confidence","","","1","9","","","","","","","","","","2"
"","","","","","","","","","","","html-keyboard-response","127","335908","0.0-127.0","null","null","","","","","","","","","","","","","","feedback","Fri Oct 10 2025 10:39:01 GMT-0400 (Eastern Daylight Time)","27563","1","9","","","","","","","","","",""
"","","","","","","","","","","","preload","128","335909","0.0-128.0","","","","","true","","","","","","","","","","","preload","","","1","10","false","[]","[]","[]","","","","","",""
"","","","","","","","","","","","canvas-keyboard-response","129","336225","0.0-129.0","null","null","","","","","","","","","","","","","","fixation","","","1","10","","","","","","","","","",""
"","","","","","","","","","","","canvas-keyboard-response","130","336537","0.0-130.0","null","null","","","","","","","","","","","","","","stimulus","","","1","10","","","","","","","","","",""
"","","","","","","","","","","","canvas-button-response","131","340747","0.0-131.0","4202","train","","","","","","","","","","","","","","perceptual","","","1","10","","","","","67","train","10","","1",""
"","","","","","","","","","","","canvas-button-response","132","341807","0.0-132.0","1056","2","","","","","","","","","","","","","","confidence","","","1","10","","","","","","","","","","3"
"","","","","","","","","","","","html-keyboard-response","133","342829","0.0-133.0","null","null","","","","","","","","","","","","","","feedback","Fri Oct 10 2025 10:39:08 GMT-0400 (Eastern Daylight Time)","27563","1","10","","","","","","","","","",""
"","","","","","","","","","","","preload","134","342830","0.0-134.0","","","","","true","","","","","","","","","","","preload","","","1","11","false","[]","[]","[]","","","","","",""
"","","","","","","","","","","","canvas-keyboard-response","135","343145","0.0-135.0","null","null","","","","","","","","","","","","","","fixation","","","1","11","","","","","","","","","",""
"","","","","","","","","","","","canvas-keyboard-response","136","343451","0.0-136.0","null","null","","","","","","","","","","","","","","stimulus","","","1","11","","","","","","","","","",""
"","","","","","","","","","","","canvas-button-response","137","346658","0.0-137.0","3203","bed","","","","","","","","","","","","","","perceptual","","","1","11","","","","","74","cat","6","","0",""
"","","","","","","","","","","","canvas-button-response","138","347653","0.0-138.0","993","1","","","","","","","","","","","","","","confidence","","","1","11","","","","","","","","","","3"
"","","","","","","","","","","","html-keyboard-response","139","348668","0.0-139.0","null","null","","","","","","","","","","","","","","feedback","Fri Oct 10 2025 10:39:14 GMT-0400 (Eastern Daylight Time)","27563","1","11","","","","","","","","","",""
"","","","","","","","","","","","preload","140","348669","0.0-140.0","","","","","true","","","","","","","","","","","preload","","","1","12","false","[]","[]","[]","","","","","",""
"","","","","","","","","","","","canvas-keyboard-response","141","348982","0.0-141.0","null","null","","","","","","","","","","","","","","fixation","","","1","12","","","","","","","","","",""
"","","","","","","","","","","","canvas-keyboard-response","142","349296","0.0-142.0","null","null","","","","","","","","","","","","","","stimulus","","","1","12","","","","","","","","","",""
"","","","","","","","","","","","canvas-button-response","143","350545","0.0-143.0","1243","phone","","","","","","","","","","","","","","perceptual","","","1","12","","","","","24","phone","6","","1",""
"","","","","","","","","","","","canvas-button-response","144","351594","0.0-144.0","1045","2","","","","","","","","","","","","","","confidence","","","1","12","","","","","","","","","","4"
"","","","","","","","","","","","html-keyboard-response","145","352601","0.0-145.0","null","null","","","","","","","","","","","","","","feedback","Fri Oct 10 2025 10:39:18 GMT-0400 (Eastern Daylight Time)","27563","1","12","","","","","","","","","",""
"","","","","","","","","","","","preload","146","352602","0.0-146.0","","","","","true","","","","","","","","","","","preload","","","1","13","false","[]","[]","[]","","","","","",""
"","","","","","","","","","","","canvas-keyboard-response","147","352904","0.0-147.0","null","null","","","","","","","","","","","","","","fixation","","","1","13","","","","","","","","","",""
"","","","","","","","","","","","canvas-keyboard-response","148","353212","0.0-148.0","null","null","","","","","","","","","","","","","","stimulus","","","1","13","","","","","","","","","",""
"","","","","","","","","","","","canvas-button-response","149","358397","0.0-149.0","5177","car","","","","","","","","","","","","","","perceptual","","","1","13","","","","","47","bridge","10","","0",""
"","","","","","","","","","","","canvas-button-response","150","359343","0.0-150.0","942","2","","","","","","","","","","","","","","confidence","","","1","13","","","","","","","","","","4"
"","","","","","","","","","","","html-keyboard-response","151","360352","0.0-151.0","null","null","","","","","","","","","","","","","","feedback","Fri Oct 10 2025 10:39:26 GMT-0400 (Eastern Daylight Time)","27563","1","13","","","","","","","","","",""
"","","","","","","","","","","","preload","152","360353","0.0-152.0","","","","","true","","","","","","","","","","","preload","","","1","14","false","[]","[]","[]","","","","","",""
"","","","","","","","","","","","canvas-keyboard-response","153","360663","0.0-153.0","null","null","","","","","","","","","","","","","","fixation","","","1","14","","","","","","","","","",""
"","","","","","","","","","","","canvas-keyboard-response","154","360973","0.0-154.0","null","null","","","","","","","","","","","","","","stimulus","","","1","14","","","","","","","","","",""
"","","","","","","","","","","","canvas-button-response","155","363606","0.0-155.0","2629","bed","","","","","","","","","","","","","","perceptual","","","1","14","","","","","34","bed","6","","1",""
"","","","","","","","","","","","canvas-button-response","156","364371","0.0-156.0","761","2","","","","","","","","","","","","","","confidence","","","1","14","","","","","","","","","","5"
"","","","","","","","","","","","html-keyboard-response","157","365376","0.0-157.0","null","null","","","","","","","","","","","","","","feedback","Fri Oct 10 2025 10:39:31 GMT-0400 (Eastern Daylight Time)","27563","1","14","","","","","","","","","",""
"","","","","","","","","","","","preload","158","365376","0.0-158.0","","","","","true","","","","","","","","","","","preload","","","1","15","false","[]","[]","[]","","","","","",""
"","","","","","","","","","","","canvas-keyboard-response","159","365696","0.0-159.0","null","null","","","","","","","","","","","","","","fixation","","","1","15","","","","","","","","","",""
"","","","","","","","","","","","canvas-keyboard-response","160","366014","0.0-160.0","null","null","","","","","","","","","","","","","","stimulus","","","1","15","","","","","","","","","",""
"","","","","","","","","","","","canvas-button-response","161","367622","0.0-161.0","1603","flower","","","","","","","","","","","","","","perceptual","","","1","15","","","","","57","flower","10","","1",""
"","","","","","","","","","","","canvas-button-response","162","368779","0.0-162.0","1153","3","","","","","","","","","","","","","","confidence","","","1","15","","","","","","","","","","6"
"","","","","","","","","","","","html-keyboard-response","163","369791","0.0-163.0","null","null","","","","","","","","","","","","","","feedback","Fri Oct 10 2025 10:39:35 GMT-0400 (Eastern Daylight Time)","27563","1","15","","","","","","","","","",""
"","","","","","","","","","","","preload","164","369792","0.0-164.0","","","","","true","","","","","","","","","","","preload","","","1","16","false","[]","[]","[]","","","","","",""
"","","","","","","","","","","","canvas-keyboard-response","165","370107","0.0-165.0","null","null","","","","","","","","","","","","","","fixation","","","1","16","","","","","","","","","",""
"","","","","","","","","","","","canvas-keyboard-response","166","370424","0.0-166.0","null","null","","","","","","","","","","","","","","stimulus","","","1","16","","","","","","","","","",""
"","","","","","","","","","","","canvas-button-response","167","376464","0.0-167.0","6034","train","","","","","","","","","","","","","","perceptual","","","1","16","","","","","54","flower","6","","0",""
"","","","","","","","","","","","canvas-button-response","168","377606","0.0-168.0","1138","1","","","","","","","","","","","","","","confidence","","","1","16","","","","","","","","","","6"
"","","","","","","","","","","","html-keyboard-response","169","378625","0.0-169.0","null","null","","","","","","","","","","","","","","feedback","Fri Oct 10 2025 10:39:44 GMT-0400 (Eastern Daylight Time)","27563","1","16","","","","","","","","","",""
"","","","","","","","","","","","preload","170","378626","0.0-170.0","","","","","true","","","","","","","","","","","preload","","","1","17","false","[]","[]","[]","","","","","",""
"","","","","","","","","","","","canvas-keyboard-response","171","378938","0.0-171.0","null","null","","","","","","","","","","","","","","fixation","","","1","17","","","","","","","","","",""
"","","","","","","","","","","","canvas-keyboard-response","172","379250","0.0-172.0","null","null","","","","","","","","","","","","","","stimulus","","","1","17","","","","","","","","","",""
"","","","","","","","","","","","canvas-button-response","173","380709","0.0-173.0","1453","elephant","","","","","","","","","","","","","","perceptual","","","1","17","","","","","84","elephant","6","","1",""
"","","","","","","","","","","","canvas-button-response","174","381645","0.0-174.0","932","4","","","","","","","","","","","","","","confidence","","","1","17","","","","","","","","","","7"
"","","","","","","","","","","","html-keyboard-response","175","382648","0.0-175.0","null","null","","","","","","","","","","","","","","feedback","Fri Oct 10 2025 10:39:48 GMT-0400 (Eastern Daylight Time)","27563","1","17","","","","","","","","","",""
"","","","","","","","","","","","preload","176","382649","0.0-176.0","","","","","true","","","","","","","","","","","preload","","","1","18","false","[]","[]","[]","","","","","",""
"","","","","","","","","","","","canvas-keyboard-response","177","382960","0.0-177.0","null","null","","","","","","","","","","","","","","fixation","","","1","18","","","","","","","","","",""
"","","","","","","","","","","","canvas-keyboard-response","178","383271","0.0-178.0","null","null","","","","","","","","","","","","","","stimulus","","","1","18","","","","","","","","","",""
"","","","","","","","","","","","canvas-button-response","179","384370","0.0-179.0","1093","train","","","","","","","","","","","","","","perceptual","","","1","18","","","","","64","train","6","","1",""
"","","","","","","","","","","","canvas-button-response","180","385227","0.0-180.0","852","5","","","","","","","","","","","","","","confidence","","","1","18","","","","","","","","","","8"
"","","","","","","","","","","","html-keyboard-response","181","386243","0.0-181.0","null","null","","","","","","","","","","","","","","feedback","Fri Oct 10 2025 10:39:52 GMT-0400 (Eastern Daylight Time)","27563","1","18","","","","","","","","","",""
"","","","","","","","","","","","preload","182","386243","0.0-182.0","","","","","true","","","","","","","","","","","preload","","","1","19","false","[]","[]","[]","","","","","",""
"","","","","","","","","","","","canvas-keyboard-response","183","386548","0.0-183.0","null","null","","","","","","","","","","","","","","fixation","","","1","19","","","","","","","","","",""
"","","","","","","","","","","","canvas-keyboard-response","184","386863","0.0-184.0","null","null","","","","","","","","","","","","","","stimulus","","","1","19","","","","","","","","","",""
"","","","","","","","","","","","canvas-button-response","185","390415","0.0-185.0","3545","bridge","","","","","","","","","","","","","","perceptual","","","1","19","","","","","14","car","6","","0",""
"","","","","","","","","","","","canvas-button-response","186","391347","0.0-186.0","928","2","","","","","","","","","","","","","","confidence","","","1","19","","","","","","","","","","8"
"","","","","","","","","","","","html-keyboard-response","187","392362","0.0-187.0","null","null","","","","","","","","","","","","","","feedback","Fri Oct 10 2025 10:39:58 GMT-0400 (Eastern Daylight Time)","27563","1","19","","","","","","","","","",""
"","","","","","","","","","","","html-button-response","188","404479","0.0-188.0","12111","0","","","","","","","","","","","","","","start experiment","Fri Oct 10 2025 10:39:59 GMT-0400 (Eastern Daylight Time)","27563","1","19","","","","","","","","","",""
"","","","","","","","","","","","preload","189","404481","0.0-189.0","","","","","true","","","","","","","","","","","preload","","","2","0","false","[]","[]","[]","","","","","",""
"","","","","","","","","","","","canvas-keyboard-response","190","404790","0.0-190.0","null","null","","","","","","","","","","","","","","fixation","","","2","0","","","","","","","","","",""
"","","","","","","","","","","","canvas-keyboard-response","191","405099","0.0-191.0","null","null","","","","","","","","","","","","","","stimulus","","","2","0","","","","","","","","","",""
"","","","","","","","","","","","canvas-button-response","192","406001","0.0-192.0","896","elephant","","","","","","","","","","","","","","perceptual","","","2","0","","","","","338","elephant","6","0","1",""
"","","","","","","","","","","","canvas-button-response","193","408069","0.0-193.0","2063","10","","","","","","","","","","","","","","confidence","","","2","0","","","","","","","","","","1"
"","","","","","","","","","","","preload","194","408072","0.0-194.0","","","","","true","","","","","","","","","","","preload","","","2","1","false","[]","[]","[]","","","","","",""
"","","","","","","","","","","","canvas-keyboard-response","195","408378","0.0-195.0","null","null","","","","","","","","","","","","","","fixation","","","2","1","","","","","","","","","",""
"","","","","","","","","","","","canvas-keyboard-response","196","408689","0.0-196.0","null","null","","","","","","","","","","","","","","stimulus","","","2","1","","","","","","","","","",""
"","","","","","","","","","","","canvas-button-response","197","410003","0.0-197.0","1309","bridge","","","","","","","","","","","","","","perceptual","","","2","1","","","","","171","bridge","6","0","1",""
"","","","","","","","","","","","canvas-button-response","198","410846","0.0-198.0","839","6","","","","","","","","","","","","","","confidence","","","2","1","","","","","","","","","","2"
"","","","","","","","","","","","preload","199","410848","0.0-199.0","","","","","true","","","","","","","","","","","preload","","","2","2","false","[]","[]","[]","","","","","",""
"","","","","","","","","","","","canvas-keyboard-response","200","411152","0.0-200.0","null","null","","","","","","","","","","","","","","fixation","","","2","2","","","","","","","","","",""
"","","","","","","","","","","","canvas-keyboard-response","201","411471","0.0-201.0","null","null","","","","","","","","","","","","","","stimulus","","","2","2","","","","","","","","","",""
"","","","","","","","","","","","canvas-button-response","202","412580","0.0-202.0","1102","car","","","","","","","","","","","","","","perceptual","","","2","2","","","","","40","car","6","0","1",""
"","","","","","","","","","","","canvas-button-response","203","413583","0.0-203.0","998","8","","","","","","","","","","","","","","confidence","","","2","2","","","","","","","","","","3"
"","","","","","","","","","","","preload","204","413585","0.0-204.0","","","","","true","","","","","","","","","","","preload","","","2","3","false","[]","[]","[]","","","","","",""
"","","","","","","","","","","","canvas-keyboard-response","205","413897","0.0-205.0","null","null","","","","","","","","","","","","","","fixation","","","2","3","","","","","","","","","",""
"","","","","","","","","","","","canvas-keyboard-response","206","414203","0.0-206.0","null","null","","","","","","","","","","","","","","stimulus","","","2","3","","","","","","","","","",""
"","","","","","","","","","","","canvas-button-response","207","418057","0.0-207.0","3847","bed","","","","","","","","","","","","","","perceptual","","","2","3","","","","","282","cat","6","0","0",""
"","","","","","","","","","","","canvas-button-response","208","419487","0.0-208.0","1426","2","","","","","","","","","","","","","","confidence","","","2","3","","","","","","","","","","3"
"","","","","","","","","","","","preload","209","419489","0.0-209.0","","","","","true","","","","","","","","","","","preload","","","2","4","false","[]","[]","[]","","","","","",""
"","","","","","","","","","","","canvas-keyboard-response","210","419806","0.0-210.0","null","null","","","","","","","","","","","","","","fixation","","","2","4","","","","","","","","","",""
"","","","","","","","","","","","canvas-keyboard-response","211","420122","0.0-211.0","null","null","","","","","","","","","","","","","","stimulus","","","2","4","","","","","","","","","",""
"","","","","","","","","","","","canvas-button-response","212","421347","0.0-212.0","1220","flower","","","","","","","","","","","","","","perceptual","","","2","4","","","","","204","flower","6","0","1",""
"","","","","","","","","","","","canvas-button-response","213","422236","0.0-213.0","884","7","","","","","","","","","","","","","","confidence","","","2","4","","","","","","","","","","4"
"","","","","","","","","","","","preload","214","422239","0.0-214.0","","","","","true","","","","","","","","","","","preload","","","2","5","false","[]","[]","[]","","","","","",""
"","","","","","","","","","","","canvas-keyboard-response","215","422544","0.0-215.0","null","null","","","","","","","","","","","","","","fixation","","","2","5","","","","","","","","","",""
"","","","","","","","","","","","canvas-keyboard-response","216","422855","0.0-216.0","null","null","","","","","","","","","","","","","","stimulus","","","2","5","","","","","","","","","",""
"","","","","","","","","","","","canvas-button-response","217","428163","0.0-217.0","5305","bed","","","","","","","","","","","","","","perceptual","","","2","5","","","","","128","bed","6","0","1",""
"","","","","","","","","","","","canvas-button-response","218","428628","0.0-218.0","463","1","","","","","","","","","","","","","","confidence","","","2","5","","","","","","","","","","5"
"","","","","","","","","","","","preload","219","428629","0.0-219.0","","","","","true","","","","","","","","","","","preload","","","2","6","false","[]","[]","[]","","","","","",""
"","","","","","","","","","","","canvas-keyboard-response","220","428933","0.0-220.0","null","null","","","","","","","","","","","","","","fixation","","","2","6","","","","","","","","","",""
"","","","","","","","","","","","canvas-keyboard-response","221","429248","0.0-221.0","null","null","","","","","","","","","","","","","","stimulus","","","2","6","","","","","","","","","",""
"","","","","","","","","","","","canvas-button-response","222","430231","0.0-222.0","975","flower","","","","","","","","","","","","","","perceptual","","","2","6","","","","","221","flower","10","0","1",""
"","","","","","","","","","","","canvas-button-response","223","431937","0.0-223.0","1702","7","","","","","","","","","","","","","","confidence","","","2","6","","","","","","","","","","6"
"","","","","","","","","","","","preload","224","431940","0.0-224.0","","","","","true","","","","","","","","","","","preload","","","2","7","false","[]","[]","[]","","","","","",""
"","","","","","","","","","","","canvas-keyboard-response","225","432245","0.0-225.0","null","null","","","","","","","","","","","","","","fixation","","","2","7","","","","","","","","","",""
"","","","","","","","","","","","canvas-keyboard-response","226","432561","0.0-226.0","null","null","","","","","","","","","","","","","","stimulus","","","2","7","","","","","","","","","",""
"","","","","","","","","","","","canvas-button-response","227","433812","0.0-227.0","1247","bridge","","","","","","","","","","","","","","perceptual","","","2","7","","","","","183","bridge","10","0","1",""
"","","","","","","","","","","","canvas-button-response","228","434756","0.0-228.0","940","5","","","","","","","","","","","","","","confidence","","","2","7","","","","","","","","","","7"
"","","","","","","","","","","","preload","229","434757","0.0-229.0","","","","","true","","","","","","","","","","","preload","","","2","8","false","[]","[]","[]","","","","","",""
"","","","","","","","","","","","canvas-keyboard-response","230","435065","0.0-230.0","null","null","","","","","","","","","","","","","","fixation","","","2","8","","","","","","","","","",""
"","","","","","","","","","","","canvas-keyboard-response","231","435367","0.0-231.0","null","null","","","","","","","","","","","","","","stimulus","","","2","8","","","","","","","","","",""
"","","","","","","","","","","","canvas-button-response","232","436339","0.0-232.0","970","car","","","","","","","","","","","","","","perceptual","","","2","8","","","","","52","car","6","0","1",""
"","","","","","","","","","","","canvas-button-response","233","436966","0.0-233.0","624","6","","","","","","","","","","","","","","confidence","","","2","8","","","","","","","","","","8"
"","","","","","","","","","","","preload","234","436968","0.0-234.0","","","","","true","","","","","","","","","","","preload","","","2","9","false","[]","[]","[]","","","","","",""
"","","","","","","","","","","","canvas-keyboard-response","235","437272","0.0-235.0","null","null","","","","","","","","","","","","","","fixation","","","2","9","","","","","","","","","",""
"","","","","","","","","","","","canvas-keyboard-response","236","437574","0.0-236.0","null","null","","","","","","","","","","","","","","stimulus","","","2","9","","","","","","","","","",""
"","","","","","","","","","","","canvas-button-response","237","440911","0.0-237.0","3329","house","","","","","","","","","","","","","","perceptual","","","2","9","","","","","316","cat","10","0","0",""
"","","","","","","","","","","","canvas-button-response","238","442253","0.0-238.0","1336","2","","","","","","","","","","","","","","confidence","","","2","9","","","","","","","","","","8"
"","","","","","","","","","","","preload","239","442255","0.0-239.0","","","","","true","","","","","","","","","","","preload","","","2","10","false","[]","[]","[]","","","","","",""
"","","","","","","","","","","","canvas-keyboard-response","240","442561","0.0-240.0","null","null","","","","","","","","","","","","","","fixation","","","2","10","","","","","","","","","",""
"","","","","","","","","","","","canvas-keyboard-response","241","442866","0.0-241.0","null","null","","","","","","","","","","","","","","stimulus","","","2","10","","","","","","","","","",""
"","","","","","","","","","","","canvas-button-response","242","446311","0.0-242.0","3439","knife","","","","","","","","","","","","","","perceptual","","","2","10","","","","","372","knife","6","0","1",""
"","","","","","","","","","","","canvas-button-response","243","447879","0.0-243.0","1565","3","","","","","","","","","","","","","","confidence","","","2","10","","","","","","","","","","9"
"","","","","","","","","","","","preload","244","447882","0.0-244.0","","","","","true","","","","","","","","","","","preload","","","2","11","false","[]","[]","[]","","","","","",""
"","","","","","","","","","","","canvas-keyboard-response","245","448201","0.0-245.0","null","null","","","","","","","","","","","","","","fixation","","","2","11","","","","","","","","","",""
"","","","","","","","","","","","canvas-keyboard-response","246","448506","0.0-246.0","null","null","","","","","","","","","","","","","","stimulus","","","2","11","","","","","","","","","",""
"","","","","","","","","","","","canvas-button-response","247","449595","0.0-247.0","1082","bridge","","","","","","","","","","","","","","perceptual","","","2","11","","","","","174","bridge","6","0","1",""
"","","","","","","","","","","","canvas-button-response","248","450574","0.0-248.0","974","6","","","","","","","","","","","","","","confidence","","","2","11","","","","","","","","","","10"
"","","","","","","","","","","","preload","249","450577","0.0-249.0","","","","","true","","","","","","","","","","","preload","","","2","12","false","[]","[]","[]","","","","","",""
"","","","","","","","","","","","canvas-keyboard-response","250","450886","0.0-250.0","null","null","","","","","","","","","","","","","","fixation","","","2","12","","","","","","","","","",""
"","","","","","","","","","","","canvas-keyboard-response","251","451201","0.0-251.0","null","null","","","","","","","","","","","","","","stimulus","","","2","12","","","","","","","","","",""
"","","","","","","","","","","","canvas-button-response","252","453285","0.0-252.0","2082","bed","","","","","","","","","","","","","","perceptual","","","2","12","","","","","19","house","6","0","0",""
"","","","","","","","","","","","canvas-button-response","253","454480","0.0-253.0","1193","2","","","","","","","","","","","","","","confidence","","","2","12","","","","","","","","","","10"
"","","","","","","","","","","","preload","254","454483","0.0-254.0","","","","","true","","","","","","","","","","","preload","","","2","13","false","[]","[]","[]","","","","","",""
"","","","","","","","","","","","canvas-keyboard-response","255","454791","0.0-255.0","null","null","","","","","","","","","","","","","","fixation","","","2","13","","","","","","","","","",""
"","","","","","","","","","","","canvas-keyboard-response","256","455098","0.0-256.0","null","null","","","","","","","","","","","","","","stimulus","","","2","13","","","","","","","","","",""
"","","","","","","","","","","","canvas-button-response","257","456257","0.0-257.0","1152","elephant","","","","","","","","","","","","","","perceptual","","","2","13","","","","","344","elephant","10","0","1",""
"","","","","","","","","","","","canvas-button-response","258","456879","0.0-258.0","616","8","","","","","","","","","","","","","","confidence","","","2","13","","","","","","","","","","11"
"","","","","","","","","","","","preload","259","456882","0.0-259.0","","","","","true","","","","","","","","","","","preload","","","2","14","false","[]","[]","[]","","","","","",""
"","","","","","","","","","","","canvas-keyboard-response","260","457188","0.0-260.0","null","null","","","","","","","","","","","","","","fixation","","","2","14","","","","","","","","","",""
"","","","","","","","","","","","canvas-keyboard-response","261","457501","0.0-261.0","null","null","","","","","","","","","","","","","","stimulus","","","2","14","","","","","","","","","",""
"","","","","","","","","","","","canvas-button-response","262","460399","0.0-262.0","2892","phone","","","","","","","","","","","","","","perceptual","","","2","14","","","","","268","train","10","0","0",""
"","","","","","","","","","","","canvas-button-response","263","461170","0.0-263.0","766","1","","","","","","","","","","","","","","confidence","","","2","14","","","","","","","","","","11"
"","","","","","","","","","","","preload","264","461172","0.0-264.0","","","","","true","","","","","","","","","","","preload","","","2","15","false","[]","[]","[]","","","","","",""
"","","","","","","","","","","","canvas-keyboard-response","265","461483","0.0-265.0","null","null","","","","","","","","","","","","","","fixation","","","2","15","","","","","","","","","",""
"","","","","","","","","","","","canvas-keyboard-response","266","461801","0.0-266.0","null","null","","","","","","","","","","","","","","stimulus","","","2","15","","","","","","","","","",""
"","","","","","","","","","","","canvas-button-response","267","462834","0.0-267.0","1026","knife","","","","","","","","","","","","","","perceptual","","","2","15","","","","","389","knife","10","0","1",""
"","","","","","","","","","","","canvas-button-response","268","464810","0.0-268.0","1971","7","","","","","","","","","","","","","","confidence","","","2","15","","","","","","","","","","12"
"","","","","","","","","","","","preload","269","464812","0.0-269.0","","","","","true","","","","","","","","","","","preload","","","2","16","false","[]","[]","[]","","","","","",""
"","","","","","","","","","","","canvas-keyboard-response","270","465128","0.0-270.0","null","null","","","","","","","","","","","","","","fixation","","","2","16","","","","","","","","","",""
"","","","","","","","","","","","canvas-keyboard-response","271","465431","0.0-271.0","null","null","","","","","","","","","","","","","","stimulus","","","2","16","","","","","","","","","",""
"","","","","","","","","","","","canvas-button-response","272","467331","0.0-272.0","1894","car","","","","","","","","","","","","","","perceptual","","","2","16","","","","","261","train","10","0","0",""
"","","","","","","","","","","","canvas-button-response","273","468716","0.0-273.0","1381","1","","","","","","","","","","","","","","confidence","","","2","16","","","","","","","","","","12"
"","","","","","","","","","","","preload","274","468718","0.0-274.0","","","","","true","","","","","","","","","","","preload","","","2","17","false","[]","[]","[]","","","","","",""
"","","","","","","","","","","","canvas-keyboard-response","275","469026","0.0-275.0","null","null","","","","","","","","","","","","","","fixation","","","2","17","","","","","","","","","",""
"","","","","","","","","","","","canvas-keyboard-response","276","469330","0.0-276.0","null","null","","","","","","","","","","","","","","stimulus","","","2","17","","","","","","","","","",""
"","","","","","","","","","","","canvas-button-response","277","470929","0.0-277.0","1593","knife","","","","","","","","","","","","","","perceptual","","","2","17","","","","","369","knife","6","0","1",""
"","","","","","","","","","","","canvas-button-response","278","472401","0.0-278.0","1468","5","","","","","","","","","","","","","","confidence","","","2","17","","","","","","","","","","13"
"","","","","","","","","","","","preload","279","472403","0.0-279.0","","","","","true","","","","","","","","","","","preload","","","2","18","false","[]","[]","[]","","","","","",""
"","","","","","","","","","","","canvas-keyboard-response","280","472708","0.0-280.0","null","null","","","","","","","","","","","","","","fixation","","","2","18","","","","","","","","","",""
"","","","","","","","","","","","canvas-keyboard-response","281","473014","0.0-281.0","null","null","","","","","","","","","","","","","","stimulus","","","2","18","","","","","","","","","",""
"","","","","","","","","","","","canvas-button-response","282","474492","0.0-282.0","1475","flower","","","","","","","","","","","","","","perceptual","","","2","18","","","","","314","cat","10","0","0",""
"","","","","","","","","","","","canvas-button-response","283","475299","0.0-283.0","803","2","","","","","","","","","","","","","","confidence","","","2","18","","","","","","","","","","13"
"","","","","","","","","","","","preload","284","475300","0.0-284.0","","","","","true","","","","","","","","","","","preload","","","2","19","false","[]","[]","[]","","","","","",""
"","","","","","","","","","","","canvas-keyboard-response","285","475616","0.0-285.0","null","null","","","","","","","","","","","","","","fixation","","","2","19","","","","","","","","","",""
"","","","","","","","","","","","canvas-keyboard-response","286","475922","0.0-286.0","null","null","","","","","","","","","","","","","","stimulus","","","2","19","","","","","","","","","",""
"","","","","","","","","","","","canvas-button-response","287","477139","0.0-287.0","1210","bridge","","","","","","","","","","","","","","perceptual","","","2","19","","","","","186","bridge","10","0","1",""
"","","","","","","","","","","","canvas-button-response","288","477853","0.0-288.0","710","4","","","","","","","","","","","","","","confidence","","","2","19","","","","","","","","","","14"
"","","","","","","","","","","","preload","289","477855","0.0-289.0","","","","","true","","","","","","","","","","","preload","","","2","20","false","[]","[]","[]","","","","","",""
"","","","","","","","","","","","canvas-keyboard-response","290","478173","0.0-290.0","null","null","","","","","","","","","","","","","","fixation","","","2","20","","","","","","","","","",""
"","","","","","","","","","","","canvas-keyboard-response","291","478481","0.0-291.0","null","null","","","","","","","","","","","","","","stimulus","","","2","20","","","","","","","","","",""
"","","","","","","","","","","","canvas-button-response","292","483178","0.0-292.0","4693","train","","","","","","","","","","","","","","perceptual","","","2","20","","","","","76","car","10","0","0",""
"","","","","","","","","","","","canvas-button-response","293","484241","0.0-293.0","1059","1","","","","","","","","","","","","","","confidence","","","2","20","","","","","","","","","","14"
"","","","","","","","","","","","preload","294","484244","0.0-294.0","","","","","true","","","","","","","","","","","preload","","","2","21","false","[]","[]","[]","","","","","",""
"","","","","","","","","","","","canvas-keyboard-response","295","484554","0.0-295.0","null","null","","","","","","","","","","","","","","fixation","","","2","21","","","","","","","","","",""
"","","","","","","","","","","","canvas-keyboard-response","296","484864","0.0-296.0","null","null","","","","","","","","","","","","","","stimulus","","","2","21","","","","","","","","","",""
"","","","","","","","","","","","canvas-button-response","297","485788","0.0-297.0","918","car","","","","","","","","","","","","","","perceptual","","","2","21","","","","","42","car","6","0","1",""
"","","","","","","","","","","","canvas-button-response","298","486352","0.0-298.0","557","4","","","","","","","","","","","","","","confidence","","","2","21","","","","","","","","","","15"
"","","","","","","","","","","","preload","299","486354","0.0-299.0","","","","","true","","","","","","","","","","","preload","","","2","22","false","[]","[]","[]","","","","","",""
"","","","","","","","","","","","canvas-keyboard-response","300","486659","0.0-300.0","null","null","","","","","","","","","","","","","","fixation","","","2","22","","","","","","","","","",""
"","","","","","","","","","","","canvas-keyboard-response","301","486975","0.0-301.0","null","null","","","","","","","","","","","","","","stimulus","","","2","22","","","","","","","","","",""
"","","","","","","","","","","","canvas-button-response","302","488491","0.0-302.0","1512","cat","","","","","","","","","","","","","","perceptual","","","2","22","","","","","328","elephant","6","0","0",""
"","","","","","","","","","","","canvas-button-response","303","489920","0.0-303.0","1425","1","","","","","","","","","","","","","","confidence","","","2","22","","","","","","","","","","15"
"","","","","","","","","","","","preload","304","489923","0.0-304.0","","","","","true","","","","","","","","","","","preload","","","2","23","false","[]","[]","[]","","","","","",""
"","","","","","","","","","","","canvas-keyboard-response","305","490237","0.0-305.0","null","null","","","","","","","","","","","","","","fixation","","","2","23","","","","","","","","","",""
"","","","","","","","","","","","canvas-keyboard-response","306","490544","0.0-306.0","null","null","","","","","","","","","","","","","","stimulus","","","2","23","","","","","","","","","",""
"","","","","","","","","","","","canvas-button-response","307","492607","0.0-307.0","2060","elephant","","","","","","","","","","","","","","perceptual","","","2","23","","","","","323","elephant","6","0","1",""
"","","","","","","","","","","","canvas-button-response","308","493887","0.0-308.0","1276","2","","","","","","","","","","","","","","confidence","","","2","23","","","","","","","","","","16"
"","","","","","","","","","","","preload","309","493890","0.0-309.0","","","","","true","","","","","","","","","","","preload","","","2","24","false","[]","[]","[]","","","","","",""
"","","","","","","","","","","","canvas-keyboard-response","310","494203","0.0-310.0","null","null","","","","","","","","","","","","","","fixation","","","2","24","","","","","","","","","",""
"","","","","","","","","","","","canvas-keyboard-response","311","494518","0.0-311.0","null","null","","","","","","","","","","","","","","stimulus","","","2","24","","","","","","","","","",""
"","","","","","","","","","","","canvas-button-response","312","499695","0.0-312.0","5170","flower","","","","","","","","","","","","","","perceptual","","","2","24","","","","","130","bed","6","0","0",""
"","","","","","","","","","","","canvas-button-response","313","500315","0.0-313.0","616","2","","","","","","","","","","","","","","confidence","","","2","24","","","","","","","","","","16"
"","","","","","","","","","","","preload","314","500318","0.0-314.0","","","","","true","","","","","","","","","","","preload","","","2","25","false","[]","[]","[]","","","","","",""
"","","","","","","","","","","","canvas-keyboard-response","315","500629","0.0-315.0","null","null","","","","","","","","","","","","","","fixation","","","2","25","","","","","","","","","",""
"","","","","","","","","","","","canvas-keyboard-response","316","500936","0.0-316.0","null","null","","","","","","","","","","","","","","stimulus","","","2","25","","","","","","","","","",""
"","","","","","","","","","","","canvas-button-response","317","507357","0.0-317.0","6415","phone","","","","","","","","","","","","","","perceptual","","","2","25","","","","","382","knife","10","0","0",""
"","","","","","","","","","","","canvas-button-response","318","508038","0.0-318.0","678","1","","","","","","","","","","","","","","confidence","","","2","25","","","","","","","","","","16"
"","","","","","","","","","","","preload","319","508040","0.0-319.0","","","","","true","","","","","","","","","","","preload","","","2","26","false","[]","[]","[]","","","","","",""
"","","","","","","","","","","","canvas-keyboard-response","320","508344","0.0-320.0","null","null","","","","","","","","","","","","","","fixation","","","2","26","","","","","","","","","",""
"","","","","","","","","","","","canvas-keyboard-response","321","508654","0.0-321.0","null","null","","","","","","","","","","","","","","stimulus","","","2","26","","","","","","","","","",""
"","","","","","","","","","","","canvas-button-response","322","509657","0.0-322.0","996","car","","","","","","","","","","","","","","perceptual","","","2","26","","","","","75","car","10","0","1",""
"","","","","","","","","","","","canvas-button-response","323","510733","0.0-323.0","1071","3","","","","","","","","","","","","","","confidence","","","2","26","","","","","","","","","","17"
"","","","","","","","","","","","preload","324","510734","0.0-324.0","","","","","true","","","","","","","","","","","preload","","","2","27","false","[]","[]","[]","","","","","",""
"","","","","","","","","","","","canvas-keyboard-response","325","511039","0.0-325.0","null","null","","","","","","","","","","","","","","fixation","","","2","27","","","","","","","","","",""
"","","","","","","","","","","","canvas-keyboard-response","326","511341","0.0-326.0","null","null","","","","","","","","","","","","","","stimulus","","","2","27","","","","","","","","","",""
"","","","","","","","","","","","canvas-button-response","327","512477","0.0-327.0","1128","knife","","","","","","","","","","","","","","perceptual","","","2","27","","","","","362","knife","6","0","1",""
"","","","","","","","","","","","canvas-button-response","328","512972","0.0-328.0","491","5","","","","","","","","","","","","","","confidence","","","2","27","","","","","","","","","","18"
"","","","","","","","","","","","preload","329","512974","0.0-329.0","","","","","true","","","","","","","","","","","preload","","","2","28","false","[]","[]","[]","","","","","",""
"","","","","","","","","","","","canvas-keyboard-response","330","513286","0.0-330.0","null","null","","","","","","","","","","","","","","fixation","","","2","28","","","","","","","","","",""
"","","","","","","","","","","","canvas-keyboard-response","331","513602","0.0-331.0","null","null","","","","","","","","","","","","","","stimulus","","","2","28","","","","","","","","","",""
"","","","","","","","","","","","canvas-button-response","332","514586","0.0-332.0","978","bridge","","","","","","","","","","","","","","perceptual","","","2","28","","","","","184","bridge","10","0","1",""
"","","","","","","","","","","","canvas-button-response","333","515442","0.0-333.0","850","5","","","","","","","","","","","","","","confidence","","","2","28","","","","","","","","","","19"
"","","","","","","","","","","","preload","334","515444","0.0-334.0","","","","","true","","","","","","","","","","","preload","","","2","29","false","[]","[]","[]","","","","","",""
"","","","","","","","","","","","canvas-keyboard-response","335","515761","0.0-335.0","null","null","","","","","","","","","","","","","","fixation","","","2","29","","","","","","","","","",""
"","","","","","","","","","","","canvas-keyboard-response","336","516070","0.0-336.0","null","null","","","","","","","","","","","","","","stimulus","","","2","29","","","","","","","","","",""
"","","","","","","","","","","","canvas-button-response","337","516936","0.0-337.0","859","flower","","","","","","","","","","","","","","perceptual","","","2","29","","","","","220","flower","10","0","1",""
"","","","","","","","","","","","canvas-button-response","338","517657","0.0-338.0","716","6","","","","","","","","","","","","","","confidence","","","2","29","","","","","","","","","","20"
"","","","","","","","","","","","preload","339","517659","0.0-339.0","","","","","true","","","","","","","","","","","preload","","","2","30","false","[]","[]","[]","","","","","",""
"","","","","","","","","","","","canvas-keyboard-response","340","517968","0.0-340.0","null","null","","","","","","","","","","","","","","fixation","","","2","30","","","","","","","","","",""
"","","","","","","","","","","","canvas-keyboard-response","341","518273","0.0-341.0","null","null","","","","","","","","","","","","","","stimulus","","","2","30","","","","","","","","","",""
"","","","","","","","","","","","canvas-button-response","342","519199","0.0-342.0","920","bed","","","","","","","","","","","","","","perceptual","","","2","30","","","","","121","bed","6","0","1",""
"","","","","","","","","","","","canvas-button-response","343","520415","0.0-343.0","1213","10","","","","","","","","","","","","","","confidence","","","2","30","","","","","","","","","","21"
"","","","","","","","","","","","preload","344","520417","0.0-344.0","","","","","true","","","","","","","","","","","preload","","","2","31","false","[]","[]","[]","","","","","",""
"","","","","","","","","","","","canvas-keyboard-response","345","520736","0.0-345.0","null","null","","","","","","","","","","","","","","fixation","","","2","31","","","","","","","","","",""
"","","","","","","","","","","","canvas-keyboard-response","346","521047","0.0-346.0","null","null","","","","","","","","","","","","","","stimulus","","","2","31","","","","","","","","","",""
"","","","","","","","","","","","canvas-button-response","347","522042","0.0-347.0","990","knife","","","","","","","","","","","","","","perceptual","","","2","31","","","","","385","knife","10","0","1",""
"","","","","","","","","","","","canvas-button-response","348","522695","0.0-348.0","648","10","","","","","","","","","","","","","","confidence","","","2","31","","","","","","","","","","22"
"","","","","","","","","","","","preload","349","522697","0.0-349.0","","","","","true","","","","","","","","","","","preload","","","2","32","false","[]","[]","[]","","","","","",""
"","","","","","","","","","","","canvas-keyboard-response","350","523008","0.0-350.0","null","null","","","","","","","","","","","","","","fixation","","","2","32","","","","","","","","","",""
"","","","","","","","","","","","canvas-keyboard-response","351","523325","0.0-351.0","null","null","","","","","","","","","","","","","","stimulus","","","2","32","","","","","","","","","",""
"","","","","","","","","","","","canvas-button-response","352","525755","0.0-352.0","2425","car","","","","","","","","","","","","","","perceptual","","","2","32","","","","","64","car","10","0","1",""
"","","","","","","","","","","","canvas-button-response","353","526635","0.0-353.0","876","4","","","","","","","","","","","","","","confidence","","","2","32","","","","","","","","","","23"
"","","","","","","","","","","","preload","354","526637","0.0-354.0","","","","","true","","","","","","","","","","","preload","","","2","33","false","[]","[]","[]","","","","","",""
"","","","","","","","","","","","canvas-keyboard-response","355","526945","0.0-355.0","null","null","","","","","","","","","","","","","","fixation","","","2","33","","","","","","","","","",""
"","","","","","","","","","","","canvas-keyboard-response","356","527258","0.0-356.0","null","null","","","","","","","","","","","","","","stimulus","","","2","33","","","","","","","","","",""
"","","","","","","","","","","","canvas-button-response","357","530944","0.0-357.0","3681","phone","","","","","","","","","","","","","","perceptual","","","2","33","","","","","289","cat","6","0","0",""
"","","","","","","","","","","","canvas-button-response","358","532150","0.0-358.0","1201","4","","","","","","","","","","","","","","confidence","","","2","33","","","","","","","","","","23"
"","","","","","","","","","","","preload","359","532152","0.0-359.0","","","","","true","","","","","","","","","","","preload","","","2","34","false","[]","[]","[]","","","","","",""
"","","","","","","","","","","","canvas-keyboard-response","360","532458","0.0-360.0","null","null","","","","","","","","","","","","","","fixation","","","2","34","","","","","","","","","",""
"","","","","","","","","","","","canvas-keyboard-response","361","532765","0.0-361.0","null","null","","","","","","","","","","","","","","stimulus","","","2","34","","","","","","","","","",""
"","","","","","","","","","","","canvas-button-response","362","536278","0.0-362.0","3506","bed","","","","","","","","","","","","","","perceptual","","","2","34","","","","","152","bed","10","0","1",""
"","","","","","","","","","","","canvas-button-response","363","536843","0.0-363.0","562","1","","","","","","","","","","","","","","confidence","","","2","34","","","","","","","","","","24"
"","","","","","","","","","","","preload","364","536845","0.0-364.0","","","","","true","","","","","","","","","","","preload","","","2","35","false","[]","[]","[]","","","","","",""
"","","","","","","","","","","","canvas-keyboard-response","365","537152","0.0-365.0","null","null","","","","","","","","","","","","","","fixation","","","2","35","","","","","","","","","",""
"","","","","","","","","","","","canvas-keyboard-response","366","537461","0.0-366.0","null","null","","","","","","","","","","","","","","stimulus","","","2","35","","","","","","","","","",""
"","","","","","","","","","","","canvas-button-response","367","540414","0.0-367.0","2947","car","","","","","","","","","","","","","","perceptual","","","2","35","","","","","293","cat","6","0","0",""
"","","","","","","","","","","","canvas-button-response","368","541668","0.0-368.0","1249","2","","","","","","","","","","","","","","confidence","","","2","35","","","","","","","","","","24"
"","","","","","","","","","","","preload","369","541669","0.0-369.0","","","","","true","","","","","","","","","","","preload","","","2","36","false","[]","[]","[]","","","","","",""
"","","","","","","","","","","","canvas-keyboard-response","370","541979","0.0-370.0","null","null","","","","","","","","","","","","","","fixation","","","2","36","","","","","","","","","",""
"","","","","","","","","","","","canvas-keyboard-response","371","542295","0.0-371.0","null","null","","","","","","","","","","","","","","stimulus","","","2","36","","","","","","","","","",""
"","","","","","","","","","","","canvas-button-response","372","543027","0.0-372.0","726","car","","","","","","","","","","","","","","perceptual","","","2","36","","","","","44","car","6","0","1",""
"","","","","","","","","","","","canvas-button-response","373","544228","0.0-373.0","1196","10","","","","","","","","","","","","","","confidence","","","2","36","","","","","","","","","","25"
"","","","","","","","","","","","preload","374","544230","0.0-374.0","","","","","true","","","","","","","","","","","preload","","","2","37","false","[]","[]","[]","","","","","",""
"","","","","","","","","","","","canvas-keyboard-response","375","544544","0.0-375.0","null","null","","","","","","","","","","","","","","fixation","","","2","37","","","","","","","","","",""
"","","","","","","","","","","","canvas-keyboard-response","376","544855","0.0-376.0","null","null","","","","","","","","","","","","","","stimulus","","","2","37","","","","","","","","","",""
"","","","","","","","","","","","canvas-button-response","377","545769","0.0-377.0","908","bridge","","","","","","","","","","","","","","perceptual","","","2","37","","","","","178","bridge","6","0","1",""
"","","","","","","","","","","","canvas-button-response","378","546906","0.0-378.0","1132","9","","","","","","","","","","","","","","confidence","","","2","37","","","","","","","","","","26"
"","","","","","","","","","","","preload","379","546908","0.0-379.0","","","","","true","","","","","","","","","","","preload","","","2","38","false","[]","[]","[]","","","","","",""
"","","","","","","","","","","","canvas-keyboard-response","380","547215","0.0-380.0","null","null","","","","","","","","","","","","","","fixation","","","2","38","","","","","","","","","",""
"","","","","","","","","","","","canvas-keyboard-response","381","547531","0.0-381.0","null","null","","","","","","","","","","","","","","stimulus","","","2","38","","","","","","","","","",""
"","","","","","","","","","","","canvas-button-response","382","553515","0.0-382.0","5980","flower","","","","","","","","","","","","","","perceptual","","","2","38","","","","","182","bridge","10","0","0",""
"","","","","","","","","","","","canvas-button-response","383","555869","0.0-383.0","2349","2","","","","","","","","","","","","","","confidence","","","2","38","","","","","","","","","","26"
"","","","","","","","","","","","preload","384","555870","0.0-384.0","","","","","true","","","","","","","","","","","preload","","","2","39","false","[]","[]","[]","","","","","",""
"","","","","","","","","","","","canvas-keyboard-response","385","556181","0.0-385.0","null","null","","","","","","","","","","","","","","fixation","","","2","39","","","","","","","","","",""
"","","","","","","","","","","","canvas-keyboard-response","386","556489","0.0-386.0","null","null","","","","","","","","","","","","","","stimulus","","","2","39","","","","","","","","","",""
"","","","","","","","","","","","canvas-button-response","387","557735","0.0-387.0","1241","phone","","","","","","","","","","","","","","perceptual","","","2","39","","","","","95","phone","6","0","1",""
"","","","","","","","","","","","canvas-button-response","388","559039","0.0-388.0","1301","10","","","","","","","","","","","","","","confidence","","","2","39","","","","","","","","","","27"
"","","","","","","","","","","","preload","389","559040","0.0-389.0","","","","","true","","","","","","","","","","","preload","","","2","40","false","[]","[]","[]","","","","","",""
"","","","","","","","","","","","canvas-keyboard-response","390","559344","0.0-390.0","null","null","","","","","","","","","","","","","","fixation","","","2","40","","","","","","","","","",""
"","","","","","","","","","","","canvas-keyboard-response","391","559662","0.0-391.0","null","null","","","","","","","","","","","","","","stimulus","","","2","40","","","","","","","","","",""
"","","","","","","","","","","","canvas-button-response","392","568734","0.0-392.0","9068","elephant","","","","","","","","","","","","","","perceptual","","","2","40","","","","","325","elephant","6","0","1",""
"","","","","","","","","","","","canvas-button-response","393","569921","0.0-393.0","1185","1","","","","","","","","","","","","","","confidence","","","2","40","","","","","","","","","","28"
"","","","","","","","","","","","preload","394","569922","0.0-394.0","","","","","true","","","","","","","","","","","preload","","","2","41","false","[]","[]","[]","","","","","",""
"","","","","","","","","","","","canvas-keyboard-response","395","570227","0.0-395.0","null","null","","","","","","","","","","","","","","fixation","","","2","41","","","","","","","","","",""
"","","","","","","","","","","","canvas-keyboard-response","396","570535","0.0-396.0","null","null","","","","","","","","","","","","","","stimulus","","","2","41","","","","","","","","","",""
"","","","","","","","","","","","canvas-button-response","397","571481","0.0-397.0","940","bed","","","","","","","","","","","","","","perceptual","","","2","41","","","","","132","bed","6","0","1",""
"","","","","","","","","","","","canvas-button-response","398","572431","0.0-398.0","946","7","","","","","","","","","","","","","","confidence","","","2","41","","","","","","","","","","29"
"","","","","","","","","","","","preload","399","572434","0.0-399.0","","","","","true","","","","","","","","","","","preload","","","2","42","false","[]","[]","[]","","","","","",""
"","","","","","","","","","","","canvas-keyboard-response","400","572742","0.0-400.0","null","null","","","","","","","","","","","","","","fixation","","","2","42","","","","","","","","","",""
"","","","","","","","","","","","canvas-keyboard-response","401","573046","0.0-401.0","null","null","","","","","","","","","","","","","","stimulus","","","2","42","","","","","","","","","",""
"","","","","","","","","","","","canvas-button-response","402","574934","0.0-402.0","1883","bridge","","","","","","","","","","","","","","perceptual","","","2","42","","","","","26","house","10","0","0",""
"","","","","","","","","","","","canvas-button-response","403","576468","0.0-403.0","1529","2","","","","","","","","","","","","","","confidence","","","2","42","","","","","","","","","","29"
"","","","","","","","","","","","preload","404","576470","0.0-404.0","","","","","true","","","","","","","","","","","preload","","","2","43","false","[]","[]","[]","","","","","",""
"","","","","","","","","","","","canvas-keyboard-response","405","576786","0.0-405.0","null","null","","","","","","","","","","","","","","fixation","","","2","43","","","","","","","","","",""
"","","","","","","","","","","","canvas-keyboard-response","406","577092","0.0-406.0","null","null","","","","","","","","","","","","","","stimulus","","","2","43","","","","","","","","","",""
"","","","","","","","","","","","canvas-button-response","407","578923","0.0-407.0","1827","car","","","","","","","","","","","","","","perceptual","","","2","43","","","","","21","house","10","0","0",""
"","","","","","","","","","","","canvas-button-response","408","580019","0.0-408.0","1092","1","","","","","","","","","","","","","","confidence","","","2","43","","","","","","","","","","29"
"","","","","","","","","","","","preload","409","580021","0.0-409.0","","","","","true","","","","","","","","","","","preload","","","2","44","false","[]","[]","[]","","","","","",""
"","","","","","","","","","","","canvas-keyboard-response","410","580340","0.0-410.0","null","null","","","","","","","","","","","","","","fixation","","","2","44","","","","","","","","","",""
"","","","","","","","","","","","canvas-keyboard-response","411","580650","0.0-411.0","null","null","","","","","","","","","","","","","","stimulus","","","2","44","","","","","","","","","",""
"","","","","","","","","","","","canvas-button-response","412","582557","0.0-412.0","1902","house","","","","","","","","","","","","","","perceptual","","","2","44","","","","","13","house","6","0","1",""
"","","","","","","","","","","","canvas-button-response","413","583521","0.0-413.0","961","1","","","","","","","","","","","","","","confidence","","","2","44","","","","","","","","","","30"
"","","","","","","","","","","","preload","414","583523","0.0-414.0","","","","","true","","","","","","","","","","","preload","","","2","45","false","[]","[]","[]","","","","","",""
"","","","","","","","","","","","canvas-keyboard-response","415","583831","0.0-415.0","null","null","","","","","","","","","","","","","","fixation","","","2","45","","","","","","","","","",""
"","","","","","","","","","","","canvas-keyboard-response","416","584137","0.0-416.0","null","null","","","","","","","","","","","","","","stimulus","","","2","45","","","","","","","","","",""
"","","","","","","","","","","","canvas-button-response","417","585615","0.0-417.0","1472","cat","","","","","","","","","","","","","","perceptual","","","2","45","","","","","297","cat","6","0","1",""
"","","","","","","","","","","","canvas-button-response","418","586627","0.0-418.0","1008","2","","","","","","","","","","","","","","confidence","","","2","45","","","","","","","","","","31"
"","","","","","","","","","","","preload","419","586629","0.0-419.0","","","","","true","","","","","","","","","","","preload","","","2","46","false","[]","[]","[]","","","","","",""
"","","","","","","","","","","","canvas-keyboard-response","420","586937","0.0-420.0","null","null","","","","","","","","","","","","","","fixation","","","2","46","","","","","","","","","",""
"","","","","","","","","","","","canvas-keyboard-response","421","587245","0.0-421.0","null","null","","","","","","","","","","","","","","stimulus","","","2","46","","","","","","","","","",""
"","","","","","","","","","","","canvas-button-response","422","588373","0.0-422.0","1122","flower","","","","","","","","","","","","","","perceptual","","","2","46","","","","","212","flower","6","0","1",""
"","","","","","","","","","","","canvas-button-response","423","590112","0.0-423.0","1735","5","","","","","","","","","","","","","","confidence","","","2","46","","","","","","","","","","32"
"","","","","","","","","","","","preload","424","590114","0.0-424.0","","","","","true","","","","","","","","","","","preload","","","2","47","false","[]","[]","[]","","","","","",""
"","","","","","","","","","","","canvas-keyboard-response","425","590416","0.0-425.0","null","null","","","","","","","","","","","","","","fixation","","","2","47","","","","","","","","","",""
"","","","","","","","","","","","canvas-keyboard-response","426","590732","0.0-426.0","null","null","","","","","","","","","","","","","","stimulus","","","2","47","","","","","","","","","",""
"","","","","","","","","","","","canvas-button-response","427","593733","0.0-427.0","2996","elephant","","","","","","","","","","","","","","perceptual","","","2","47","","","","","14","house","6","0","0",""
"","","","","","","","","","","","canvas-button-response","428","594944","0.0-428.0","1206","3","","","","","","","","","","","","","","confidence","","","2","47","","","","","","","","","","32"
"","","","","","","","","","","","preload","429","594947","0.0-429.0","","","","","true","","","","","","","","","","","preload","","","2","48","false","[]","[]","[]","","","","","",""
"","","","","","","","","","","","canvas-keyboard-response","430","595251","0.0-430.0","null","null","","","","","","","","","","","","","","fixation","","","2","48","","","","","","","","","",""
"","","","","","","","","","","","canvas-keyboard-response","431","595567","0.0-431.0","null","null","","","","","","","","","","","","","","stimulus","","","2","48","","","","","","","","","",""
"","","","","","","","","","","","canvas-button-response","432","596950","0.0-432.0","1377","elephant","","","","","","","","","","","","","","perceptual","","","2","48","","","","","198","bridge","10","0","0",""
"","","","","","","","","","","","canvas-button-response","433","598074","0.0-433.0","1118","2","","","","","","","","","","","","","","confidence","","","2","48","","","","","","","","","","32"
"","","","","","","","","","","","preload","434","598076","0.0-434.0","","","","","true","","","","","","","","","","","preload","","","2","49","false","[]","[]","[]","","","","","",""
"","","","","","","","","","","","canvas-keyboard-response","435","598380","0.0-435.0","null","null","","","","","","","","","","","","","","fixation","","","2","49","","","","","","","","","",""
"","","","","","","","","","","","canvas-keyboard-response","436","598689","0.0-436.0","null","null","","","","","","","","","","","","","","stimulus","","","2","49","","","","","","","","","",""
"","","","","","","","","","","","canvas-button-response","437","599531","0.0-437.0","834","flower","","","","","","","","","","","","","","perceptual","","","2","49","","","","","205","flower","6","0","1",""
"","","","","","","","","","","","canvas-button-response","438","600741","0.0-438.0","1206","4","","","","","","","","","","","","","","confidence","","","2","49","","","","","","","","","","33"
"","","","","","","","","","","","html-button-response","439","605689","0.0-439.0","4944","0","","","","","","","","","","","","","","<p style=""font-size:20px;color:#000000"">You got 33 out of 50 trials correct in this block.<br><br>You have completed 6% of the experiment.<br><br>Take a short break.<br><br>When you are ready, click Continue to proceed.","","","2","49","","","","","","","","","",""
"","","","","","","","","","","","html-keyboard-response","440","606700","0.0-440.0","null","null","","","","","","","","","","","","","","<p style=""font-size:32px;color:#000000""><br><br> RUN: &nbsp 1/4 <br><br> BLOCK: 2/4 ","","","2","49","","","","","","","","","",""
"","","","","","","","","","","","preload","441","606701","0.0-441.0","","","","","true","","","","","","","","","","","preload","","","2","50","false","[]","[]","[]","","","","","",""
"","","","","","","","","","","","canvas-keyboard-response","442","607014","0.0-442.0","null","null","","","","","","","","","","","","","","fixation","","","2","50","","","","","","","","","",""
"","","","","","","","","","","","canvas-keyboard-response","443","607324","0.0-443.0","null","null","","","","","","","","","","","","","","stimulus","","","2","50","","","","","","","","","",""
"","","","","","","","","","","","canvas-button-response","444","609110","0.0-444.0","1778","bridge","","","","","","","","","","","","","","perceptual","","","2","50","","","","","288","cat","6","0","0",""
"","","","","","","","","","","","canvas-button-response","445","610358","0.0-445.0","1244","3","","","","","","","","","","","","","","confidence","","","2","50","","","","","","","","","","0"
"","","","","","","","","","","","preload","446","610360","0.0-446.0","","","","","true","","","","","","","","","","","preload","","","2","51","false","[]","[]","[]","","","","","",""
"","","","","","","","","","","","canvas-keyboard-response","447","610665","0.0-447.0","null","null","","","","","","","","","","","","","","fixation","","","2","51","","","","","","","","","",""
"","","","","","","","","","","","canvas-keyboard-response","448","610977","0.0-448.0","null","null","","","","","","","","","","","","","","stimulus","","","2","51","","","","","","","","","",""
"","","","","","","","","","","","canvas-button-response","449","612505","0.0-449.0","1520","bed","","","","","","","","","","","","","","perceptual","","","2","51","","","","","235","flower","10","0","0",""
"","","","","","","","","","","","canvas-button-response","450","613376","0.0-450.0","868","7","","","","","","","","","","","","","","confidence","","","2","51","","","","","","","","","","0"
"","","","","","","","","","","","preload","451","613378","0.0-451.0","","","","","true","","","","","","","","","","","preload","","","2","52","false","[]","[]","[]","","","","","",""
"","","","","","","","","","","","canvas-keyboard-response","452","613690","0.0-452.0","null","null","","","","","","","","","","","","","","fixation","","","2","52","","","","","","","","","",""
"","","","","","","","","","","","canvas-keyboard-response","453","614002","0.0-453.0","null","null","","","","","","","","","","","","","","stimulus","","","2","52","","","","","","","","","",""
"","","","","","","","","","","","canvas-button-response","454","615607","0.0-454.0","1597","car","","","","","","","","","","","","","","perceptual","","","2","52","","","","","36","house","10","0","0",""
"","","","","","","","","","","","canvas-button-response","455","617081","0.0-455.0","1469","2","","","","","","","","","","","","","","confidence","","","2","52","","","","","","","","","","0"
"","","","","","","","","","","","preload","456","617083","0.0-456.0","","","","","true","","","","","","","","","","","preload","","","2","53","false","[]","[]","[]","","","","","",""
"","","","","","","","","","","","canvas-keyboard-response","457","617400","0.0-457.0","null","null","","","","","","","","","","","","","","fixation","","","2","53","","","","","","","","","",""
"","","","","","","","","","","","canvas-keyboard-response","458","617713","0.0-458.0","null","null","","","","","","","","","","","","","","stimulus","","","2","53","","","","","","","","","",""
"","","","","","","","","","","","canvas-button-response","459","619088","0.0-459.0","1367","house","","","","","","","","","","","","","","perceptual","","","2","53","","","","","12","house","6","0","1",""
"","","","","","","","","","","","canvas-button-response","460","620316","0.0-460.0","1223","8","","","","","","","","","","","","","","confidence","","","2","53","","","","","","","","","","1"
"","","","","","","","","","","","preload","461","620318","0.0-461.0","","","","","true","","","","","","","","","","","preload","","","2","54","false","[]","[]","[]","","","","","",""
"","","","","","","","","","","","canvas-keyboard-response","462","620634","0.0-462.0","null","null","","","","","","","","","","","","","","fixation","","","2","54","","","","","","","","","",""
"","","","","","","","","","","","canvas-keyboard-response","463","620950","0.0-463.0","null","null","","","","","","","","","","","","","","stimulus","","","2","54","","","","","","","","","",""
"","","","","","","","","","","","canvas-button-response","464","627351","0.0-464.0","6397","train","","","","","","","","","","","","","","perceptual","","","2","54","","","","","39","house","10","0","0",""
"","","","","","","","","","","","canvas-button-response","465","628587","0.0-465.0","1231","1","","","","","","","","","","","","","","confidence","","","2","54","","","","","","","","","","1"
"","","","","","","","","","","","preload","466","628590","0.0-466.0","","","","","true","","","","","","","","","","","preload","","","2","55","false","[]","[]","[]","","","","","",""
"","","","","","","","","","","","canvas-keyboard-response","467","628903","0.0-467.0","null","null","","","","","","","","","","","","","","fixation","","","2","55","","","","","","","","","",""
"","","","","","","","","","","","canvas-keyboard-response","468","629217","0.0-468.0","null","null","","","","","","","","","","","","","","stimulus","","","2","55","","","","","","","","","",""
"","","","","","","","","","","","canvas-button-response","469","632202","0.0-469.0","2982","bridge","","","","","","","","","","","","","","perceptual","","","2","55","","","","","157","bed","10","0","0",""
"","","","","","","","","","","","canvas-button-response","470","633120","0.0-470.0","913","1","","","","","","","","","","","","","","confidence","","","2","55","","","","","","","","","","1"
"","","","","","","","","","","","preload","471","633122","0.0-471.0","","","","","true","","","","","","","","","","","preload","","","2","56","false","[]","[]","[]","","","","","",""
"","","","","","","","","","","","canvas-keyboard-response","472","633438","0.0-472.0","null","null","","","","","","","","","","","","","","fixation","","","2","56","","","","","","","","","",""
"","","","","","","","","","","","canvas-keyboard-response","473","633748","0.0-473.0","null","null","","","","","","","","","","","","","","stimulus","","","2","56","","","","","","","","","",""
"","","","","","","","","","","","canvas-button-response","474","634726","0.0-474.0","971","bridge","","","","","","","","","","","","","","perceptual","","","2","56","","","","","188","bridge","10","0","1",""
"","","","","","","","","","","","canvas-button-response","475","635387","0.0-475.0","657","4","","","","","","","","","","","","","","confidence","","","2","56","","","","","","","","","","2"
"","","","","","","","","","","","preload","476","635389","0.0-476.0","","","","","true","","","","","","","","","","","preload","","","2","57","false","[]","[]","[]","","","","","",""
"","","","","","","","","","","","canvas-keyboard-response","477","635701","0.0-477.0","null","null","","","","","","","","","","","","","","fixation","","","2","57","","","","","","","","","",""
"","","","","","","","","","","","canvas-keyboard-response","478","636013","0.0-478.0","null","null","","","","","","","","","","","","","","stimulus","","","2","57","","","","","","","","","",""
"","","","","","","","","","","","canvas-button-response","479","636987","0.0-479.0","967","car","","","","","","","","","","","","","","perceptual","","","2","57","","","","","46","car","6","0","1",""
"","","","","","","","","","","","canvas-button-response","480","637694","0.0-480.0","701","10","","","","","","","","","","","","","","confidence","","","2","57","","","","","","","","","","3"
"","","","","","","","","","","","preload","481","637697","0.0-481.0","","","","","true","","","","","","","","","","","preload","","","2","58","false","[]","[]","[]","","","","","",""
"","","","","","","","","","","","canvas-keyboard-response","482","638009","0.0-482.0","null","null","","","","","","","","","","","","","","fixation","","","2","58","","","","","","","","","",""
"","","","","","","","","","","","canvas-keyboard-response","483","638311","0.0-483.0","null","null","","","","","","","","","","","","","","stimulus","","","2","58","","","","","","","","","",""
"","","","","","","","","","","","canvas-button-response","484","639200","0.0-484.0","886","flower","","","","","","","","","","","","","","perceptual","","","2","58","","","","","223","flower","10","0","1",""
"","","","","","","","","","","","canvas-button-response","485","639842","0.0-485.0","638","10","","","","","","","","","","","","","","confidence","","","2","58","","","","","","","","","","4"
"","","","","","","","","","","","preload","486","639844","0.0-486.0","","","","","true","","","","","","","","","","","preload","","","2","59","false","[]","[]","[]","","","","","",""
"","","","","","","","","","","","canvas-keyboard-response","487","640157","0.0-487.0","null","null","","","","","","","","","","","","","","fixation","","","2","59","","","","","","","","","",""
"","","","","","","","","","","","canvas-keyboard-response","488","640476","0.0-488.0","null","null","","","","","","","","","","","","","","stimulus","","","2","59","","","","","","","","","",""
"","","","","","","","","","","","canvas-button-response","489","641376","0.0-489.0","895","flower","","","","","","","","","","","","","","perceptual","","","2","59","","","","","207","flower","6","0","1",""
"","","","","","","","","","","","canvas-button-response","490","642030","0.0-490.0","650","10","","","","","","","","","","","","","","confidence","","","2","59","","","","","","","","","","5"
"","","","","","","","","","","","preload","491","642032","0.0-491.0","","","","","true","","","","","","","","","","","preload","","","2","60","false","[]","[]","[]","","","","","",""
