"width","height","webaudio","browser","browser_version","mobile","os","fullscreen","vsync_rate","webcam","microphone","trial_type","trial_index","time_elapsed","internal_node_id","rt","response","accuracy","view_history","success","item_width_mm","item_height_mm","item_width_px","px2mm","view_dist_mm","item_width_deg","px2deg","scale_factor","win_width_deg","win_height_deg","stimulus","datetime","subjectID","curr_triallist","trial_no","timeout","failed_images","failed_audio","failed_video","image_index","category","blur","reps","correct","running_score"
"1920","911","true","chrome","141.0.0","false","Windows 10","true","60.07","true","true","browser-check","0","1005","0.0-0.0","","","","","","","","","","","","","","","","","","","","","","","","","","","","","",""
"","","","","","","","","","","","survey","1","43562","0.0-1.0","42522","{""P0_Q0"":""903974820"",""P0_Q1"":""19"",""P1_Q0"":""Male"",""P1_Q1"":""Not Hispanic or Latino"",""P1_Q2"":""White"",""P1_Q3"":""Normal"",""P1_Q4"":""Ambidextrous""}","[]","","","","","","","","","","","","","","","","","","","","","","","","","","",""
"","","","","","","","","","","","instructions","2","69742","0.0-2.0","26179","","","[{""page_index"":0,""viewing_time"":3592},{""page_index"":1,""viewing_time"":7897},{""page_index"":2,""viewing_time"":9962},{""page_index"":3,""viewing_time"":4728}]","","","","","","","","","","","","","","","","","","","","","","","","","",""
"","","","","","","","","","","","fullscreen","3","72391","0.0-3.0","1647","","","","true","","","","","","","","","","","","","","","","","","","","","","","","",""
"","","","","","","","","","","","virtual-chinrest","4","123957","0.0-4.0","51565","","","","","85.6","53.98","315.36965596098713","3.682703724447656","465.24","10.512321865366237","30","0.9829734539785547","64","36","","","","","","","","","","","","","","",""
"","","","","","","","","","","","instructions","5","168763","0.0-5.0","44805","","","[{""page_index"":0,""viewing_time"":5880},{""page_index"":1,""viewing_time"":5208},{""page_index"":2,""viewing_time"":6089},{""page_index"":3,""viewing_time"":3537},{""page_index"":4,""viewing_time"":6049},{""page_index"":5,""viewing_time"":15258},{""page_index"":6,""viewing_time"":2784}]","","","","","","","","","","","","","","","","","","","","","","","","","",""
"","","","","","","","","","","","html-button-response","6","173299","0.0-6.0","4536","0","","","","","","","","","","","","","","start_practice","Sun Nov 02 2025 23:55:38 GMT-0500 (Eastern Standard Time)","27413","","","","","","","","","","","",""
"","","","","","","","","","","","preload","7","173300","0.0-7.0","","","","","true","","","","","","","","","","","preload","","","0","0","false","[]","[]","[]","","","","","",""
"","","","","","","","","","","","canvas-keyboard-response","8","173602","0.0-8.0","null","null","","","","","","","","","","","","","","fixation","","","0","0","","","","","","","","","",""
"","","","","","","","","","","","canvas-keyboard-response","9","173904","0.0-9.0","null","null","","","","","","","","","","","","","","stimulus","","","0","0","","","","","","","","","",""
"","","","","","","","","","","","canvas-button-response","10","177308","0.0-10.0","3404","flower","","","","","","","","","","","","","","perceptual","","","0","0","","","","","52","flower","1","","1",""
"","","","","","","","","","","","canvas-button-response","11","179044","0.0-11.0","1734","5","","","","","","","","","","","","","","confidence","","","0","0","","","","","","","","","","1"
"","","","","","","","","","","","html-keyboard-response","12","180046","0.0-12.0","null","null","","","","","","","","","","","","","","feedback","Sun Nov 02 2025 23:55:48 GMT-0500 (Eastern Standard Time)","27413","0","0","","","","","","","","","",""
"","","","","","","","","","","","preload","13","180046","0.0-13.0","","","","","true","","","","","","","","","","","preload","","","0","1","false","[]","[]","[]","","","","","",""
"","","","","","","","","","","","canvas-keyboard-response","14","180348","0.0-14.0","null","null","","","","","","","","","","","","","","fixation","","","0","1","","","","","","","","","",""
"","","","","","","","","","","","canvas-keyboard-response","15","180649","0.0-15.0","null","null","","","","","","","","","","","","","","stimulus","","","0","1","","","","","","","","","",""
"","","","","","","","","","","","canvas-button-response","16","181797","0.0-16.0","1147","bridge","","","","","","","","","","","","","","perceptual","","","0","1","","","","","42","bridge","1","","1",""
"","","","","","","","","","","","canvas-button-response","17","182437","0.0-17.0","639","10","","","","","","","","","","","","","","confidence","","","0","1","","","","","","","","","","2"
"","","","","","","","","","","","html-keyboard-response","18","183438","0.0-18.0","null","null","","","","","","","","","","","","","","feedback","Sun Nov 02 2025 23:55:51 GMT-0500 (Eastern Standard Time)","27413","0","1","","","","","","","","","",""
"","","","","","","","","","","","preload","19","183438","0.0-19.0","","","","","true","","","","","","","","","","","preload","","","0","2","false","[]","[]","[]","","","","","",""
"","","","","","","","","","","","canvas-keyboard-response","20","183739","0.0-20.0","null","null","","","","","","","","","","","","","","fixation","","","0","2","","","","","","","","","",""
"","","","","","","","","","","","canvas-keyboard-response","21","184040","0.0-21.0","null","null","","","","","","","","","","","","","","stimulus","","","0","2","","","","","","","","","",""
"","","","","","","","","","","","canvas-button-response","22","185885","0.0-22.0","1844","train","","","","","","","","","","","","","","perceptual","","","0","2","","","","","62","train","1","","1",""
"","","","","","","","","","","","canvas-button-response","23","186557","0.0-23.0","671","10","","","","","","","","","","","","","","confidence","","","0","2","","","","","","","","","","3"
"","","","","","","","","","","","html-keyboard-response","24","187558","0.0-24.0","null","null","","","","","","","","","","","","","","feedback","Sun Nov 02 2025 23:55:55 GMT-0500 (Eastern Standard Time)","27413","0","2","","","","","","","","","",""
"","","","","","","","","","","","preload","25","187558","0.0-25.0","","","","","true","","","","","","","","","","","preload","","","0","3","false","[]","[]","[]","","","","","",""
"","","","","","","","","","","","canvas-keyboard-response","26","187860","0.0-26.0","null","null","","","","","","","","","","","","","","fixation","","","0","3","","","","","","","","","",""
"","","","","","","","","","","","canvas-keyboard-response","27","188161","0.0-27.0","null","null","","","","","","","","","","","","","","stimulus","","","0","3","","","","","","","","","",""
"","","","","","","","","","","","canvas-button-response","28","189389","0.0-28.0","1227","cat","","","","","","","","","","","","","","perceptual","","","0","3","","","","","72","cat","1","","1",""
"","","","","","","","","","","","canvas-button-response","29","189910","0.0-29.0","519","10","","","","","","","","","","","","","","confidence","","","0","3","","","","","","","","","","4"
"","","","","","","","","","","","html-keyboard-response","30","190912","0.0-30.0","null","null","","","","","","","","","","","","","","feedback","Sun Nov 02 2025 23:55:59 GMT-0500 (Eastern Standard Time)","27413","0","3","","","","","","","","","",""
"","","","","","","","","","","","preload","31","190912","0.0-31.0","","","","","true","","","","","","","","","","","preload","","","0","4","false","[]","[]","[]","","","","","",""
"","","","","","","","","","","","canvas-keyboard-response","32","191213","0.0-32.0","null","null","","","","","","","","","","","","","","fixation","","","0","4","","","","","","","","","",""
"","","","","","","","","","","","canvas-keyboard-response","33","191514","0.0-33.0","null","null","","","","","","","","","","","","","","stimulus","","","0","4","","","","","","","","","",""
"","","","","","","","","","","","canvas-button-response","34","192686","0.0-34.0","1171","knife","","","","","","","","","","","","","","perceptual","","","0","4","","","","","92","knife","1","","1",""
"","","","","","","","","","","","canvas-button-response","35","193534","0.0-35.0","847","10","","","","","","","","","","","","","","confidence","","","0","4","","","","","","","","","","5"
"","","","","","","","","","","","html-keyboard-response","36","194535","0.0-36.0","null","null","","","","","","","","","","","","","","feedback","Sun Nov 02 2025 23:56:02 GMT-0500 (Eastern Standard Time)","27413","0","4","","","","","","","","","",""
"","","","","","","","","","","","preload","37","194535","0.0-37.0","","","","","true","","","","","","","","","","","preload","","","0","5","false","[]","[]","[]","","","","","",""
"","","","","","","","","","","","canvas-keyboard-response","38","194836","0.0-38.0","null","null","","","","","","","","","","","","","","fixation","","","0","5","","","","","","","","","",""
"","","","","","","","","","","","canvas-keyboard-response","39","195137","0.0-39.0","null","null","","","","","","","","","","","","","","stimulus","","","0","5","","","","","","","","","",""
"","","","","","","","","","","","canvas-button-response","40","196030","0.0-40.0","892","house","","","","","","","","","","","","","","perceptual","","","0","5","","","","","2","house","1","","1",""
"","","","","","","","","","","","canvas-button-response","41","196622","0.0-41.0","591","10","","","","","","","","","","","","","","confidence","","","0","5","","","","","","","","","","6"
"","","","","","","","","","","","html-keyboard-response","42","197623","0.0-42.0","null","null","","","","","","","","","","","","","","feedback","Sun Nov 02 2025 23:56:06 GMT-0500 (Eastern Standard Time)","27413","0","5","","","","","","","","","",""
"","","","","","","","","","","","preload","43","197624","0.0-43.0","","","","","true","","","","","","","","","","","preload","","","0","6","false","[]","[]","[]","","","","","",""
"","","","","","","","","","","","canvas-keyboard-response","44","197925","0.0-44.0","null","null","","","","","","","","","","","","","","fixation","","","0","6","","","","","","","","","",""
"","","","","","","","","","","","canvas-keyboard-response","45","198226","0.0-45.0","null","null","","","","","","","","","","","","","","stimulus","","","0","6","","","","","","","","","",""
"","","","","","","","","","","","canvas-button-response","46","199111","0.0-46.0","884","car","","","","","","","","","","","","","","perceptual","","","0","6","","","","","12","car","1","","1",""
"","","","","","","","","","","","canvas-button-response","47","199799","0.0-47.0","687","10","","","","","","","","","","","","","","confidence","","","0","6","","","","","","","","","","7"
"","","","","","","","","","","","html-keyboard-response","48","200813","0.0-48.0","null","null","","","","","","","","","","","","","","feedback","Sun Nov 02 2025 23:56:09 GMT-0500 (Eastern Standard Time)","27413","0","6","","","","","","","","","",""
"","","","","","","","","","","","preload","49","200814","0.0-49.0","","","","","true","","","","","","","","","","","preload","","","0","7","false","[]","[]","[]","","","","","",""
"","","","","","","","","","","","canvas-keyboard-response","50","201114","0.0-50.0","null","null","","","","","","","","","","","","","","fixation","","","0","7","","","","","","","","","",""
"","","","","","","","","","","","canvas-keyboard-response","51","201420","0.0-51.0","null","null","","","","","","","","","","","","","","stimulus","","","0","7","","","","","","","","","",""
"","","","","","","","","","","","canvas-button-response","52","209560","0.0-52.0","8139","elephant","","","","","","","","","","","","","","perceptual","","","0","7","","","","","82","elephant","1","","1",""
"","","","","","","","","","","","canvas-button-response","53","210960","0.0-53.0","1399","5","","","","","","","","","","","","","","confidence","","","0","7","","","","","","","","","","8"
"","","","","","","","","","","","html-keyboard-response","54","211962","0.0-54.0","null","null","","","","","","","","","","","","","","feedback","Sun Nov 02 2025 23:56:20 GMT-0500 (Eastern Standard Time)","27413","0","7","","","","","","","","","",""
"","","","","","","","","","","","preload","55","211962","0.0-55.0","","","","","true","","","","","","","","","","","preload","","","0","8","false","[]","[]","[]","","","","","",""
"","","","","","","","","","","","canvas-keyboard-response","56","212263","0.0-56.0","null","null","","","","","","","","","","","","","","fixation","","","0","8","","","","","","","","","",""
"","","","","","","","","","","","canvas-keyboard-response","57","212565","0.0-57.0","null","null","","","","","","","","","","","","","","stimulus","","","0","8","","","","","","","","","",""
"","","","","","","","","","","","canvas-button-response","58","214217","0.0-58.0","1651","bed","","","","","","","","","","","","","","perceptual","","","0","8","","","","","32","bed","1","","1",""
"","","","","","","","","","","","canvas-button-response","59","215081","0.0-59.0","863","10","","","","","","","","","","","","","","confidence","","","0","8","","","","","","","","","","9"
"","","","","","","","","","","","html-keyboard-response","60","216082","0.0-60.0","null","null","","","","","","","","","","","","","","feedback","Sun Nov 02 2025 23:56:24 GMT-0500 (Eastern Standard Time)","27413","0","8","","","","","","","","","",""
"","","","","","","","","","","","preload","61","216083","0.0-61.0","","","","","true","","","","","","","","","","","preload","","","0","9","false","[]","[]","[]","","","","","",""
"","","","","","","","","","","","canvas-keyboard-response","62","216384","0.0-62.0","null","null","","","","","","","","","","","","","","fixation","","","0","9","","","","","","","","","",""
"","","","","","","","","","","","canvas-keyboard-response","63","216685","0.0-63.0","null","null","","","","","","","","","","","","","","stimulus","","","0","9","","","","","","","","","",""
"","","","","","","","","","","","canvas-button-response","64","219225","0.0-64.0","2539","phone","","","","","","","","","","","","","","perceptual","","","0","9","","","","","22","phone","1","","1",""
"","","","","","","","","","","","canvas-button-response","65","219833","0.0-65.0","607","10","","","","","","","","","","","","","","confidence","","","0","9","","","","","","","","","","10"
"","","","","","","","","","","","html-keyboard-response","66","220835","0.0-66.0","null","null","","","","","","","","","","","","","","feedback","Sun Nov 02 2025 23:56:29 GMT-0500 (Eastern Standard Time)","27413","0","9","","","","","","","","","",""
"","","","","","","","","","","","html-button-response","67","228154","0.0-67.0","7319","0","","","","","","","","","","","","","","start_practice","Sun Nov 02 2025 23:56:30 GMT-0500 (Eastern Standard Time)","27413","0","9","","","","","","","","","",""
"","","","","","","","","","","","preload","68","228155","0.0-68.0","","","","","true","","","","","","","","","","","preload","","","1","0","false","[]","[]","[]","","","","","",""
"","","","","","","","","","","","canvas-keyboard-response","69","228456","0.0-69.0","null","null","","","","","","","","","","","","","","fixation","","","1","0","","","","","","","","","",""
"","","","","","","","","","","","canvas-keyboard-response","70","228757","0.0-70.0","null","null","","","","","","","","","","","","","","stimulus","","","1","0","","","","","","","","","",""
"","","","","","","","","","","","canvas-button-response","71","231275","0.0-71.0","2516","bed","","","","","","","","","","","","","","perceptual","","","1","0","","","","","34","bed","6","","1",""
"","","","","","","","","","","","canvas-button-response","72","232643","0.0-72.0","1367","10","","","","","","","","","","","","","","confidence","","","1","0","","","","","","","","","","1"
"","","","","","","","","","","","html-keyboard-response","73","233644","0.0-73.0","null","null","","","","","","","","","","","","","","feedback","Sun Nov 02 2025 23:56:42 GMT-0500 (Eastern Standard Time)","27413","1","0","","","","","","","","","",""
"","","","","","","","","","","","preload","74","233645","0.0-74.0","","","","","true","","","","","","","","","","","preload","","","1","1","false","[]","[]","[]","","","","","",""
"","","","","","","","","","","","canvas-keyboard-response","75","233945","0.0-75.0","null","null","","","","","","","","","","","","","","fixation","","","1","1","","","","","","","","","",""
"","","","","","","","","","","","canvas-keyboard-response","76","234247","0.0-76.0","null","null","","","","","","","","","","","","","","stimulus","","","1","1","","","","","","","","","",""
"","","","","","","","","","","","canvas-button-response","77","236243","0.0-77.0","1995","house","","","","","","","","","","","","","","perceptual","","","1","1","","","","","17","car","10","","0",""
"","","","","","","","","","","","canvas-button-response","78","237540","0.0-78.0","1295","7","","","","","","","","","","","","","","confidence","","","1","1","","","","","","","","","","1"
"","","","","","","","","","","","html-keyboard-response","79","238541","0.0-79.0","null","null","","","","","","","","","","","","","","feedback","Sun Nov 02 2025 23:56:46 GMT-0500 (Eastern Standard Time)","27413","1","1","","","","","","","","","",""
"","","","","","","","","","","","preload","80","238541","0.0-80.0","","","","","true","","","","","","","","","","","preload","","","1","2","false","[]","[]","[]","","","","","",""
"","","","","","","","","","","","canvas-keyboard-response","81","238842","0.0-81.0","null","null","","","","","","","","","","","","","","fixation","","","1","2","","","","","","","","","",""
"","","","","","","","","","","","canvas-keyboard-response","82","239144","0.0-82.0","null","null","","","","","","","","","","","","","","stimulus","","","1","2","","","","","","","","","",""
"","","","","","","","","","","","canvas-button-response","83","243868","0.0-83.0","4724","phone","","","","","","","","","","","","","","perceptual","","","1","2","","","","","94","knife","6","","0",""
"","","","","","","","","","","","canvas-button-response","84","244500","0.0-84.0","631","5","","","","","","","","","","","","","","confidence","","","1","2","","","","","","","","","","1"
"","","","","","","","","","","","html-keyboard-response","85","245502","0.0-85.0","null","null","","","","","","","","","","","","","","feedback","Sun Nov 02 2025 23:56:53 GMT-0500 (Eastern Standard Time)","27413","1","2","","","","","","","","","",""
"","","","","","","","","","","","preload","86","245502","0.0-86.0","","","","","true","","","","","","","","","","","preload","","","1","3","false","[]","[]","[]","","","","","",""
"","","","","","","","","","","","canvas-keyboard-response","87","245804","0.0-87.0","null","null","","","","","","","","","","","","","","fixation","","","1","3","","","","","","","","","",""
"","","","","","","","","","","","canvas-keyboard-response","88","246105","0.0-88.0","null","null","","","","","","","","","","","","","","stimulus","","","1","3","","","","","","","","","",""
"","","","","","","","","","","","canvas-button-response","89","247885","0.0-89.0","1779","elephant","","","","","","","","","","","","","","perceptual","","","1","3","","","","","84","elephant","6","","1",""
"","","","","","","","","","","","canvas-button-response","90","248381","0.0-90.0","495","10","","","","","","","","","","","","","","confidence","","","1","3","","","","","","","","","","2"
"","","","","","","","","","","","html-keyboard-response","91","249383","0.0-91.0","null","null","","","","","","","","","","","","","","feedback","Sun Nov 02 2025 23:56:57 GMT-0500 (Eastern Standard Time)","27413","1","3","","","","","","","","","",""
"","","","","","","","","","","","preload","92","249384","0.0-92.0","","","","","true","","","","","","","","","","","preload","","","1","4","false","[]","[]","[]","","","","","",""
"","","","","","","","","","","","canvas-keyboard-response","93","249685","0.0-93.0","null","null","","","","","","","","","","","","","","fixation","","","1","4","","","","","","","","","",""
"","","","","","","","","","","","canvas-keyboard-response","94","249987","0.0-94.0","null","null","","","","","","","","","","","","","","stimulus","","","1","4","","","","","","","","","",""
"","","","","","","","","","","","canvas-button-response","95","251925","0.0-95.0","1938","car","","","","","","","","","","","","","","perceptual","","","1","4","","","","","14","car","6","","1",""
"","","","","","","","","","","","canvas-button-response","96","253318","0.0-96.0","1391","10","","","","","","","","","","","","","","confidence","","","1","4","","","","","","","","","","3"
"","","","","","","","","","","","html-keyboard-response","97","254319","0.0-97.0","null","null","","","","","","","","","","","","","","feedback","Sun Nov 02 2025 23:57:02 GMT-0500 (Eastern Standard Time)","27413","1","4","","","","","","","","","",""
"","","","","","","","","","","","preload","98","254319","0.0-98.0","","","","","true","","","","","","","","","","","preload","","","1","5","false","[]","[]","[]","","","","","",""
"","","","","","","","","","","","canvas-keyboard-response","99","254620","0.0-99.0","null","null","","","","","","","","","","","","","","fixation","","","1","5","","","","","","","","","",""
"","","","","","","","","","","","canvas-keyboard-response","100","254922","0.0-100.0","null","null","","","","","","","","","","","","","","stimulus","","","1","5","","","","","","","","","",""
"","","","","","","","","","","","canvas-button-response","101","257462","0.0-101.0","2539","cat","","","","","","","","","","","","","","perceptual","","","1","5","","","","","77","cat","10","","1",""
"","","","","","","","","","","","canvas-button-response","102","258350","0.0-102.0","887","5","","","","","","","","","","","","","","confidence","","","1","5","","","","","","","","","","4"
"","","","","","","","","","","","html-keyboard-response","103","259352","0.0-103.0","null","null","","","","","","","","","","","","","","feedback","Sun Nov 02 2025 23:57:07 GMT-0500 (Eastern Standard Time)","27413","1","5","","","","","","","","","",""
"","","","","","","","","","","","preload","104","259352","0.0-104.0","","","","","true","","","","","","","","","","","preload","","","1","6","false","[]","[]","[]","","","","","",""
"","","","","","","","","","","","canvas-keyboard-response","105","259654","0.0-105.0","null","null","","","","","","","","","","","","","","fixation","","","1","6","","","","","","","","","",""
"","","","","","","","","","","","canvas-keyboard-response","106","259955","0.0-106.0","null","null","","","","","","","","","","","","","","stimulus","","","1","6","","","","","","","","","",""
"","","","","","","","","","","","canvas-button-response","107","265159","0.0-107.0","5203","phone","","","","","","","","","","","","","","perceptual","","","1","6","","","","","27","phone","10","","1",""
"","","","","","","","","","","","canvas-button-response","108","266575","0.0-108.0","1415","5","","","","","","","","","","","","","","confidence","","","1","6","","","","","","","","","","5"
"","","","","","","","","","","","html-keyboard-response","109","267577","0.0-109.0","null","null","","","","","","","","","","","","","","feedback","Sun Nov 02 2025 23:57:15 GMT-0500 (Eastern Standard Time)","27413","1","6","","","","","","","","","",""
"","","","","","","","","","","","preload","110","267577","0.0-110.0","","","","","true","","","","","","","","","","","preload","","","1","7","false","[]","[]","[]","","","","","",""
"","","","","","","","","","","","canvas-keyboard-response","111","267878","0.0-111.0","null","null","","","","","","","","","","","","","","fixation","","","1","7","","","","","","","","","",""
"","","","","","","","","","","","canvas-keyboard-response","112","268180","0.0-112.0","null","null","","","","","","","","","","","","","","stimulus","","","1","7","","","","","","","","","",""
"","","","","","","","","","","","canvas-button-response","113","269360","0.0-113.0","1179","flower","","","","","","","","","","","","","","perceptual","","","1","7","","","","","57","flower","10","","1",""
"","","","","","","","","","","","canvas-button-response","114","269920","0.0-114.0","559","10","","","","","","","","","","","","","","confidence","","","1","7","","","","","","","","","","6"
"","","","","","","","","","","","html-keyboard-response","115","270921","0.0-115.0","null","null","","","","","","","","","","","","","","feedback","Sun Nov 02 2025 23:57:19 GMT-0500 (Eastern Standard Time)","27413","1","7","","","","","","","","","",""
"","","","","","","","","","","","preload","116","270921","0.0-116.0","","","","","true","","","","","","","","","","","preload","","","1","8","false","[]","[]","[]","","","","","",""
"","","","","","","","","","","","canvas-keyboard-response","117","271222","0.0-117.0","null","null","","","","","","","","","","","","","","fixation","","","1","8","","","","","","","","","",""
"","","","","","","","","","","","canvas-keyboard-response","118","271523","0.0-118.0","null","null","","","","","","","","","","","","","","stimulus","","","1","8","","","","","","","","","",""
"","","","","","","","","","","","canvas-button-response","119","278457","0.0-119.0","6933","cat","","","","","","","","","","","","","","perceptual","","","1","8","","","","","74","cat","6","","1",""
"","","","","","","","","","","","canvas-button-response","120","279337","0.0-120.0","879","3","","","","","","","","","","","","","","confidence","","","1","8","","","","","","","","","","7"
"","","","","","","","","","","","html-keyboard-response","121","280339","0.0-121.0","null","null","","","","","","","","","","","","","","feedback","Sun Nov 02 2025 23:57:28 GMT-0500 (Eastern Standard Time)","27413","1","8","","","","","","","","","",""
"","","","","","","","","","","","preload","122","280339","0.0-122.0","","","","","true","","","","","","","","","","","preload","","","1","9","false","[]","[]","[]","","","","","",""
"","","","","","","","","","","","canvas-keyboard-response","123","280641","0.0-123.0","null","null","","","","","","","","","","","","","","fixation","","","1","9","","","","","","","","","",""
"","","","","","","","","","","","canvas-keyboard-response","124","280943","0.0-124.0","null","null","","","","","","","","","","","","","","stimulus","","","1","9","","","","","","","","","",""
"","","","","","","","","","","","canvas-button-response","125","281737","0.0-125.0","793","knife","","","","","","","","","","","","","","perceptual","","","1","9","","","","","97","knife","10","","1",""
"","","","","","","","","","","","canvas-button-response","126","282297","0.0-126.0","559","10","","","","","","","","","","","","","","confidence","","","1","9","","","","","","","","","","8"
"","","","","","","","","","","","html-keyboard-response","127","283299","0.0-127.0","null","null","","","","","","","","","","","","","","feedback","Sun Nov 02 2025 23:57:31 GMT-0500 (Eastern Standard Time)","27413","1","9","","","","","","","","","",""
"","","","","","","","","","","","preload","128","283299","0.0-128.0","","","","","true","","","","","","","","","","","preload","","","1","10","false","[]","[]","[]","","","","","",""
"","","","","","","","","","","","canvas-keyboard-response","129","283601","0.0-129.0","null","null","","","","","","","","","","","","","","fixation","","","1","10","","","","","","","","","",""
"","","","","","","","","","","","canvas-keyboard-response","130","283903","0.0-130.0","null","null","","","","","","","","","","","","","","stimulus","","","1","10","","","","","","","","","",""
"","","","","","","","","","","","canvas-button-response","131","285210","0.0-131.0","1306","train","","","","","","","","","","","","","","perceptual","","","1","10","","","","","64","train","6","","1",""
"","","","","","","","","","","","canvas-button-response","132","285690","0.0-132.0","479","10","","","","","","","","","","","","","","confidence","","","1","10","","","","","","","","","","9"
"","","","","","","","","","","","html-keyboard-response","133","286692","0.0-133.0","null","null","","","","","","","","","","","","","","feedback","Sun Nov 02 2025 23:57:35 GMT-0500 (Eastern Standard Time)","27413","1","10","","","","","","","","","",""
"","","","","","","","","","","","preload","134","286692","0.0-134.0","","","","","true","","","","","","","","","","","preload","","","1","11","false","[]","[]","[]","","","","","",""
"","","","","","","","","","","","canvas-keyboard-response","135","286994","0.0-135.0","null","null","","","","","","","","","","","","","","fixation","","","1","11","","","","","","","","","",""
"","","","","","","","","","","","canvas-keyboard-response","136","287296","0.0-136.0","null","null","","","","","","","","","","","","","","stimulus","","","1","11","","","","","","","","","",""
"","","","","","","","","","","","canvas-button-response","137","288939","0.0-137.0","1642","car","","","","","","","","","","","","","","perceptual","","","1","11","","","","","37","bed","10","","0",""
"","","","","","","","","","","","canvas-button-response","138","289522","0.0-138.0","582","7","","","","","","","","","","","","","","confidence","","","1","11","","","","","","","","","","9"
"","","","","","","","","","","","html-keyboard-response","139","290524","0.0-139.0","null","null","","","","","","","","","","","","","","feedback","Sun Nov 02 2025 23:57:38 GMT-0500 (Eastern Standard Time)","27413","1","11","","","","","","","","","",""
"","","","","","","","","","","","preload","140","290525","0.0-140.0","","","","","true","","","","","","","","","","","preload","","","1","12","false","[]","[]","[]","","","","","",""
"","","","","","","","","","","","canvas-keyboard-response","141","290826","0.0-141.0","null","null","","","","","","","","","","","","","","fixation","","","1","12","","","","","","","","","",""
"","","","","","","","","","","","canvas-keyboard-response","142","291128","0.0-142.0","null","null","","","","","","","","","","","","","","stimulus","","","1","12","","","","","","","","","",""
"","","","","","","","","","","","canvas-button-response","143","292635","0.0-143.0","1506","house","","","","","","","","","","","","","","perceptual","","","1","12","","","","","7","house","10","","1",""
"","","","","","","","","","","","canvas-button-response","144","293323","0.0-144.0","687","6","","","","","","","","","","","","","","confidence","","","1","12","","","","","","","","","","10"
"","","","","","","","","","","","html-keyboard-response","145","294324","0.0-145.0","null","null","","","","","","","","","","","","","","feedback","Sun Nov 02 2025 23:57:42 GMT-0500 (Eastern Standard Time)","27413","1","12","","","","","","","","","",""
"","","","","","","","","","","","preload","146","294324","0.0-146.0","","","","","true","","","","","","","","","","","preload","","","1","13","false","[]","[]","[]","","","","","",""
"","","","","","","","","","","","canvas-keyboard-response","147","294625","0.0-147.0","null","null","","","","","","","","","","","","","","fixation","","","1","13","","","","","","","","","",""
"","","","","","","","","","","","canvas-keyboard-response","148","294926","0.0-148.0","null","null","","","","","","","","","","","","","","stimulus","","","1","13","","","","","","","","","",""
"","","","","","","","","","","","canvas-button-response","149","296563","0.0-149.0","1636","bridge","","","","","","","","","","","","","","perceptual","","","1","13","","","","","44","bridge","6","","1",""
"","","","","","","","","","","","canvas-button-response","150","297812","0.0-150.0","1248","9","","","","","","","","","","","","","","confidence","","","1","13","","","","","","","","","","11"
"","","","","","","","","","","","html-keyboard-response","151","298813","0.0-151.0","null","null","","","","","","","","","","","","","","feedback","Sun Nov 02 2025 23:57:47 GMT-0500 (Eastern Standard Time)","27413","1","13","","","","","","","","","",""
"","","","","","","","","","","","preload","152","298814","0.0-152.0","","","","","true","","","","","","","","","","","preload","","","1","14","false","[]","[]","[]","","","","","",""
"","","","","","","","","","","","canvas-keyboard-response","153","299115","0.0-153.0","null","null","","","","","","","","","","","","","","fixation","","","1","14","","","","","","","","","",""
"","","","","","","","","","","","canvas-keyboard-response","154","299416","0.0-154.0","null","null","","","","","","","","","","","","","","stimulus","","","1","14","","","","","","","","","",""
"","","","","","","","","","","","canvas-button-response","155","305140","0.0-155.0","5723","car","","","","","","","","","","","","","","perceptual","","","1","14","","","","","47","bridge","10","","0",""
"","","","","","","","","","","","canvas-button-response","156","305868","0.0-156.0","727","5","","","","","","","","","","","","","","confidence","","","1","14","","","","","","","","","","11"
"","","","","","","","","","","","html-keyboard-response","157","306870","0.0-157.0","null","null","","","","","","","","","","","","","","feedback","Sun Nov 02 2025 23:57:55 GMT-0500 (Eastern Standard Time)","27413","1","14","","","","","","","","","",""
"","","","","","","","","","","","preload","158","306870","0.0-158.0","","","","","true","","","","","","","","","","","preload","","","1","15","false","[]","[]","[]","","","","","",""
"","","","","","","","","","","","canvas-keyboard-response","159","307171","0.0-159.0","null","null","","","","","","","","","","","","","","fixation","","","1","15","","","","","","","","","",""
"","","","","","","","","","","","canvas-keyboard-response","160","307472","0.0-160.0","null","null","","","","","","","","","","","","","","stimulus","","","1","15","","","","","","","","","",""
"","","","","","","","","","","","canvas-button-response","161","308365","0.0-161.0","892","house","","","","","","","","","","","","","","perceptual","","","1","15","","","","","4","house","6","","1",""
"","","","","","","","","","","","canvas-button-response","162","308813","0.0-162.0","447","10","","","","","","","","","","","","","","confidence","","","1","15","","","","","","","","","","12"
"","","","","","","","","","","","html-keyboard-response","163","309814","0.0-163.0","null","null","","","","","","","","","","","","","","feedback","Sun Nov 02 2025 23:57:58 GMT-0500 (Eastern Standard Time)","27413","1","15","","","","","","","","","",""
"","","","","","","","","","","","preload","164","309814","0.0-164.0","","","","","true","","","","","","","","","","","preload","","","1","16","false","[]","[]","[]","","","","","",""
"","","","","","","","","","","","canvas-keyboard-response","165","310115","0.0-165.0","null","null","","","","","","","","","","","","","","fixation","","","1","16","","","","","","","","","",""
"","","","","","","","","","","","canvas-keyboard-response","166","310416","0.0-166.0","null","null","","","","","","","","","","","","","","stimulus","","","1","16","","","","","","","","","",""
"","","","","","","","","","","","canvas-button-response","167","311613","0.0-167.0","1196","flower","","","","","","","","","","","","","","perceptual","","","1","16","","","","","54","flower","6","","1",""
"","","","","","","","","","","","canvas-button-response","168","312125","0.0-168.0","511","10","","","","","","","","","","","","","","confidence","","","1","16","","","","","","","","","","13"
"","","","","","","","","","","","html-keyboard-response","169","313126","0.0-169.0","null","null","","","","","","","","","","","","","","feedback","Sun Nov 02 2025 23:58:01 GMT-0500 (Eastern Standard Time)","27413","1","16","","","","","","","","","",""
"","","","","","","","","","","","preload","170","313127","0.0-170.0","","","","","true","","","","","","","","","","","preload","","","1","17","false","[]","[]","[]","","","","","",""
"","","","","","","","","","","","canvas-keyboard-response","171","313428","0.0-171.0","null","null","","","","","","","","","","","","","","fixation","","","1","17","","","","","","","","","",""
"","","","","","","","","","","","canvas-keyboard-response","172","313728","0.0-172.0","null","null","","","","","","","","","","","","","","stimulus","","","1","17","","","","","","","","","",""
"","","","","","","","","","","","canvas-button-response","173","315478","0.0-173.0","1749","train","","","","","","","","","","","","","","perceptual","","","1","17","","","","","67","train","10","","1",""
"","","","","","","","","","","","canvas-button-response","174","315902","0.0-174.0","423","10","","","","","","","","","","","","","","confidence","","","1","17","","","","","","","","","","14"
"","","","","","","","","","","","html-keyboard-response","175","316904","0.0-175.0","null","null","","","","","","","","","","","","","","feedback","Sun Nov 02 2025 23:58:05 GMT-0500 (Eastern Standard Time)","27413","1","17","","","","","","","","","",""
"","","","","","","","","","","","preload","176","316904","0.0-176.0","","","","","true","","","","","","","","","","","preload","","","1","18","false","[]","[]","[]","","","","","",""
"","","","","","","","","","","","canvas-keyboard-response","177","317205","0.0-177.0","null","null","","","","","","","","","","","","","","fixation","","","1","18","","","","","","","","","",""
"","","","","","","","","","","","canvas-keyboard-response","178","317506","0.0-178.0","null","null","","","","","","","","","","","","","","stimulus","","","1","18","","","","","","","","","",""
"","","","","","","","","","","","canvas-button-response","179","318526","0.0-179.0","1019","phone","","","","","","","","","","","","","","perceptual","","","1","18","","","","","24","phone","6","","1",""
"","","","","","","","","","","","canvas-button-response","180","319078","0.0-180.0","551","10","","","","","","","","","","","","","","confidence","","","1","18","","","","","","","","","","15"
"","","","","","","","","","","","html-keyboard-response","181","320080","0.0-181.0","null","null","","","","","","","","","","","","","","feedback","Sun Nov 02 2025 23:58:08 GMT-0500 (Eastern Standard Time)","27413","1","18","","","","","","","","","",""
"","","","","","","","","","","","preload","182","320081","0.0-182.0","","","","","true","","","","","","","","","","","preload","","","1","19","false","[]","[]","[]","","","","","",""
"","","","","","","","","","","","canvas-keyboard-response","183","320382","0.0-183.0","null","null","","","","","","","","","","","","","","fixation","","","1","19","","","","","","","","","",""
"","","","","","","","","","","","canvas-keyboard-response","184","320683","0.0-184.0","null","null","","","","","","","","","","","","","","stimulus","","","1","19","","","","","","","","","",""
"","","","","","","","","","","","canvas-button-response","185","322527","0.0-185.0","1843","elephant","","","","","","","","","","","","","","perceptual","","","1","19","","","","","87","elephant","10","","1",""
"","","","","","","","","","","","canvas-button-response","186","323255","0.0-186.0","726","6","","","","","","","","","","","","","","confidence","","","1","19","","","","","","","","","","16"
"","","","","","","","","","","","html-keyboard-response","187","324256","0.0-187.0","null","null","","","","","","","","","","","","","","feedback","Sun Nov 02 2025 23:58:12 GMT-0500 (Eastern Standard Time)","27413","1","19","","","","","","","","","",""
"","","","","","","","","","","","html-button-response","188","350866","0.0-188.0","26609","0","","","","","","","","","","","","","","start experiment","Sun Nov 02 2025 23:58:13 GMT-0500 (Eastern Standard Time)","27413","1","19","","","","","","","","","",""
"","","","","","","","","","","","preload","189","350867","0.0-189.0","","","","","true","","","","","","","","","","","preload","","","2","0","false","[]","[]","[]","","","","","",""
"","","","","","","","","","","","canvas-keyboard-response","190","351167","0.0-190.0","null","null","","","","","","","","","","","","","","fixation","","","2","0","","","","","","","","","",""
"","","","","","","","","","","","canvas-keyboard-response","191","351469","0.0-191.0","null","null","","","","","","","","","","","","","","stimulus","","","2","0","","","","","","","","","",""
"","","","","","","","","","","","canvas-button-response","192","355995","0.0-192.0","4525","knife","","","","","","","","","","","","","","perceptual","","","2","0","","","","","291","cat","6","0","0",""
"","","","","","","","","","","","canvas-button-response","193","356483","0.0-193.0","487","5","","","","","","","","","","","","","","confidence","","","2","0","","","","","","","","","","0"
"","","","","","","","","","","","preload","194","356483","0.0-194.0","","","","","true","","","","","","","","","","","preload","","","2","1","false","[]","[]","[]","","","","","",""
"","","","","","","","","","","","canvas-keyboard-response","195","356784","0.0-195.0","null","null","","","","","","","","","","","","","","fixation","","","2","1","","","","","","","","","",""
"","","","","","","","","","","","canvas-keyboard-response","196","357085","0.0-196.0","null","null","","","","","","","","","","","","","","stimulus","","","2","1","","","","","","","","","",""
"","","","","","","","","","","","canvas-button-response","197","358507","0.0-197.0","1422","bridge","","","","","","","","","","","","","","perceptual","","","2","1","","","","","175","bridge","6","0","1",""
"","","","","","","","","","","","canvas-button-response","198","359291","0.0-198.0","783","10","","","","","","","","","","","","","","confidence","","","2","1","","","","","","","","","","1"
"","","","","","","","","","","","preload","199","359292","0.0-199.0","","","","","true","","","","","","","","","","","preload","","","2","2","false","[]","[]","[]","","","","","",""
"","","","","","","","","","","","canvas-keyboard-response","200","359592","0.0-200.0","null","null","","","","","","","","","","","","","","fixation","","","2","2","","","","","","","","","",""
"","","","","","","","","","","","canvas-keyboard-response","201","359894","0.0-201.0","null","null","","","","","","","","","","","","","","stimulus","","","2","2","","","","","","","","","",""
"","","","","","","","","","","","canvas-button-response","202","361196","0.0-202.0","1301","train","","","","","","","","","","","","","","perceptual","","","2","2","","","","","269","train","10","0","1",""
"","","","","","","","","","","","canvas-button-response","203","361652","0.0-203.0","455","10","","","","","","","","","","","","","","confidence","","","2","2","","","","","","","","","","2"
"","","","","","","","","","","","preload","204","361652","0.0-204.0","","","","","true","","","","","","","","","","","preload","","","2","3","false","[]","[]","[]","","","","","",""
"","","","","","","","","","","","canvas-keyboard-response","205","361953","0.0-205.0","null","null","","","","","","","","","","","","","","fixation","","","2","3","","","","","","","","","",""
"","","","","","","","","","","","canvas-keyboard-response","206","362254","0.0-206.0","null","null","","","","","","","","","","","","","","stimulus","","","2","3","","","","","","","","","",""
"","","","","","","","","","","","canvas-button-response","207","363148","0.0-207.0","892","train","","","","","","","","","","","","","","perceptual","","","2","3","","","","","255","train","6","0","1",""
"","","","","","","","","","","","canvas-button-response","208","363580","0.0-208.0","431","10","","","","","","","","","","","","","","confidence","","","2","3","","","","","","","","","","3"
"","","","","","","","","","","","preload","209","363580","0.0-209.0","","","","","true","","","","","","","","","","","preload","","","2","4","false","[]","[]","[]","","","","","",""
"","","","","","","","","","","","canvas-keyboard-response","210","363881","0.0-210.0","null","null","","","","","","","","","","","","","","fixation","","","2","4","","","","","","","","","",""
"","","","","","","","","","","","canvas-keyboard-response","211","364183","0.0-211.0","null","null","","","","","","","","","","","","","","stimulus","","","2","4","","","","","","","","","",""
"","","","","","","","","","","","canvas-button-response","212","369013","0.0-212.0","4829","bridge","","","","","","","","","","","","","","perceptual","","","2","4","","","","","292","cat","6","0","0",""
"","","","","","","","","","","","canvas-button-response","213","370101","0.0-213.0","1087","3","","","","","","","","","","","","","","confidence","","","2","4","","","","","","","","","","3"
"","","","","","","","","","","","preload","214","370101","0.0-214.0","","","","","true","","","","","","","","","","","preload","","","2","5","false","[]","[]","[]","","","","","",""
"","","","","","","","","","","","canvas-keyboard-response","215","370403","0.0-215.0","null","null","","","","","","","","","","","","","","fixation","","","2","5","","","","","","","","","",""
"","","","","","","","","","","","canvas-keyboard-response","216","370705","0.0-216.0","null","null","","","","","","","","","","","","","","stimulus","","","2","5","","","","","","","","","",""
"","","","","","","","","","","","canvas-button-response","217","371597","0.0-217.0","891","knife","","","","","","","","","","","","","","perceptual","","","2","5","","","","","380","knife","10","0","1",""
"","","","","","","","","","","","canvas-button-response","218","372461","0.0-218.0","863","10","","","","","","","","","","","","","","confidence","","","2","5","","","","","","","","","","4"
"","","","","","","","","","","","preload","219","372461","0.0-219.0","","","","","true","","","","","","","","","","","preload","","","2","6","false","[]","[]","[]","","","","","",""
"","","","","","","","","","","","canvas-keyboard-response","220","372763","0.0-220.0","null","null","","","","","","","","","","","","","","fixation","","","2","6","","","","","","","","","",""
"","","","","","","","","","","","canvas-keyboard-response","221","373065","0.0-221.0","null","null","","","","","","","","","","","","","","stimulus","","","2","6","","","","","","","","","",""
"","","","","","","","","","","","canvas-button-response","222","373853","0.0-222.0","788","knife","","","","","","","","","","","","","","perceptual","","","2","6","","","","","392","knife","10","0","1",""
"","","","","","","","","","","","canvas-button-response","223","374349","0.0-223.0","495","10","","","","","","","","","","","","","","confidence","","","2","6","","","","","","","","","","5"
"","","","","","","","","","","","preload","224","374350","0.0-224.0","","","","","true","","","","","","","","","","","preload","","","2","7","false","[]","[]","[]","","","","","",""
"","","","","","","","","","","","canvas-keyboard-response","225","374651","0.0-225.0","null","null","","","","","","","","","","","","","","fixation","","","2","7","","","","","","","","","",""
"","","","","","","","","","","","canvas-keyboard-response","226","374953","0.0-226.0","null","null","","","","","","","","","","","","","","stimulus","","","2","7","","","","","","","","","",""
"","","","","","","","","","","","canvas-button-response","227","379238","0.0-227.0","4284","phone","","","","","","","","","","","","","","perceptual","","","2","7","","","","","149","bed","10","0","0",""
"","","","","","","","","","","","canvas-button-response","228","380238","0.0-228.0","999","5","","","","","","","","","","","","","","confidence","","","2","7","","","","","","","","","","5"
"","","","","","","","","","","","preload","229","380238","0.0-229.0","","","","","true","","","","","","","","","","","preload","","","2","8","false","[]","[]","[]","","","","","",""
"","","","","","","","","","","","canvas-keyboard-response","230","380541","0.0-230.0","null","null","","","","","","","","","","","","","","fixation","","","2","8","","","","","","","","","",""
"","","","","","","","","","","","canvas-keyboard-response","231","380842","0.0-231.0","null","null","","","","","","","","","","","","","","stimulus","","","2","8","","","","","","","","","",""
"","","","","","","","","","","","canvas-button-response","232","382671","0.0-232.0","1828","knife","","","","","","","","","","","","","","perceptual","","","2","8","","","","","152","bed","10","0","0",""
"","","","","","","","","","","","canvas-button-response","233","383287","0.0-233.0","615","5","","","","","","","","","","","","","","confidence","","","2","8","","","","","","","","","","5"
"","","","","","","","","","","","preload","234","383287","0.0-234.0","","","","","true","","","","","","","","","","","preload","","","2","9","false","[]","[]","[]","","","","","",""
"","","","","","","","","","","","canvas-keyboard-response","235","383596","0.0-235.0","null","null","","","","","","","","","","","","","","fixation","","","2","9","","","","","","","","","",""
"","","","","","","","","","","","canvas-keyboard-response","236","383907","0.0-236.0","null","null","","","","","","","","","","","","","","stimulus","","","2","9","","","","","","","","","",""
"","","","","","","","","","","","canvas-button-response","237","384799","0.0-237.0","891","flower","","","","","","","","","","","","","","perceptual","","","2","9","","","","","226","flower","10","0","1",""
"","","","","","","","","","","","canvas-button-response","238","385255","0.0-238.0","455","10","","","","","","","","","","","","","","confidence","","","2","9","","","","","","","","","","6"
"","","","","","","","","","","","preload","239","385255","0.0-239.0","","","","","true","","","","","","","","","","","preload","","","2","10","false","[]","[]","[]","","","","","",""
"","","","","","","","","","","","canvas-keyboard-response","240","385557","0.0-240.0","null","null","","","","","","","","","","","","","","fixation","","","2","10","","","","","","","","","",""
"","","","","","","","","","","","canvas-keyboard-response","241","385858","0.0-241.0","null","null","","","","","","","","","","","","","","stimulus","","","2","10","","","","","","","","","",""
"","","","","","","","","","","","canvas-button-response","242","387079","0.0-242.0","1220","phone","","","","","","","","","","","","","","perceptual","","","2","10","","","","","96","phone","6","0","1",""
"","","","","","","","","","","","canvas-button-response","243","387431","0.0-243.0","351","10","","","","","","","","","","","","","","confidence","","","2","10","","","","","","","","","","7"
"","","","","","","","","","","","preload","244","387431","0.0-244.0","","","","","true","","","","","","","","","","","preload","","","2","11","false","[]","[]","[]","","","","","",""
"","","","","","","","","","","","canvas-keyboard-response","245","387733","0.0-245.0","null","null","","","","","","","","","","","","","","fixation","","","2","11","","","","","","","","","",""
"","","","","","","","","","","","canvas-keyboard-response","246","388035","0.0-246.0","null","null","","","","","","","","","","","","","","stimulus","","","2","11","","","","","","","","","",""
"","","","","","","","","","","","canvas-button-response","247","388919","0.0-247.0","883","house","","","","","","","","","","","","","","perceptual","","","2","11","","","","","17","house","6","0","1",""
"","","","","","","","","","","","canvas-button-response","248","389607","0.0-248.0","687","10","","","","","","","","","","","","","","confidence","","","2","11","","","","","","","","","","8"
"","","","","","","","","","","","preload","249","389608","0.0-249.0","","","","","true","","","","","","","","","","","preload","","","2","12","false","[]","[]","[]","","","","","",""
"","","","","","","","","","","","canvas-keyboard-response","250","389908","0.0-250.0","null","null","","","","","","","","","","","","","","fixation","","","2","12","","","","","","","","","",""
"","","","","","","","","","","","canvas-keyboard-response","251","390215","0.0-251.0","null","null","","","","","","","","","","","","","","stimulus","","","2","12","","","","","","","","","",""
"","","","","","","","","","","","canvas-button-response","252","390943","0.0-252.0","727","house","","","","","","","","","","","","","","perceptual","","","2","12","","","","","6","house","6","0","1",""
"","","","","","","","","","","","canvas-button-response","253","391415","0.0-253.0","471","10","","","","","","","","","","","","","","confidence","","","2","12","","","","","","","","","","9"
"","","","","","","","","","","","preload","254","391416","0.0-254.0","","","","","true","","","","","","","","","","","preload","","","2","13","false","[]","[]","[]","","","","","",""
"","","","","","","","","","","","canvas-keyboard-response","255","391717","0.0-255.0","null","null","","","","","","","","","","","","","","fixation","","","2","13","","","","","","","","","",""
"","","","","","","","","","","","canvas-keyboard-response","256","392018","0.0-256.0","null","null","","","","","","","","","","","","","","stimulus","","","2","13","","","","","","","","","",""
"","","","","","","","","","","","canvas-button-response","257","392904","0.0-257.0","885","knife","","","","","","","","","","","","","","perceptual","","","2","13","","","","","391","knife","10","0","1",""
"","","","","","","","","","","","canvas-button-response","258","393392","0.0-258.0","487","10","","","","","","","","","","","","","","confidence","","","2","13","","","","","","","","","","10"
"","","","","","","","","","","","preload","259","393392","0.0-259.0","","","","","true","","","","","","","","","","","preload","","","2","14","false","[]","[]","[]","","","","","",""
"","","","","","","","","","","","canvas-keyboard-response","260","393693","0.0-260.0","null","null","","","","","","","","","","","","","","fixation","","","2","14","","","","","","","","","",""
"","","","","","","","","","","","canvas-keyboard-response","261","393994","0.0-261.0","null","null","","","","","","","","","","","","","","stimulus","","","2","14","","","","","","","","","",""
"","","","","","","","","","","","canvas-button-response","262","394856","0.0-262.0","861","flower","","","","","","","","","","","","","","perceptual","","","2","14","","","","","221","flower","10","0","1",""
"","","","","","","","","","","","canvas-button-response","263","395480","0.0-263.0","623","10","","","","","","","","","","","","","","confidence","","","2","14","","","","","","","","","","11"
"","","","","","","","","","","","preload","264","395480","0.0-264.0","","","","","true","","","","","","","","","","","preload","","","2","15","false","[]","[]","[]","","","","","",""
"","","","","","","","","","","","canvas-keyboard-response","265","395782","0.0-265.0","null","null","","","","","","","","","","","","","","fixation","","","2","15","","","","","","","","","",""
"","","","","","","","","","","","canvas-keyboard-response","266","396088","0.0-266.0","null","null","","","","","","","","","","","","","","stimulus","","","2","15","","","","","","","","","",""
"","","","","","","","","","","","canvas-button-response","267","396824","0.0-267.0","736","knife","","","","","","","","","","","","","","perceptual","","","2","15","","","","","390","knife","10","0","1",""
"","","","","","","","","","","","canvas-button-response","268","397408","0.0-268.0","583","10","","","","","","","","","","","","","","confidence","","","2","15","","","","","","","","","","12"
"","","","","","","","","","","","preload","269","397409","0.0-269.0","","","","","true","","","","","","","","","","","preload","","","2","16","false","[]","[]","[]","","","","","",""
"","","","","","","","","","","","canvas-keyboard-response","270","397709","0.0-270.0","null","null","","","","","","","","","","","","","","fixation","","","2","16","","","","","","","","","",""
"","","","","","","","","","","","canvas-keyboard-response","271","398010","0.0-271.0","null","null","","","","","","","","","","","","","","stimulus","","","2","16","","","","","","","","","",""
"","","","","","","","","","","","canvas-button-response","272","398801","0.0-272.0","789","phone","","","","","","","","","","","","","","perceptual","","","2","16","","","","","88","phone","6","0","1",""
"","","","","","","","","","","","canvas-button-response","273","399217","0.0-273.0","415","10","","","","","","","","","","","","","","confidence","","","2","16","","","","","","","","","","13"
"","","","","","","","","","","","preload","274","399217","0.0-274.0","","","","","true","","","","","","","","","","","preload","","","2","17","false","[]","[]","[]","","","","","",""
"","","","","","","","","","","","canvas-keyboard-response","275","399533","0.0-275.0","null","null","","","","","","","","","","","","","","fixation","","","2","17","","","","","","","","","",""
"","","","","","","","","","","","canvas-keyboard-response","276","399834","0.0-276.0","null","null","","","","","","","","","","","","","","stimulus","","","2","17","","","","","","","","","",""
"","","","","","","","","","","","canvas-button-response","277","400561","0.0-277.0","726","phone","","","","","","","","","","","","","","perceptual","","","2","17","","","","","384","knife","10","0","0",""
"","","","","","","","","","","","canvas-button-response","278","401057","0.0-278.0","495","10","","","","","","","","","","","","","","confidence","","","2","17","","","","","","","","","","13"
"","","","","","","","","","","","preload","279","401057","0.0-279.0","","","","","true","","","","","","","","","","","preload","","","2","18","false","[]","[]","[]","","","","","",""
"","","","","","","","","","","","canvas-keyboard-response","280","401358","0.0-280.0","null","null","","","","","","","","","","","","","","fixation","","","2","18","","","","","","","","","",""
"","","","","","","","","","","","canvas-keyboard-response","281","401673","0.0-281.0","null","null","","","","","","","","","","","","","","stimulus","","","2","18","","","","","","","","","",""
"","","","","","","","","","","","canvas-button-response","282","402441","0.0-282.0","767","bridge","","","","","","","","","","","","","","perceptual","","","2","18","","","","","169","bridge","6","0","1",""
"","","","","","","","","","","","canvas-button-response","283","402929","0.0-283.0","487","10","","","","","","","","","","","","","","confidence","","","2","18","","","","","","","","","","14"
"","","","","","","","","","","","preload","284","402929","0.0-284.0","","","","","true","","","","","","","","","","","preload","","","2","19","false","[]","[]","[]","","","","","",""
"","","","","","","","","","","","canvas-keyboard-response","285","403231","0.0-285.0","null","null","","","","","","","","","","","","","","fixation","","","2","19","","","","","","","","","",""
"","","","","","","","","","","","canvas-keyboard-response","286","403532","0.0-286.0","null","null","","","","","","","","","","","","","","stimulus","","","2","19","","","","","","","","","",""
"","","","","","","","","","","","canvas-button-response","287","407066","0.0-287.0","3533","train","","","","","","","","","","","","","","perceptual","","","2","19","","","","","80","phone","6","0","0",""
"","","","","","","","","","","","canvas-button-response","288","407666","0.0-288.0","599","5","","","","","","","","","","","","","","confidence","","","2","19","","","","","","","","","","14"
"","","","","","","","","","","","preload","289","407666","0.0-289.0","","","","","true","","","","","","","","","","","preload","","","2","20","false","[]","[]","[]","","","","","",""
"","","","","","","","","","","","canvas-keyboard-response","290","407967","0.0-290.0","null","null","","","","","","","","","","","","","","fixation","","","2","20","","","","","","","","","",""
"","","","","","","","","","","","canvas-keyboard-response","291","408268","0.0-291.0","null","null","","","","","","","","","","","","","","stimulus","","","2","20","","","","","","","","","",""
"","","","","","","","","","","","canvas-button-response","292","409946","0.0-292.0","1677","cat","","","","","","","","","","","","","","perceptual","","","2","20","","","","","345","elephant","10","0","0",""
"","","","","","","","","","","","canvas-button-response","293","410450","0.0-293.0","503","5","","","","","","","","","","","","","","confidence","","","2","20","","","","","","","","","","14"
"","","","","","","","","","","","preload","294","410450","0.0-294.0","","","","","true","","","","","","","","","","","preload","","","2","21","false","[]","[]","[]","","","","","",""
"","","","","","","","","","","","canvas-keyboard-response","295","410752","0.0-295.0","null","null","","","","","","","","","","","","","","fixation","","","2","21","","","","","","","","","",""
"","","","","","","","","","","","canvas-keyboard-response","296","411063","0.0-296.0","null","null","","","","","","","","","","","","","","stimulus","","","2","21","","","","","","","","","",""
"","","","","","","","","","","","canvas-button-response","297","413250","0.0-297.0","2186","elephant","","","","","","","","","","","","","","perceptual","","","2","21","","","","","328","elephant","6","0","1",""
"","","","","","","","","","","","canvas-button-response","298","414387","0.0-298.0","1135","0","","","","","","","","","","","","","","confidence","","","2","21","","","","","","","","","","15"
"","","","","","","","","","","","preload","299","414387","0.0-299.0","","","","","true","","","","","","","","","","","preload","","","2","22","false","[]","[]","[]","","","","","",""
"","","","","","","","","","","","canvas-keyboard-response","300","414688","0.0-300.0","null","null","","","","","","","","","","","","","","fixation","","","2","22","","","","","","","","","",""
"","","","","","","","","","","","canvas-keyboard-response","301","414989","0.0-301.0","null","null","","","","","","","","","","","","","","stimulus","","","2","22","","","","","","","","","",""
"","","","","","","","","","","","canvas-button-response","302","416131","0.0-302.0","1141","house","","","","","","","","","","","","","","perceptual","","","2","22","","","","","19","house","6","0","1",""
"","","","","","","","","","","","canvas-button-response","303","416723","0.0-303.0","591","10","","","","","","","","","","","","","","confidence","","","2","22","","","","","","","","","","16"
"","","","","","","","","","","","preload","304","416723","0.0-304.0","","","","","true","","","","","","","","","","","preload","","","2","23","false","[]","[]","[]","","","","","",""
"","","","","","","","","","","","canvas-keyboard-response","305","417025","0.0-305.0","null","null","","","","","","","","","","","","","","fixation","","","2","23","","","","","","","","","",""
"","","","","","","","","","","","canvas-keyboard-response","306","417326","0.0-306.0","null","null","","","","","","","","","","","","","","stimulus","","","2","23","","","","","","","","","",""
"","","","","","","","","","","","canvas-button-response","307","418483","0.0-307.0","1156","bridge","","","","","","","","","","","","","","perceptual","","","2","23","","","","","177","bridge","6","0","1",""
"","","","","","","","","","","","canvas-button-response","308","419451","0.0-308.0","967","5","","","","","","","","","","","","","","confidence","","","2","23","","","","","","","","","","17"
"","","","","","","","","","","","preload","309","419451","0.0-309.0","","","","","true","","","","","","","","","","","preload","","","2","24","false","[]","[]","[]","","","","","",""
"","","","","","","","","","","","canvas-keyboard-response","310","419752","0.0-310.0","null","null","","","","","","","","","","","","","","fixation","","","2","24","","","","","","","","","",""
"","","","","","","","","","","","canvas-keyboard-response","311","420054","0.0-311.0","null","null","","","","","","","","","","","","","","stimulus","","","2","24","","","","","","","","","",""
"","","","","","","","","","","","canvas-button-response","312","423572","0.0-312.0","3517","bridge","","","","","","","","","","","","","","perceptual","","","2","24","","","","","318","cat","10","0","0",""
"","","","","","","","","","","","canvas-button-response","313","424172","0.0-313.0","599","3","","","","","","","","","","","","","","confidence","","","2","24","","","","","","","","","","17"
"","","","","","","","","","","","preload","314","424172","0.0-314.0","","","","","true","","","","","","","","","","","preload","","","2","25","false","[]","[]","[]","","","","","",""
"","","","","","","","","","","","canvas-keyboard-response","315","424473","0.0-315.0","null","null","","","","","","","","","","","","","","fixation","","","2","25","","","","","","","","","",""
"","","","","","","","","","","","canvas-keyboard-response","316","424774","0.0-316.0","null","null","","","","","","","","","","","","","","stimulus","","","2","25","","","","","","","","","",""
"","","","","","","","","","","","canvas-button-response","317","427708","0.0-317.0","2933","phone","","","","","","","","","","","","","","perceptual","","","2","25","","","","","375","knife","6","0","0",""
"","","","","","","","","","","","canvas-button-response","318","428493","0.0-318.0","784","10","","","","","","","","","","","","","","confidence","","","2","25","","","","","","","","","","17"
"","","","","","","","","","","","preload","319","428493","0.0-319.0","","","","","true","","","","","","","","","","","preload","","","2","26","false","[]","[]","[]","","","","","",""
"","","","","","","","","","","","canvas-keyboard-response","320","428794","0.0-320.0","null","null","","","","","","","","","","","","","","fixation","","","2","26","","","","","","","","","",""
"","","","","","","","","","","","canvas-keyboard-response","321","429095","0.0-321.0","null","null","","","","","","","","","","","","","","stimulus","","","2","26","","","","","","","","","",""
"","","","","","","","","","","","canvas-button-response","322","429964","0.0-322.0","868","flower","","","","","","","","","","","","","","perceptual","","","2","26","","","","","207","flower","6","0","1",""
"","","","","","","","","","","","canvas-button-response","323","430405","0.0-323.0","439","10","","","","","","","","","","","","","","confidence","","","2","26","","","","","","","","","","18"
"","","","","","","","","","","","preload","324","430405","0.0-324.0","","","","","true","","","","","","","","","","","preload","","","2","27","false","[]","[]","[]","","","","","",""
"","","","","","","","","","","","canvas-keyboard-response","325","430706","0.0-325.0","null","null","","","","","","","","","","","","","","fixation","","","2","27","","","","","","","","","",""
"","","","","","","","","","","","canvas-keyboard-response","326","431006","0.0-326.0","null","null","","","","","","","","","","","","","","stimulus","","","2","27","","","","","","","","","",""
"","","","","","","","","","","","canvas-button-response","327","432389","0.0-327.0","1382","house","","","","","","","","","","","","","","perceptual","","","2","27","","","","","0","house","6","0","1",""
"","","","","","","","","","","","canvas-button-response","328","432973","0.0-328.0","583","10","","","","","","","","","","","","","","confidence","","","2","27","","","","","","","","","","19"
"","","","","","","","","","","","preload","329","432973","0.0-329.0","","","","","true","","","","","","","","","","","preload","","","2","28","false","[]","[]","[]","","","","","",""
"","","","","","","","","","","","canvas-keyboard-response","330","433274","0.0-330.0","null","null","","","","","","","","","","","","","","fixation","","","2","28","","","","","","","","","",""
"","","","","","","","","","","","canvas-keyboard-response","331","433589","0.0-331.0","null","null","","","","","","","","","","","","","","stimulus","","","2","28","","","","","","","","","",""
"","","","","","","","","","","","canvas-button-response","332","434597","0.0-332.0","1007","cat","","","","","","","","","","","","","","perceptual","","","2","28","","","","","359","elephant","10","0","0",""
"","","","","","","","","","","","canvas-button-response","333","435261","0.0-333.0","663","10","","","","","","","","","","","","","","confidence","","","2","28","","","","","","","","","","19"
"","","","","","","","","","","","preload","334","435261","0.0-334.0","","","","","true","","","","","","","","","","","preload","","","2","29","false","[]","[]","[]","","","","","",""
"","","","","","","","","","","","canvas-keyboard-response","335","435563","0.0-335.0","null","null","","","","","","","","","","","","","","fixation","","","2","29","","","","","","","","","",""
"","","","","","","","","","","","canvas-keyboard-response","336","435865","0.0-336.0","null","null","","","","","","","","","","","","","","stimulus","","","2","29","","","","","","","","","",""
"","","","","","","","","","","","canvas-button-response","337","436909","0.0-337.0","1044","bed","","","","","","","","","","","","","","perceptual","","","2","29","","","","","131","bed","6","0","1",""
"","","","","","","","","","","","canvas-button-response","338","437381","0.0-338.0","471","10","","","","","","","","","","","","","","confidence","","","2","29","","","","","","","","","","20"
"","","","","","","","","","","","preload","339","437382","0.0-339.0","","","","","true","","","","","","","","","","","preload","","","2","30","false","[]","[]","[]","","","","","",""
"","","","","","","","","","","","canvas-keyboard-response","340","437683","0.0-340.0","null","null","","","","","","","","","","","","","","fixation","","","2","30","","","","","","","","","",""
"","","","","","","","","","","","canvas-keyboard-response","341","437984","0.0-341.0","null","null","","","","","","","","","","","","","","stimulus","","","2","30","","","","","","","","","",""
"","","","","","","","","","","","canvas-button-response","342","438894","0.0-342.0","909","phone","","","","","","","","","","","","","","perceptual","","","2","30","","","","","117","phone","10","0","1",""
"","","","","","","","","","","","canvas-button-response","343","439318","0.0-343.0","423","10","","","","","","","","","","","","","","confidence","","","2","30","","","","","","","","","","21"
"","","","","","","","","","","","preload","344","439318","0.0-344.0","","","","","true","","","","","","","","","","","preload","","","2","31","false","[]","[]","[]","","","","","",""
"","","","","","","","","","","","canvas-keyboard-response","345","439619","0.0-345.0","null","null","","","","","","","","","","","","","","fixation","","","2","31","","","","","","","","","",""
"","","","","","","","","","","","canvas-keyboard-response","346","439920","0.0-346.0","null","null","","","","","","","","","","","","","","stimulus","","","2","31","","","","","","","","","",""
"","","","","","","","","","","","canvas-button-response","347","442302","0.0-347.0","2381","bed","","","","","","","","","","","","","","perceptual","","","2","31","","","","","104","phone","10","0","0",""
"","","","","","","","","","","","canvas-button-response","348","443414","0.0-348.0","1111","7","","","","","","","","","","","","","","confidence","","","2","31","","","","","","","","","","21"
"","","","","","","","","","","","preload","349","443415","0.0-349.0","","","","","true","","","","","","","","","","","preload","","","2","32","false","[]","[]","[]","","","","","",""
"","","","","","","","","","","","canvas-keyboard-response","350","443715","0.0-350.0","null","null","","","","","","","","","","","","","","fixation","","","2","32","","","","","","","","","",""
"","","","","","","","","","","","canvas-keyboard-response","351","444017","0.0-351.0","null","null","","","","","","","","","","","","","","stimulus","","","2","32","","","","","","","","","",""
"","","","","","","","","","","","canvas-button-response","352","444854","0.0-352.0","837","phone","","","","","","","","","","","","","","perceptual","","","2","32","","","","","113","phone","10","0","1",""
"","","","","","","","","","","","canvas-button-response","353","445239","0.0-353.0","383","10","","","","","","","","","","","","","","confidence","","","2","32","","","","","","","","","","22"
"","","","","","","","","","","","preload","354","445239","0.0-354.0","","","","","true","","","","","","","","","","","preload","","","2","33","false","[]","[]","[]","","","","","",""
"","","","","","","","","","","","canvas-keyboard-response","355","445540","0.0-355.0","null","null","","","","","","","","","","","","","","fixation","","","2","33","","","","","","","","","",""
"","","","","","","","","","","","canvas-keyboard-response","356","445841","0.0-356.0","null","null","","","","","","","","","","","","","","stimulus","","","2","33","","","","","","","","","",""
"","","","","","","","","","","","canvas-button-response","357","447967","0.0-357.0","2125","house","","","","","","","","","","","","","","perceptual","","","2","33","","","","","13","house","6","0","1",""
"","","","","","","","","","","","canvas-button-response","358","448583","0.0-358.0","615","4","","","","","","","","","","","","","","confidence","","","2","33","","","","","","","","","","23"
"","","","","","","","","","","","preload","359","448583","0.0-359.0","","","","","true","","","","","","","","","","","preload","","","2","34","false","[]","[]","[]","","","","","",""
"","","","","","","","","","","","canvas-keyboard-response","360","448884","0.0-360.0","null","null","","","","","","","","","","","","","","fixation","","","2","34","","","","","","","","","",""
"","","","","","","","","","","","canvas-keyboard-response","361","449186","0.0-361.0","null","null","","","","","","","","","","","","","","stimulus","","","2","34","","","","","","","","","",""
"","","","","","","","","","","","canvas-button-response","362","450719","0.0-362.0","1533","flower","","","","","","","","","","","","","","perceptual","","","2","34","","","","","309","cat","10","0","0",""
"","","","","","","","","","","","canvas-button-response","363","451247","0.0-363.0","527","4","","","","","","","","","","","","","","confidence","","","2","34","","","","","","","","","","23"
"","","","","","","","","","","","preload","364","451248","0.0-364.0","","","","","true","","","","","","","","","","","preload","","","2","35","false","[]","[]","[]","","","","","",""
"","","","","","","","","","","","canvas-keyboard-response","365","451548","0.0-365.0","null","null","","","","","","","","","","","","","","fixation","","","2","35","","","","","","","","","",""
"","","","","","","","","","","","canvas-keyboard-response","366","451850","0.0-366.0","null","null","","","","","","","","","","","","","","stimulus","","","2","35","","","","","","","","","",""
"","","","","","","","","","","","canvas-button-response","367","452519","0.0-367.0","668","cat","","","","","","","","","","","","","","perceptual","","","2","35","","","","","285","cat","6","0","1",""
"","","","","","","","","","","","canvas-button-response","368","453023","0.0-368.0","503","10","","","","","","","","","","","","","","confidence","","","2","35","","","","","","","","","","24"
"","","","","","","","","","","","preload","369","453024","0.0-369.0","","","","","true","","","","","","","","","","","preload","","","2","36","false","[]","[]","[]","","","","","",""
"","","","","","","","","","","","canvas-keyboard-response","370","453325","0.0-370.0","null","null","","","","","","","","","","","","","","fixation","","","2","36","","","","","","","","","",""
"","","","","","","","","","","","canvas-keyboard-response","371","453626","0.0-371.0","null","null","","","","","","","","","","","","","","stimulus","","","2","36","","","","","","","","","",""
"","","","","","","","","","","","canvas-button-response","372","454440","0.0-372.0","813","knife","","","","","","","","","","","","","","perceptual","","","2","36","","","","","360","knife","6","0","1",""
"","","","","","","","","","","","canvas-button-response","373","455056","0.0-373.0","615","10","","","","","","","","","","","","","","confidence","","","2","36","","","","","","","","","","25"
"","","","","","","","","","","","preload","374","455056","0.0-374.0","","","","","true","","","","","","","","","","","preload","","","2","37","false","[]","[]","[]","","","","","",""
"","","","","","","","","","","","canvas-keyboard-response","375","455357","0.0-375.0","null","null","","","","","","","","","","","","","","fixation","","","2","37","","","","","","","","","",""
"","","","","","","","","","","","canvas-keyboard-response","376","455659","0.0-376.0","null","null","","","","","","","","","","","","","","stimulus","","","2","37","","","","","","","","","",""
"","","","","","","","","","","","canvas-button-response","377","461200","0.0-377.0","5541","knife","","","","","","","","","","","","","","perceptual","","","2","37","","","","","398","knife","10","0","1",""
"","","","","","","","","","","","canvas-button-response","378","461704","0.0-378.0","503","0","","","","","","","","","","","","","","confidence","","","2","37","","","","","","","","","","26"
"","","","","","","","","","","","preload","379","461705","0.0-379.0","","","","","true","","","","","","","","","","","preload","","","2","38","false","[]","[]","[]","","","","","",""
"","","","","","","","","","","","canvas-keyboard-response","380","462006","0.0-380.0","null","null","","","","","","","","","","","","","","fixation","","","2","38","","","","","","","","","",""
"","","","","","","","","","","","canvas-keyboard-response","381","462307","0.0-381.0","null","null","","","","","","","","","","","","","","stimulus","","","2","38","","","","","","","","","",""
"","","","","","","","","","","","canvas-button-response","382","463257","0.0-382.0","949","knife","","","","","","","","","","","","","","perceptual","","","2","38","","","","","387","knife","10","0","1",""
"","","","","","","","","","","","canvas-button-response","383","463745","0.0-383.0","487","10","","","","","","","","","","","","","","confidence","","","2","38","","","","","","","","","","27"
"","","","","","","","","","","","preload","384","463745","0.0-384.0","","","","","true","","","","","","","","","","","preload","","","2","39","false","[]","[]","[]","","","","","",""
"","","","","","","","","","","","canvas-keyboard-response","385","464047","0.0-385.0","null","null","","","","","","","","","","","","","","fixation","","","2","39","","","","","","","","","",""
"","","","","","","","","","","","canvas-keyboard-response","386","464348","0.0-386.0","null","null","","","","","","","","","","","","","","stimulus","","","2","39","","","","","","","","","",""
"","","","","","","","","","","","canvas-button-response","387","465193","0.0-387.0","844","knife","","","","","","","","","","","","","","perceptual","","","2","39","","","","","381","knife","10","0","1",""
"","","","","","","","","","","","canvas-button-response","388","465681","0.0-388.0","487","10","","","","","","","","","","","","","","confidence","","","2","39","","","","","","","","","","28"
"","","","","","","","","","","","preload","389","465682","0.0-389.0","","","","","true","","","","","","","","","","","preload","","","2","40","false","[]","[]","[]","","","","","",""
"","","","","","","","","","","","canvas-keyboard-response","390","465983","0.0-390.0","null","null","","","","","","","","","","","","","","fixation","","","2","40","","","","","","","","","",""
"","","","","","","","","","","","canvas-keyboard-response","391","466284","0.0-391.0","null","null","","","","","","","","","","","","","","stimulus","","","2","40","","","","","","","","","",""
"","","","","","","","","","","","canvas-button-response","392","468553","0.0-392.0","2269","elephant","","","","","","","","","","","","","","perceptual","","","2","40","","","","","331","elephant","6","0","1",""
"","","","","","","","","","","","canvas-button-response","393","469050","0.0-393.0","495","10","","","","","","","","","","","","","","confidence","","","2","40","","","","","","","","","","29"
"","","","","","","","","","","","preload","394","469050","0.0-394.0","","","","","true","","","","","","","","","","","preload","","","2","41","false","[]","[]","[]","","","","","",""
"","","","","","","","","","","","canvas-keyboard-response","395","469351","0.0-395.0","null","null","","","","","","","","","","","","","","fixation","","","2","41","","","","","","","","","",""
"","","","","","","","","","","","canvas-keyboard-response","396","469652","0.0-396.0","null","null","","","","","","","","","","","","","","stimulus","","","2","41","","","","","","","","","",""
"","","","","","","","","","","","canvas-button-response","397","473954","0.0-397.0","4301","house","","","","","","","","","","","","","","perceptual","","","2","41","","","","","143","bed","10","0","0",""
"","","","","","","","","","","","canvas-button-response","398","474658","0.0-398.0","703","3","","","","","","","","","","","","","","confidence","","","2","41","","","","","","","","","","29"
"","","","","","","","","","","","preload","399","474659","0.0-399.0","","","","","true","","","","","","","","","","","preload","","","2","42","false","[]","[]","[]","","","","","",""
"","","","","","","","","","","","canvas-keyboard-response","400","474959","0.0-400.0","null","null","","","","","","","","","","","","","","fixation","","","2","42","","","","","","","","","",""
"","","","","","","","","","","","canvas-keyboard-response","401","475260","0.0-401.0","null","null","","","","","","","","","","","","","","stimulus","","","2","42","","","","","","","","","",""
"","","","","","","","","","","","canvas-button-response","402","476443","0.0-402.0","1181","train","","","","","","","","","","","","","","perceptual","","","2","42","","","","","274","train","10","0","1",""
"","","","","","","","","","","","canvas-button-response","403","477163","0.0-403.0","719","10","","","","","","","","","","","","","","confidence","","","2","42","","","","","","","","","","30"
"","","","","","","","","","","","preload","404","477163","0.0-404.0","","","","","true","","","","","","","","","","","preload","","","2","43","false","[]","[]","[]","","","","","",""
"","","","","","","","","","","","canvas-keyboard-response","405","477465","0.0-405.0","null","null","","","","","","","","","","","","","","fixation","","","2","43","","","","","","","","","",""
"","","","","","","","","","","","canvas-keyboard-response","406","477765","0.0-406.0","null","null","","","","","","","","","","","","","","stimulus","","","2","43","","","","","","","","","",""
"","","","","","","","","","","","canvas-button-response","407","479139","0.0-407.0","1373","car","","","","","","","","","","","","","","perceptual","","","2","43","","","","","54","car","6","0","1",""
"","","","","","","","","","","","canvas-button-response","408","479555","0.0-408.0","415","10","","","","","","","","","","","","","","confidence","","","2","43","","","","","","","","","","31"
"","","","","","","","","","","","preload","409","479555","0.0-409.0","","","","","true","","","","","","","","","","","preload","","","2","44","false","[]","[]","[]","","","","","",""
"","","","","","","","","","","","canvas-keyboard-response","410","479856","0.0-410.0","null","null","","","","","","","","","","","","","","fixation","","","2","44","","","","","","","","","",""
"","","","","","","","","","","","canvas-keyboard-response","411","480157","0.0-411.0","null","null","","","","","","","","","","","","","","stimulus","","","2","44","","","","","","","","","",""
"","","","","","","","","","","","canvas-button-response","412","480771","0.0-412.0","613","car","","","","","","","","","","","","","","perceptual","","","2","44","","","","","60","car","10","0","1",""
"","","","","","","","","","","","canvas-button-response","413","481379","0.0-413.0","607","10","","","","","","","","","","","","","","confidence","","","2","44","","","","","","","","","","32"
"","","","","","","","","","","","preload","414","481379","0.0-414.0","","","","","true","","","","","","","","","","","preload","","","2","45","false","[]","[]","[]","","","","","",""
"","","","","","","","","","","","canvas-keyboard-response","415","481681","0.0-415.0","null","null","","","","","","","","","","","","","","fixation","","","2","45","","","","","","","","","",""
"","","","","","","","","","","","canvas-keyboard-response","416","481983","0.0-416.0","null","null","","","","","","","","","","","","","","stimulus","","","2","45","","","","","","","","","",""
"","","","","","","","","","","","canvas-button-response","417","484461","0.0-417.0","2477","bed","","","","","","","","","","","","","","perceptual","","","2","45","","","","","332","elephant","6","0","0",""
"","","","","","","","","","","","canvas-button-response","418","485460","0.0-418.0","998","6","","","","","","","","","","","","","","confidence","","","2","45","","","","","","","","","","32"
"","","","","","","","","","","","preload","419","485460","0.0-419.0","","","","","true","","","","","","","","","","","preload","","","2","46","false","[]","[]","[]","","","","","",""
"","","","","","","","","","","","canvas-keyboard-response","420","485761","0.0-420.0","null","null","","","","","","","","","","","","","","fixation","","","2","46","","","","","","","","","",""
"","","","","","","","","","","","canvas-keyboard-response","421","486063","0.0-421.0","null","null","","","","","","","","","","","","","","stimulus","","","2","46","","","","","","","","","",""
"","","","","","","","","","","","canvas-button-response","422","487204","0.0-422.0","1140","flower","","","","","","","","","","","","","","perceptual","","","2","46","","","","","38","house","10","0","0",""
"","","","","","","","","","","","canvas-button-response","423","488020","0.0-423.0","815","6","","","","","","","","","","","","","","confidence","","","2","46","","","","","","","","","","32"
"","","","","","","","","","","","preload","424","488020","0.0-424.0","","","","","true","","","","","","","","","","","preload","","","2","47","false","[]","[]","[]","","","","","",""
"","","","","","","","","","","","canvas-keyboard-response","425","488321","0.0-425.0","null","null","","","","","","","","","","","","","","fixation","","","2","47","","","","","","","","","",""
"","","","","","","","","","","","canvas-keyboard-response","426","488623","0.0-426.0","null","null","","","","","","","","","","","","","","stimulus","","","2","47","","","","","","","","","",""
"","","","","","","","","","","","canvas-button-response","427","489380","0.0-427.0","756","cat","","","","","","","","","","","","","","perceptual","","","2","47","","","","","303","cat","10","0","1",""
"","","","","","","","","","","","canvas-button-response","428","489852","0.0-428.0","471","10","","","","","","","","","","","","","","confidence","","","2","47","","","","","","","","","","33"
"","","","","","","","","","","","preload","429","489853","0.0-429.0","","","","","true","","","","","","","","","","","preload","","","2","48","false","[]","[]","[]","","","","","",""
"","","","","","","","","","","","canvas-keyboard-response","430","490155","0.0-430.0","null","null","","","","","","","","","","","","","","fixation","","","2","48","","","","","","","","","",""
"","","","","","","","","","","","canvas-keyboard-response","431","490456","0.0-431.0","null","null","","","","","","","","","","","","","","stimulus","","","2","48","","","","","","","","","",""
"","","","","","","","","","","","canvas-button-response","432","491381","0.0-432.0","924","flower","","","","","","","","","","","","","","perceptual","","","2","48","","","","","206","flower","6","0","1",""
"","","","","","","","","","","","canvas-button-response","433","491852","0.0-433.0","471","10","","","","","","","","","","","","","","confidence","","","2","48","","","","","","","","","","34"
"","","","","","","","","","","","preload","434","491853","0.0-434.0","","","","","true","","","","","","","","","","","preload","","","2","49","false","[]","[]","[]","","","","","",""
"","","","","","","","","","","","canvas-keyboard-response","435","492155","0.0-435.0","null","null","","","","","","","","","","","","","","fixation","","","2","49","","","","","","","","","",""
"","","","","","","","","","","","canvas-keyboard-response","436","492456","0.0-436.0","null","null","","","","","","","","","","","","","","stimulus","","","2","49","","","","","","","","","",""
"","","","","","","","","","","","canvas-button-response","437","495845","0.0-437.0","3388","cat","","","","","","","","","","","","","","perceptual","","","2","49","","","","","150","bed","10","0","0",""
"","","","","","","","","","","","canvas-button-response","438","496717","0.0-438.0","871","3","","","","","","","","","","","","","","confidence","","","2","49","","","","","","","","","","34"
"","","","","","","","","","","","html-button-response","439","521928","0.0-439.0","25210","0","","","","","","","","","","","","","","<p style=""font-size:20px;color:#000000"">You got 34 out of 50 trials correct in this block.<br><br>You have completed 6% of the experiment.<br><br>Take a short break.<br><br>When you are ready, click Continue to proceed.","","","2","49","","","","","","","","","",""
"","","","","","","","","","","","html-keyboard-response","440","522929","0.0-440.0","null","null","","","","","","","","","","","","","","<p style=""font-size:32px;color:#000000""><br><br> RUN: &nbsp 1/4 <br><br> BLOCK: 2/4 ","","","2","49","","","","","","","","","",""
"","","","","","","","","","","","preload","441","522930","0.0-441.0","","","","","true","","","","","","","","","","","preload","","","2","50","false","[]","[]","[]","","","","","",""
"","","","","","","","","","","","canvas-keyboard-response","442","523231","0.0-442.0","null","null","","","","","","","","","","","","","","fixation","","","2","50","","","","","","","","","",""
"","","","","","","","","","","","canvas-keyboard-response","443","523532","0.0-443.0","null","null","","","","","","","","","","","","","","stimulus","","","2","50","","","","","","","","","",""
"","","","","","","","","","","","canvas-button-response","444","524481","0.0-444.0","948","knife","","","","","","","","","","","","","","perceptual","","","2","50","","","","","378","knife","6","0","1",""
"","","","","","","","","","","","canvas-button-response","445","524945","0.0-445.0","463","10","","","","","","","","","","","","","","confidence","","","2","50","","","","","","","","","","1"
"","","","","","","","","","","","preload","446","524945","0.0-446.0","","","","","true","","","","","","","","","","","preload","","","2","51","false","[]","[]","[]","","","","","",""
"","","","","","","","","","","","canvas-keyboard-response","447","525246","0.0-447.0","null","null","","","","","","","","","","","","","","fixation","","","2","51","","","","","","","","","",""
"","","","","","","","","","","","canvas-keyboard-response","448","525547","0.0-448.0","null","null","","","","","","","","","","","","","","stimulus","","","2","51","","","","","","","","","",""
"","","","","","","","","","","","canvas-button-response","449","527674","0.0-449.0","2126","phone","","","","","","","","","","","","","","perceptual","","","2","51","","","","","100","phone","10","0","1",""
"","","","","","","","","","","","canvas-button-response","450","528097","0.0-450.0","423","10","","","","","","","","","","","","","","confidence","","","2","51","","","","","","","","","","2"
"","","","","","","","","","","","preload","451","528097","0.0-451.0","","","","","true","","","","","","","","","","","preload","","","2","52","false","[]","[]","[]","","","","","",""
"","","","","","","","","","","","canvas-keyboard-response","452","528399","0.0-452.0","null","null","","","","","","","","","","","","","","fixation","","","2","52","","","","","","","","","",""
"","","","","","","","","","","","canvas-keyboard-response","453","528701","0.0-453.0","null","null","","","","","","","","","","","","","","stimulus","","","2","52","","","","","","","","","",""
"","","","","","","","","","","","canvas-button-response","454","529585","0.0-454.0","883","car","","","","","","","","","","","","","","perceptual","","","2","52","","","","","62","car","10","0","1",""
"","","","","","","","","","","","canvas-button-response","455","530057","0.0-455.0","471","10","","","","","","","","","","","","","","confidence","","","2","52","","","","","","","","","","3"
"","","","","","","","","","","","preload","456","530058","0.0-456.0","","","","","true","","","","","","","","","","","preload","","","2","53","false","[]","[]","[]","","","","","",""
"","","","","","","","","","","","canvas-keyboard-response","457","530359","0.0-457.0","null","null","","","","","","","","","","","","","","fixation","","","2","53","","","","","","","","","",""
"","","","","","","","","","","","canvas-keyboard-response","458","530661","0.0-458.0","null","null","","","","","","","","","","","","","","stimulus","","","2","53","","","","","","","","","",""
"","","","","","","","","","","","canvas-button-response","459","531658","0.0-459.0","996","elephant","","","","","","","","","","","","","","perceptual","","","2","53","","","","","229","flower","10","0","0",""
"","","","","","","","","","","","canvas-button-response","460","532954","0.0-460.0","1296","8","","","","","","","","","","","","","","confidence","","","2","53","","","","","","","","","","3"
"","","","","","","","","","","","preload","461","532955","0.0-461.0","","","","","true","","","","","","","","","","","preload","","","2","54","false","[]","[]","[]","","","","","",""
"","","","","","","","","","","","canvas-keyboard-response","462","533262","0.0-462.0","null","null","","","","","","","","","","","","","","fixation","","","2","54","","","","","","","","","",""
"","","","","","","","","","","","canvas-keyboard-response","463","533563","0.0-463.0","null","null","","","","","","","","","","","","","","stimulus","","","2","54","","","","","","","","","",""
"","","","","","","","","","","","canvas-button-response","464","534378","0.0-464.0","814","house","","","","","","","","","","","","","","perceptual","","","2","54","","","","","11","house","6","0","1",""
"","","","","","","","","","","","canvas-button-response","465","534794","0.0-465.0","415","10","","","","","","","","","","","","","","confidence","","","2","54","","","","","","","","","","4"
"","","","","","","","","","","","preload","466","534794","0.0-466.0","","","","","true","","","","","","","","","","","preload","","","2","55","false","[]","[]","[]","","","","","",""
"","","","","","","","","","","","canvas-keyboard-response","467","535096","0.0-467.0","null","null","","","","","","","","","","","","","","fixation","","","2","55","","","","","","","","","",""
"","","","","","","","","","","","canvas-keyboard-response","468","535397","0.0-468.0","null","null","","","","","","","","","","","","","","stimulus","","","2","55","","","","","","","","","",""
"","","","","","","","","","","","canvas-button-response","469","536370","0.0-469.0","972","phone","","","","","","","","","","","","","","perceptual","","","2","55","","","","","281","cat","6","0","0",""
"","","","","","","","","","","","canvas-button-response","470","536810","0.0-470.0","439","10","","","","","","","","","","","","","","confidence","","","2","55","","","","","","","","","","4"
"","","","","","","","","","","","preload","471","536811","0.0-471.0","","","","","true","","","","","","","","","","","preload","","","2","56","false","[]","[]","[]","","","","","",""
"","","","","","","","","","","","canvas-keyboard-response","472","537112","0.0-472.0","null","null","","","","","","","","","","","","","","fixation","","","2","56","","","","","","","","","",""
"","","","","","","","","","","","canvas-keyboard-response","473","537414","0.0-473.0","null","null","","","","","","","","","","","","","","stimulus","","","2","56","","","","","","","","","",""
"","","","","","","","","","","","canvas-button-response","474","538539","0.0-474.0","1124","train","","","","","","","","","","","","","","perceptual","","","2","56","","","","","267","train","10","0","1",""
"","","","","","","","","","","","canvas-button-response","475","538923","0.0-475.0","383","10","","","","","","","","","","","","","","confidence","","","2","56","","","","","","","","","","5"
"","","","","","","","","","","","preload","476","538923","0.0-476.0","","","","","true","","","","","","","","","","","preload","","","2","57","false","[]","[]","[]","","","","","",""
"","","","","","","","","","","","canvas-keyboard-response","477","539224","0.0-477.0","null","null","","","","","","","","","","","","","","fixation","","","2","57","","","","","","","","","",""
"","","","","","","","","","","","canvas-keyboard-response","478","539524","0.0-478.0","null","null","","","","","","","","","","","","","","stimulus","","","2","57","","","","","","","","","",""
"","","","","","","","","","","","canvas-button-response","479","540267","0.0-479.0","742","train","","","","","","","","","","","","","","perceptual","","","2","57","","","","","265","train","10","0","1",""
"","","","","","","","","","","","canvas-button-response","480","540635","0.0-480.0","367","10","","","","","","","","","","","","","","confidence","","","2","57","","","","","","","","","","6"
"","","","","","","","","","","","preload","481","540635","0.0-481.0","","","","","true","","","","","","","","","","","preload","","","2","58","false","[]","[]","[]","","","","","",""
"","","","","","","","","","","","canvas-keyboard-response","482","540936","0.0-482.0","null","null","","","","","","","","","","","","","","fixation","","","2","58","","","","","","","","","",""
"","","","","","","","","","","","canvas-keyboard-response","483","541237","0.0-483.0","null","null","","","","","","","","","","","","","","stimulus","","","2","58","","","","","","","","","",""
"","","","","","","","","","","","canvas-button-response","484","542747","0.0-484.0","1509","cat","","","","","","","","","","","","","","perceptual","","","2","58","","","","","280","cat","6","0","1",""
"","","","","","","","","","","","canvas-button-response","485","543299","0.0-485.0","551","6","","","","","","","","","","","","","","confidence","","","2","58","","","","","","","","","","7"
"","","","","","","","","","","","preload","486","543299","0.0-486.0","","","","","true","","","","","","","","","","","preload","","","2","59","false","[]","[]","[]","","","","","",""
"","","","","","","","","","","","canvas-keyboard-response","487","543601","0.0-487.0","null","null","","","","","","","","","","","","","","fixation","","","2","59","","","","","","","","","",""
"","","","","","","","","","","","canvas-keyboard-response","488","543902","0.0-488.0","null","null","","","","","","","","","","","","","","stimulus","","","2","59","","","","","","","","","",""
"","","","","","","","","","","","canvas-button-response","489","544691","0.0-489.0","788","flower","","","","","","","","","","","","","","perceptual","","","2","59","","","","","202","flower","6","0","1",""
"","","","","","","","","","","","canvas-button-response","490","545171","0.0-490.0","479","10","","","","","","","","","","","","","","confidence","","","2","59","","","","","","","","","","8"
"","","","","","","","","","","","preload","491","545172","0.0-491.0","","","","","true","","","","","","","","","","","preload","","","2","60","false","[]","[]","[]","","","","","",""
"","","","","","","","","","","","canvas-keyboard-response","492","545473","0.0-492.0","null","null","","","","","","","","","","","","","","fixation","","","2","60","","","","","","","","","",""
