"width","height","webaudio","browser","browser_version","mobile","os","fullscreen","vsync_rate","webcam","microphone","trial_type","trial_index","time_elapsed","internal_node_id","rt","response","accuracy","view_history","success","item_width_mm","item_height_mm","item_width_px","px2mm","view_dist_mm","item_width_deg","px2deg","scale_factor","win_width_deg","win_height_deg","stimulus","datetime","subjectID","curr_triallist","trial_no","timeout","failed_images","failed_audio","failed_video","image_index","category","blur","reps","correct","running_score"
"1508","807","true","chrome","141.0.0","false","Mac OS","true","121.75","true","true","browser-check","0","499","0.0-0.0","","","","","","","","","","","","","","","","","","","","","","","","","","","","","",""
"","","","","","","","","","","","survey","1","17475","0.0-1.0","16942","{""P0_Q0"":""903977010"",""P0_Q1"":""19"",""P1_Q0"":""Female"",""P1_Q1"":""Not Hispanic or Latino"",""P1_Q2"":""White"",""P1_Q3"":""Corrected-to-Normal (using glasses/contacts)"",""P1_Q4"":""Left-Handed""}","[]","","","","","","","","","","","","","","","","","","","","","","","","","","",""
"","","","","","","","","","","","instructions","2","50280","0.0-2.0","32804","","","[{""page_index"":0,""viewing_time"":2672},{""page_index"":1,""viewing_time"":6507},{""page_index"":2,""viewing_time"":17792},{""page_index"":3,""viewing_time"":5833}]","","","","","","","","","","","","","","","","","","","","","","","","","",""
"","","","","","","","","","","","fullscreen","3","52890","0.0-3.0","1607","","","","true","","","","","","","","","","","","","","","","","","","","","","","","",""
"","","","","","","","","","","","virtual-chinrest","4","111009","0.0-4.0","58116","","","","","85.6","53.98","274.2005143449364","3.2011616651118753","535.46","9.140017144831212","30","1.5463136566790687","50.4","31.5","","","","","","","","","","","","","","",""
"","","","","","","","","","","","instructions","5","167797","0.0-5.0","56786","","","[{""page_index"":0,""viewing_time"":5853},{""page_index"":1,""viewing_time"":3583},{""page_index"":2,""viewing_time"":6317},{""page_index"":3,""viewing_time"":3600},{""page_index"":4,""viewing_time"":7850},{""page_index"":5,""viewing_time"":26417},{""page_index"":6,""viewing_time"":3167}]","","","","","","","","","","","","","","","","","","","","","","","","","",""
"","","","","","","","","","","","html-button-response","6","169214","0.0-6.0","1414","0","","","","","","","","","","","","","","start_practice","Fri Oct 17 2025 12:21:38 GMT-0400 (Eastern Daylight Time)","26913","","","","","","","","","","","",""
"","","","","","","","","","","","preload","7","169216","0.0-7.0","","","","","true","","","","","","","","","","","preload","","","0","0","false","[]","[]","[]","","","","","",""
"","","","","","","","","","","","canvas-keyboard-response","8","169521","0.0-8.0","null","null","","","","","","","","","","","","","","fixation","","","0","0","","","","","","","","","",""
"","","","","","","","","","","","canvas-keyboard-response","9","169825","0.0-9.0","null","null","","","","","","","","","","","","","","stimulus","","","0","0","","","","","","","","","",""
"","","","","","","","","","","","canvas-button-response","10","172046","0.0-10.0","2219","flower","","","","","","","","","","","","","","perceptual","","","0","0","","","","","52","flower","1","","1",""
"","","","","","","","","","","","canvas-button-response","11","173564","0.0-11.0","1516","7","","","","","","","","","","","","","","confidence","","","0","0","","","","","","","","","","1"
"","","","","","","","","","","","html-keyboard-response","12","174568","0.0-12.0","null","null","","","","","","","","","","","","","","feedback","Fri Oct 17 2025 12:21:43 GMT-0400 (Eastern Daylight Time)","26913","0","0","","","","","","","","","",""
"","","","","","","","","","","","preload","13","174570","0.0-13.0","","","","","true","","","","","","","","","","","preload","","","0","1","false","[]","[]","[]","","","","","",""
"","","","","","","","","","","","canvas-keyboard-response","14","174873","0.0-14.0","null","null","","","","","","","","","","","","","","fixation","","","0","1","","","","","","","","","",""
"","","","","","","","","","","","canvas-keyboard-response","15","175176","0.0-15.0","null","null","","","","","","","","","","","","","","stimulus","","","0","1","","","","","","","","","",""
"","","","","","","","","","","","canvas-button-response","16","176631","0.0-16.0","1452","house","","","","","","","","","","","","","","perceptual","","","0","1","","","","","2","house","1","","1",""
"","","","","","","","","","","","canvas-button-response","17","177248","0.0-17.0","614","10","","","","","","","","","","","","","","confidence","","","0","1","","","","","","","","","","2"
"","","","","","","","","","","","html-keyboard-response","18","178251","0.0-18.0","null","null","","","","","","","","","","","","","","feedback","Fri Oct 17 2025 12:21:47 GMT-0400 (Eastern Daylight Time)","26913","0","1","","","","","","","","","",""
"","","","","","","","","","","","preload","19","178252","0.0-19.0","","","","","true","","","","","","","","","","","preload","","","0","2","false","[]","[]","[]","","","","","",""
"","","","","","","","","","","","canvas-keyboard-response","20","178555","0.0-20.0","null","null","","","","","","","","","","","","","","fixation","","","0","2","","","","","","","","","",""
"","","","","","","","","","","","canvas-keyboard-response","21","178857","0.0-21.0","null","null","","","","","","","","","","","","","","stimulus","","","0","2","","","","","","","","","",""
"","","","","","","","","","","","canvas-button-response","22","180846","0.0-22.0","1986","knife","","","","","","","","","","","","","","perceptual","","","0","2","","","","","92","knife","1","","1",""
"","","","","","","","","","","","canvas-button-response","23","181587","0.0-23.0","739","9","","","","","","","","","","","","","","confidence","","","0","2","","","","","","","","","","3"
"","","","","","","","","","","","html-keyboard-response","24","182590","0.0-24.0","null","null","","","","","","","","","","","","","","feedback","Fri Oct 17 2025 12:21:51 GMT-0400 (Eastern Daylight Time)","26913","0","2","","","","","","","","","",""
"","","","","","","","","","","","preload","25","182591","0.0-25.0","","","","","true","","","","","","","","","","","preload","","","0","3","false","[]","[]","[]","","","","","",""
"","","","","","","","","","","","canvas-keyboard-response","26","182893","0.0-26.0","null","null","","","","","","","","","","","","","","fixation","","","0","3","","","","","","","","","",""
"","","","","","","","","","","","canvas-keyboard-response","27","183196","0.0-27.0","null","null","","","","","","","","","","","","","","stimulus","","","0","3","","","","","","","","","",""
"","","","","","","","","","","","canvas-button-response","28","184129","0.0-28.0","931","cat","","","","","","","","","","","","","","perceptual","","","0","3","","","","","72","cat","1","","1",""
"","","","","","","","","","","","canvas-button-response","29","184831","0.0-29.0","699","10","","","","","","","","","","","","","","confidence","","","0","3","","","","","","","","","","4"
"","","","","","","","","","","","html-keyboard-response","30","185833","0.0-30.0","null","null","","","","","","","","","","","","","","feedback","Fri Oct 17 2025 12:21:55 GMT-0400 (Eastern Daylight Time)","26913","0","3","","","","","","","","","",""
"","","","","","","","","","","","preload","31","185834","0.0-31.0","","","","","true","","","","","","","","","","","preload","","","0","4","false","[]","[]","[]","","","","","",""
"","","","","","","","","","","","canvas-keyboard-response","32","186137","0.0-32.0","null","null","","","","","","","","","","","","","","fixation","","","0","4","","","","","","","","","",""
"","","","","","","","","","","","canvas-keyboard-response","33","186440","0.0-33.0","null","null","","","","","","","","","","","","","","stimulus","","","0","4","","","","","","","","","",""
"","","","","","","","","","","","canvas-button-response","34","187396","0.0-34.0","954","bed","","","","","","","","","","","","","","perceptual","","","0","4","","","","","32","bed","1","","1",""
"","","","","","","","","","","","canvas-button-response","35","187998","0.0-35.0","599","10","","","","","","","","","","","","","","confidence","","","0","4","","","","","","","","","","5"
"","","","","","","","","","","","html-keyboard-response","36","189001","0.0-36.0","null","null","","","","","","","","","","","","","","feedback","Fri Oct 17 2025 12:21:58 GMT-0400 (Eastern Daylight Time)","26913","0","4","","","","","","","","","",""
"","","","","","","","","","","","preload","37","189002","0.0-37.0","","","","","true","","","","","","","","","","","preload","","","0","5","false","[]","[]","[]","","","","","",""
"","","","","","","","","","","","canvas-keyboard-response","38","189306","0.0-38.0","null","null","","","","","","","","","","","","","","fixation","","","0","5","","","","","","","","","",""
"","","","","","","","","","","","canvas-keyboard-response","39","189609","0.0-39.0","null","null","","","","","","","","","","","","","","stimulus","","","0","5","","","","","","","","","",""
"","","","","","","","","","","","canvas-button-response","40","194498","0.0-40.0","4885","elephant","","","","","","","","","","","","","","perceptual","","","0","5","","","","","82","elephant","1","","1",""
"","","","","","","","","","","","canvas-button-response","41","195770","0.0-41.0","1270","6","","","","","","","","","","","","","","confidence","","","0","5","","","","","","","","","","6"
"","","","","","","","","","","","html-keyboard-response","42","196774","0.0-42.0","null","null","","","","","","","","","","","","","","feedback","Fri Oct 17 2025 12:22:06 GMT-0400 (Eastern Daylight Time)","26913","0","5","","","","","","","","","",""
"","","","","","","","","","","","preload","43","196775","0.0-43.0","","","","","true","","","","","","","","","","","preload","","","0","6","false","[]","[]","[]","","","","","",""
"","","","","","","","","","","","canvas-keyboard-response","44","197077","0.0-44.0","null","null","","","","","","","","","","","","","","fixation","","","0","6","","","","","","","","","",""
"","","","","","","","","","","","canvas-keyboard-response","45","197380","0.0-45.0","null","null","","","","","","","","","","","","","","stimulus","","","0","6","","","","","","","","","",""
"","","","","","","","","","","","canvas-button-response","46","199296","0.0-46.0","1914","phone","","","","","","","","","","","","","","perceptual","","","0","6","","","","","22","phone","1","","1",""
"","","","","","","","","","","","canvas-button-response","47","199896","0.0-47.0","598","10","","","","","","","","","","","","","","confidence","","","0","6","","","","","","","","","","7"
"","","","","","","","","","","","html-keyboard-response","48","200899","0.0-48.0","null","null","","","","","","","","","","","","","","feedback","Fri Oct 17 2025 12:22:10 GMT-0400 (Eastern Daylight Time)","26913","0","6","","","","","","","","","",""
"","","","","","","","","","","","preload","49","200900","0.0-49.0","","","","","true","","","","","","","","","","","preload","","","0","7","false","[]","[]","[]","","","","","",""
"","","","","","","","","","","","canvas-keyboard-response","50","201203","0.0-50.0","null","null","","","","","","","","","","","","","","fixation","","","0","7","","","","","","","","","",""
"","","","","","","","","","","","canvas-keyboard-response","51","201506","0.0-51.0","null","null","","","","","","","","","","","","","","stimulus","","","0","7","","","","","","","","","",""
"","","","","","","","","","","","canvas-button-response","52","204429","0.0-52.0","2921","train","","","","","","","","","","","","","","perceptual","","","0","7","","","","","62","train","1","","1",""
"","","","","","","","","","","","canvas-button-response","53","205129","0.0-53.0","698","10","","","","","","","","","","","","","","confidence","","","0","7","","","","","","","","","","8"
"","","","","","","","","","","","html-keyboard-response","54","206132","0.0-54.0","null","null","","","","","","","","","","","","","","feedback","Fri Oct 17 2025 12:22:15 GMT-0400 (Eastern Daylight Time)","26913","0","7","","","","","","","","","",""
"","","","","","","","","","","","preload","55","206133","0.0-55.0","","","","","true","","","","","","","","","","","preload","","","0","8","false","[]","[]","[]","","","","","",""
"","","","","","","","","","","","canvas-keyboard-response","56","206436","0.0-56.0","null","null","","","","","","","","","","","","","","fixation","","","0","8","","","","","","","","","",""
"","","","","","","","","","","","canvas-keyboard-response","57","206739","0.0-57.0","null","null","","","","","","","","","","","","","","stimulus","","","0","8","","","","","","","","","",""
"","","","","","","","","","","","canvas-button-response","58","207646","0.0-58.0","905","car","","","","","","","","","","","","","","perceptual","","","0","8","","","","","12","car","1","","1",""
"","","","","","","","","","","","canvas-button-response","59","208281","0.0-59.0","632","10","","","","","","","","","","","","","","confidence","","","0","8","","","","","","","","","","9"
"","","","","","","","","","","","html-keyboard-response","60","209284","0.0-60.0","null","null","","","","","","","","","","","","","","feedback","Fri Oct 17 2025 12:22:18 GMT-0400 (Eastern Daylight Time)","26913","0","8","","","","","","","","","",""
"","","","","","","","","","","","preload","61","209285","0.0-61.0","","","","","true","","","","","","","","","","","preload","","","0","9","false","[]","[]","[]","","","","","",""
"","","","","","","","","","","","canvas-keyboard-response","62","209588","0.0-62.0","null","null","","","","","","","","","","","","","","fixation","","","0","9","","","","","","","","","",""
"","","","","","","","","","","","canvas-keyboard-response","63","209891","0.0-63.0","null","null","","","","","","","","","","","","","","stimulus","","","0","9","","","","","","","","","",""
"","","","","","","","","","","","canvas-button-response","64","210869","0.0-64.0","975","bridge","","","","","","","","","","","","","","perceptual","","","0","9","","","","","42","bridge","1","","1",""
"","","","","","","","","","","","canvas-button-response","65","211797","0.0-65.0","926","10","","","","","","","","","","","","","","confidence","","","0","9","","","","","","","","","","10"
"","","","","","","","","","","","html-keyboard-response","66","212801","0.0-66.0","null","null","","","","","","","","","","","","","","feedback","Fri Oct 17 2025 12:22:22 GMT-0400 (Eastern Daylight Time)","26913","0","9","","","","","","","","","",""
"","","","","","","","","","","","html-button-response","67","222697","0.0-67.0","9894","0","","","","","","","","","","","","","","start_practice","Fri Oct 17 2025 12:22:23 GMT-0400 (Eastern Daylight Time)","26913","0","9","","","","","","","","","",""
"","","","","","","","","","","","preload","68","222698","0.0-68.0","","","","","true","","","","","","","","","","","preload","","","1","0","false","[]","[]","[]","","","","","",""
"","","","","","","","","","","","canvas-keyboard-response","69","223000","0.0-69.0","null","null","","","","","","","","","","","","","","fixation","","","1","0","","","","","","","","","",""
"","","","","","","","","","","","canvas-keyboard-response","70","223302","0.0-70.0","null","null","","","","","","","","","","","","","","stimulus","","","1","0","","","","","","","","","",""
"","","","","","","","","","","","canvas-button-response","71","228314","0.0-71.0","5009","train","","","","","","","","","","","","","","perceptual","","","1","0","","","","","94","knife","6","","0",""
"","","","","","","","","","","","canvas-button-response","72","229764","0.0-72.0","1447","3","","","","","","","","","","","","","","confidence","","","1","0","","","","","","","","","","0"
"","","","","","","","","","","","html-keyboard-response","73","230766","0.0-73.0","null","null","","","","","","","","","","","","","","feedback","Fri Oct 17 2025 12:22:40 GMT-0400 (Eastern Daylight Time)","26913","1","0","","","","","","","","","",""
"","","","","","","","","","","","preload","74","230767","0.0-74.0","","","","","true","","","","","","","","","","","preload","","","1","1","false","[]","[]","[]","","","","","",""
"","","","","","","","","","","","canvas-keyboard-response","75","231070","0.0-75.0","null","null","","","","","","","","","","","","","","fixation","","","1","1","","","","","","","","","",""
"","","","","","","","","","","","canvas-keyboard-response","76","231372","0.0-76.0","null","null","","","","","","","","","","","","","","stimulus","","","1","1","","","","","","","","","",""
"","","","","","","","","","","","canvas-button-response","77","233452","0.0-77.0","2078","phone","","","","","","","","","","","","","","perceptual","","","1","1","","","","","24","phone","6","","1",""
"","","","","","","","","","","","canvas-button-response","78","234063","0.0-78.0","609","8","","","","","","","","","","","","","","confidence","","","1","1","","","","","","","","","","1"
"","","","","","","","","","","","html-keyboard-response","79","235066","0.0-79.0","null","null","","","","","","","","","","","","","","feedback","Fri Oct 17 2025 12:22:44 GMT-0400 (Eastern Daylight Time)","26913","1","1","","","","","","","","","",""
"","","","","","","","","","","","preload","80","235067","0.0-80.0","","","","","true","","","","","","","","","","","preload","","","1","2","false","[]","[]","[]","","","","","",""
"","","","","","","","","","","","canvas-keyboard-response","81","235370","0.0-81.0","null","null","","","","","","","","","","","","","","fixation","","","1","2","","","","","","","","","",""
"","","","","","","","","","","","canvas-keyboard-response","82","235673","0.0-82.0","null","null","","","","","","","","","","","","","","stimulus","","","1","2","","","","","","","","","",""
"","","","","","","","","","","","canvas-button-response","83","236629","0.0-83.0","954","flower","","","","","","","","","","","","","","perceptual","","","1","2","","","","","54","flower","6","","1",""
"","","","","","","","","","","","canvas-button-response","84","237197","0.0-84.0","566","10","","","","","","","","","","","","","","confidence","","","1","2","","","","","","","","","","2"
"","","","","","","","","","","","html-keyboard-response","85","238201","0.0-85.0","null","null","","","","","","","","","","","","","","feedback","Fri Oct 17 2025 12:22:47 GMT-0400 (Eastern Daylight Time)","26913","1","2","","","","","","","","","",""
"","","","","","","","","","","","preload","86","238202","0.0-86.0","","","","","true","","","","","","","","","","","preload","","","1","3","false","[]","[]","[]","","","","","",""
"","","","","","","","","","","","canvas-keyboard-response","87","238505","0.0-87.0","null","null","","","","","","","","","","","","","","fixation","","","1","3","","","","","","","","","",""
"","","","","","","","","","","","canvas-keyboard-response","88","238808","0.0-88.0","null","null","","","","","","","","","","","","","","stimulus","","","1","3","","","","","","","","","",""
"","","","","","","","","","","","canvas-button-response","89","239746","0.0-89.0","936","house","","","","","","","","","","","","","","perceptual","","","1","3","","","","","4","house","6","","1",""
"","","","","","","","","","","","canvas-button-response","90","240380","0.0-90.0","632","10","","","","","","","","","","","","","","confidence","","","1","3","","","","","","","","","","3"
"","","","","","","","","","","","html-keyboard-response","91","241382","0.0-91.0","null","null","","","","","","","","","","","","","","feedback","Fri Oct 17 2025 12:22:50 GMT-0400 (Eastern Daylight Time)","26913","1","3","","","","","","","","","",""
"","","","","","","","","","","","preload","92","241384","0.0-92.0","","","","","true","","","","","","","","","","","preload","","","1","4","false","[]","[]","[]","","","","","",""
"","","","","","","","","","","","canvas-keyboard-response","93","241686","0.0-93.0","null","null","","","","","","","","","","","","","","fixation","","","1","4","","","","","","","","","",""
"","","","","","","","","","","","canvas-keyboard-response","94","241990","0.0-94.0","null","null","","","","","","","","","","","","","","stimulus","","","1","4","","","","","","","","","",""
"","","","","","","","","","","","canvas-button-response","95","245646","0.0-95.0","3654","bed","","","","","","","","","","","","","","perceptual","","","1","4","","","","","37","bed","10","","1",""
"","","","","","","","","","","","canvas-button-response","96","247280","0.0-96.0","1632","5","","","","","","","","","","","","","","confidence","","","1","4","","","","","","","","","","4"
"","","","","","","","","","","","html-keyboard-response","97","248282","0.0-97.0","null","null","","","","","","","","","","","","","","feedback","Fri Oct 17 2025 12:22:57 GMT-0400 (Eastern Daylight Time)","26913","1","4","","","","","","","","","",""
"","","","","","","","","","","","preload","98","248283","0.0-98.0","","","","","true","","","","","","","","","","","preload","","","1","5","false","[]","[]","[]","","","","","",""
"","","","","","","","","","","","canvas-keyboard-response","99","248586","0.0-99.0","null","null","","","","","","","","","","","","","","fixation","","","1","5","","","","","","","","","",""
"","","","","","","","","","","","canvas-keyboard-response","100","248889","0.0-100.0","null","null","","","","","","","","","","","","","","stimulus","","","1","5","","","","","","","","","",""
"","","","","","","","","","","","canvas-button-response","101","250551","0.0-101.0","1660","house","","","","","","","","","","","","","","perceptual","","","1","5","","","","","7","house","10","","1",""
"","","","","","","","","","","","canvas-button-response","102","251363","0.0-102.0","810","7","","","","","","","","","","","","","","confidence","","","1","5","","","","","","","","","","5"
"","","","","","","","","","","","html-keyboard-response","103","252365","0.0-103.0","null","null","","","","","","","","","","","","","","feedback","Fri Oct 17 2025 12:23:01 GMT-0400 (Eastern Daylight Time)","26913","1","5","","","","","","","","","",""
"","","","","","","","","","","","preload","104","252366","0.0-104.0","","","","","true","","","","","","","","","","","preload","","","1","6","false","[]","[]","[]","","","","","",""
"","","","","","","","","","","","canvas-keyboard-response","105","252669","0.0-105.0","null","null","","","","","","","","","","","","","","fixation","","","1","6","","","","","","","","","",""
"","","","","","","","","","","","canvas-keyboard-response","106","252972","0.0-106.0","null","null","","","","","","","","","","","","","","stimulus","","","1","6","","","","","","","","","",""
"","","","","","","","","","","","canvas-button-response","107","255737","0.0-107.0","2762","car","","","","","","","","","","","","","","perceptual","","","1","6","","","","","47","bridge","10","","0",""
"","","","","","","","","","","","canvas-button-response","108","256463","0.0-108.0","724","6","","","","","","","","","","","","","","confidence","","","1","6","","","","","","","","","","5"
"","","","","","","","","","","","html-keyboard-response","109","257467","0.0-109.0","null","null","","","","","","","","","","","","","","feedback","Fri Oct 17 2025 12:23:06 GMT-0400 (Eastern Daylight Time)","26913","1","6","","","","","","","","","",""
"","","","","","","","","","","","preload","110","257468","0.0-110.0","","","","","true","","","","","","","","","","","preload","","","1","7","false","[]","[]","[]","","","","","",""
"","","","","","","","","","","","canvas-keyboard-response","111","257770","0.0-111.0","null","null","","","","","","","","","","","","","","fixation","","","1","7","","","","","","","","","",""
"","","","","","","","","","","","canvas-keyboard-response","112","258074","0.0-112.0","null","null","","","","","","","","","","","","","","stimulus","","","1","7","","","","","","","","","",""
"","","","","","","","","","","","canvas-button-response","113","260597","0.0-113.0","2520","elephant","","","","","","","","","","","","","","perceptual","","","1","7","","","","","17","car","10","","0",""
"","","","","","","","","","","","canvas-button-response","114","261630","0.0-114.0","1030","1","","","","","","","","","","","","","","confidence","","","1","7","","","","","","","","","","5"
"","","","","","","","","","","","html-keyboard-response","115","262632","0.0-115.0","null","null","","","","","","","","","","","","","","feedback","Fri Oct 17 2025 12:23:11 GMT-0400 (Eastern Daylight Time)","26913","1","7","","","","","","","","","",""
"","","","","","","","","","","","preload","116","262633","0.0-116.0","","","","","true","","","","","","","","","","","preload","","","1","8","false","[]","[]","[]","","","","","",""
"","","","","","","","","","","","canvas-keyboard-response","117","262936","0.0-117.0","null","null","","","","","","","","","","","","","","fixation","","","1","8","","","","","","","","","",""
"","","","","","","","","","","","canvas-keyboard-response","118","263239","0.0-118.0","null","null","","","","","","","","","","","","","","stimulus","","","1","8","","","","","","","","","",""
"","","","","","","","","","","","canvas-button-response","119","264330","0.0-119.0","1089","train","","","","","","","","","","","","","","perceptual","","","1","8","","","","","64","train","6","","1",""
"","","","","","","","","","","","canvas-button-response","120","264830","0.0-120.0","498","10","","","","","","","","","","","","","","confidence","","","1","8","","","","","","","","","","6"
"","","","","","","","","","","","html-keyboard-response","121","265833","0.0-121.0","null","null","","","","","","","","","","","","","","feedback","Fri Oct 17 2025 12:23:15 GMT-0400 (Eastern Daylight Time)","26913","1","8","","","","","","","","","",""
"","","","","","","","","","","","preload","122","265834","0.0-122.0","","","","","true","","","","","","","","","","","preload","","","1","9","false","[]","[]","[]","","","","","",""
"","","","","","","","","","","","canvas-keyboard-response","123","266137","0.0-123.0","null","null","","","","","","","","","","","","","","fixation","","","1","9","","","","","","","","","",""
"","","","","","","","","","","","canvas-keyboard-response","124","266439","0.0-124.0","null","null","","","","","","","","","","","","","","stimulus","","","1","9","","","","","","","","","",""
"","","","","","","","","","","","canvas-button-response","125","267712","0.0-125.0","1271","flower","","","","","","","","","","","","","","perceptual","","","1","9","","","","","74","cat","6","","0",""
"","","","","","","","","","","","canvas-button-response","126","268789","0.0-126.0","1075","6","","","","","","","","","","","","","","confidence","","","1","9","","","","","","","","","","6"
"","","","","","","","","","","","html-keyboard-response","127","269792","0.0-127.0","null","null","","","","","","","","","","","","","","feedback","Fri Oct 17 2025 12:23:19 GMT-0400 (Eastern Daylight Time)","26913","1","9","","","","","","","","","",""
"","","","","","","","","","","","preload","128","269793","0.0-128.0","","","","","true","","","","","","","","","","","preload","","","1","10","false","[]","[]","[]","","","","","",""
"","","","","","","","","","","","canvas-keyboard-response","129","270095","0.0-129.0","null","null","","","","","","","","","","","","","","fixation","","","1","10","","","","","","","","","",""
"","","","","","","","","","","","canvas-keyboard-response","130","270398","0.0-130.0","null","null","","","","","","","","","","","","","","stimulus","","","1","10","","","","","","","","","",""
"","","","","","","","","","","","canvas-button-response","131","273163","0.0-131.0","2762","elephant","","","","","","","","","","","","","","perceptual","","","1","10","","","","","14","car","6","","0",""
"","","","","","","","","","","","canvas-button-response","132","273697","0.0-132.0","531","6","","","","","","","","","","","","","","confidence","","","1","10","","","","","","","","","","6"
"","","","","","","","","","","","html-keyboard-response","133","274699","0.0-133.0","null","null","","","","","","","","","","","","","","feedback","Fri Oct 17 2025 12:23:24 GMT-0400 (Eastern Daylight Time)","26913","1","10","","","","","","","","","",""
"","","","","","","","","","","","preload","134","274700","0.0-134.0","","","","","true","","","","","","","","","","","preload","","","1","11","false","[]","[]","[]","","","","","",""
"","","","","","","","","","","","canvas-keyboard-response","135","275003","0.0-135.0","null","null","","","","","","","","","","","","","","fixation","","","1","11","","","","","","","","","",""
"","","","","","","","","","","","canvas-keyboard-response","136","275306","0.0-136.0","null","null","","","","","","","","","","","","","","stimulus","","","1","11","","","","","","","","","",""
"","","","","","","","","","","","canvas-button-response","137","276397","0.0-137.0","1088","bed","","","","","","","","","","","","","","perceptual","","","1","11","","","","","34","bed","6","","1",""
"","","","","","","","","","","","canvas-button-response","138","277297","0.0-138.0","897","8","","","","","","","","","","","","","","confidence","","","1","11","","","","","","","","","","7"
"","","","","","","","","","","","html-keyboard-response","139","278299","0.0-139.0","null","null","","","","","","","","","","","","","","feedback","Fri Oct 17 2025 12:23:27 GMT-0400 (Eastern Daylight Time)","26913","1","11","","","","","","","","","",""
"","","","","","","","","","","","preload","140","278300","0.0-140.0","","","","","true","","","","","","","","","","","preload","","","1","12","false","[]","[]","[]","","","","","",""
"","","","","","","","","","","","canvas-keyboard-response","141","278603","0.0-141.0","null","null","","","","","","","","","","","","","","fixation","","","1","12","","","","","","","","","",""
"","","","","","","","","","","","canvas-keyboard-response","142","278906","0.0-142.0","null","null","","","","","","","","","","","","","","stimulus","","","1","12","","","","","","","","","",""
"","","","","","","","","","","","canvas-button-response","143","279885","0.0-143.0","977","knife","","","","","","","","","","","","","","perceptual","","","1","12","","","","","97","knife","10","","1",""
"","","","","","","","","","","","canvas-button-response","144","280513","0.0-144.0","626","10","","","","","","","","","","","","","","confidence","","","1","12","","","","","","","","","","8"
"","","","","","","","","","","","html-keyboard-response","145","281517","0.0-145.0","null","null","","","","","","","","","","","","","","feedback","Fri Oct 17 2025 12:23:30 GMT-0400 (Eastern Daylight Time)","26913","1","12","","","","","","","","","",""
"","","","","","","","","","","","preload","146","281518","0.0-146.0","","","","","true","","","","","","","","","","","preload","","","1","13","false","[]","[]","[]","","","","","",""
"","","","","","","","","","","","canvas-keyboard-response","147","281820","0.0-147.0","null","null","","","","","","","","","","","","","","fixation","","","1","13","","","","","","","","","",""
"","","","","","","","","","","","canvas-keyboard-response","148","282123","0.0-148.0","null","null","","","","","","","","","","","","","","stimulus","","","1","13","","","","","","","","","",""
"","","","","","","","","","","","canvas-button-response","149","285148","0.0-149.0","3021","house","","","","","","","","","","","","","","perceptual","","","1","13","","","","","87","elephant","10","","0",""
"","","","","","","","","","","","canvas-button-response","150","285887","0.0-150.0","737","1","","","","","","","","","","","","","","confidence","","","1","13","","","","","","","","","","8"
"","","","","","","","","","","","html-keyboard-response","151","286891","0.0-151.0","null","null","","","","","","","","","","","","","","feedback","Fri Oct 17 2025 12:23:36 GMT-0400 (Eastern Daylight Time)","26913","1","13","","","","","","","","","",""
"","","","","","","","","","","","preload","152","286892","0.0-152.0","","","","","true","","","","","","","","","","","preload","","","1","14","false","[]","[]","[]","","","","","",""
"","","","","","","","","","","","canvas-keyboard-response","153","287194","0.0-153.0","null","null","","","","","","","","","","","","","","fixation","","","1","14","","","","","","","","","",""
"","","","","","","","","","","","canvas-keyboard-response","154","287497","0.0-154.0","null","null","","","","","","","","","","","","","","stimulus","","","1","14","","","","","","","","","",""
"","","","","","","","","","","","canvas-button-response","155","289130","0.0-155.0","1630","cat","","","","","","","","","","","","","","perceptual","","","1","14","","","","","77","cat","10","","1",""
"","","","","","","","","","","","canvas-button-response","156","289830","0.0-156.0","698","1","","","","","","","","","","","","","","confidence","","","1","14","","","","","","","","","","9"
"","","","","","","","","","","","html-keyboard-response","157","290834","0.0-157.0","null","null","","","","","","","","","","","","","","feedback","Fri Oct 17 2025 12:23:40 GMT-0400 (Eastern Daylight Time)","26913","1","14","","","","","","","","","",""
"","","","","","","","","","","","preload","158","290835","0.0-158.0","","","","","true","","","","","","","","","","","preload","","","1","15","false","[]","[]","[]","","","","","",""
"","","","","","","","","","","","canvas-keyboard-response","159","291138","0.0-159.0","null","null","","","","","","","","","","","","","","fixation","","","1","15","","","","","","","","","",""
"","","","","","","","","","","","canvas-keyboard-response","160","291441","0.0-160.0","null","null","","","","","","","","","","","","","","stimulus","","","1","15","","","","","","","","","",""
"","","","","","","","","","","","canvas-button-response","161","294880","0.0-161.0","3436","bridge","","","","","","","","","","","","","","perceptual","","","1","15","","","","","44","bridge","6","","1",""
"","","","","","","","","","","","canvas-button-response","162","295730","0.0-162.0","847","1","","","","","","","","","","","","","","confidence","","","1","15","","","","","","","","","","10"
"","","","","","","","","","","","html-keyboard-response","163","296733","0.0-163.0","null","null","","","","","","","","","","","","","","feedback","Fri Oct 17 2025 12:23:46 GMT-0400 (Eastern Daylight Time)","26913","1","15","","","","","","","","","",""
"","","","","","","","","","","","preload","164","296734","0.0-164.0","","","","","true","","","","","","","","","","","preload","","","1","16","false","[]","[]","[]","","","","","",""
"","","","","","","","","","","","canvas-keyboard-response","165","297036","0.0-165.0","null","null","","","","","","","","","","","","","","fixation","","","1","16","","","","","","","","","",""
"","","","","","","","","","","","canvas-keyboard-response","166","297338","0.0-166.0","null","null","","","","","","","","","","","","","","stimulus","","","1","16","","","","","","","","","",""
"","","","","","","","","","","","canvas-button-response","167","298363","0.0-167.0","1023","elephant","","","","","","","","","","","","","","perceptual","","","1","16","","","","","84","elephant","6","","1",""
"","","","","","","","","","","","canvas-button-response","168","298896","0.0-168.0","531","10","","","","","","","","","","","","","","confidence","","","1","16","","","","","","","","","","11"
"","","","","","","","","","","","html-keyboard-response","169","299898","0.0-169.0","null","null","","","","","","","","","","","","","","feedback","Fri Oct 17 2025 12:23:49 GMT-0400 (Eastern Daylight Time)","26913","1","16","","","","","","","","","",""
"","","","","","","","","","","","preload","170","299899","0.0-170.0","","","","","true","","","","","","","","","","","preload","","","1","17","false","[]","[]","[]","","","","","",""
"","","","","","","","","","","","canvas-keyboard-response","171","300203","0.0-171.0","null","null","","","","","","","","","","","","","","fixation","","","1","17","","","","","","","","","",""
"","","","","","","","","","","","canvas-keyboard-response","172","300505","0.0-172.0","null","null","","","","","","","","","","","","","","stimulus","","","1","17","","","","","","","","","",""
"","","","","","","","","","","","canvas-button-response","173","302585","0.0-173.0","2077","train","","","","","","","","","","","","","","perceptual","","","1","17","","","","","27","phone","10","","0",""
"","","","","","","","","","","","canvas-button-response","174","303179","0.0-174.0","593","5","","","","","","","","","","","","","","confidence","","","1","17","","","","","","","","","","11"
"","","","","","","","","","","","html-keyboard-response","175","304181","0.0-175.0","null","null","","","","","","","","","","","","","","feedback","Fri Oct 17 2025 12:23:53 GMT-0400 (Eastern Daylight Time)","26913","1","17","","","","","","","","","",""
"","","","","","","","","","","","preload","176","304182","0.0-176.0","","","","","true","","","","","","","","","","","preload","","","1","18","false","[]","[]","[]","","","","","",""
"","","","","","","","","","","","canvas-keyboard-response","177","304484","0.0-177.0","null","null","","","","","","","","","","","","","","fixation","","","1","18","","","","","","","","","",""
"","","","","","","","","","","","canvas-keyboard-response","178","304787","0.0-178.0","null","null","","","","","","","","","","","","","","stimulus","","","1","18","","","","","","","","","",""
"","","","","","","","","","","","canvas-button-response","179","305747","0.0-179.0","957","train","","","","","","","","","","","","","","perceptual","","","1","18","","","","","67","train","10","","1",""
"","","","","","","","","","","","canvas-button-response","180","306647","0.0-180.0","897","8","","","","","","","","","","","","","","confidence","","","1","18","","","","","","","","","","12"
"","","","","","","","","","","","html-keyboard-response","181","307649","0.0-181.0","null","null","","","","","","","","","","","","","","feedback","Fri Oct 17 2025 12:23:57 GMT-0400 (Eastern Daylight Time)","26913","1","18","","","","","","","","","",""
"","","","","","","","","","","","preload","182","307651","0.0-182.0","","","","","true","","","","","","","","","","","preload","","","1","19","false","[]","[]","[]","","","","","",""
"","","","","","","","","","","","canvas-keyboard-response","183","307953","0.0-183.0","null","null","","","","","","","","","","","","","","fixation","","","1","19","","","","","","","","","",""
"","","","","","","","","","","","canvas-keyboard-response","184","308256","0.0-184.0","null","null","","","","","","","","","","","","","","stimulus","","","1","19","","","","","","","","","",""
"","","","","","","","","","","","canvas-button-response","185","309147","0.0-185.0","889","flower","","","","","","","","","","","","","","perceptual","","","1","19","","","","","57","flower","10","","1",""
"","","","","","","","","","","","canvas-button-response","186","309852","0.0-186.0","703","7","","","","","","","","","","","","","","confidence","","","1","19","","","","","","","","","","13"
"","","","","","","","","","","","html-keyboard-response","187","310854","0.0-187.0","null","null","","","","","","","","","","","","","","feedback","Fri Oct 17 2025 12:24:00 GMT-0400 (Eastern Daylight Time)","26913","1","19","","","","","","","","","",""
"","","","","","","","","","","","html-button-response","188","321403","0.0-188.0","10546","0","","","","","","","","","","","","","","start experiment","Fri Oct 17 2025 12:24:01 GMT-0400 (Eastern Daylight Time)","26913","1","19","","","","","","","","","",""
"","","","","","","","","","","","preload","189","321404","0.0-189.0","","","","","true","","","","","","","","","","","preload","","","2","0","false","[]","[]","[]","","","","","",""
"","","","","","","","","","","","canvas-keyboard-response","190","321707","0.0-190.0","null","null","","","","","","","","","","","","","","fixation","","","2","0","","","","","","","","","",""
"","","","","","","","","","","","canvas-keyboard-response","191","322008","0.0-191.0","null","null","","","","","","","","","","","","","","stimulus","","","2","0","","","","","","","","","",""
"","","","","","","","","","","","canvas-button-response","192","323080","0.0-192.0","1069","house","","","","","","","","","","","","","","perceptual","","","2","0","","","","","26","house","10","0","1",""
"","","","","","","","","","","","canvas-button-response","193","323597","0.0-193.0","515","7","","","","","","","","","","","","","","confidence","","","2","0","","","","","","","","","","1"
"","","","","","","","","","","","preload","194","323598","0.0-194.0","","","","","true","","","","","","","","","","","preload","","","2","1","false","[]","[]","[]","","","","","",""
"","","","","","","","","","","","canvas-keyboard-response","195","323900","0.0-195.0","null","null","","","","","","","","","","","","","","fixation","","","2","1","","","","","","","","","",""
"","","","","","","","","","","","canvas-keyboard-response","196","324203","0.0-196.0","null","null","","","","","","","","","","","","","","stimulus","","","2","1","","","","","","","","","",""
"","","","","","","","","","","","canvas-button-response","197","325680","0.0-197.0","1475","flower","","","","","","","","","","","","","","perceptual","","","2","1","","","","","206","flower","6","0","1",""
"","","","","","","","","","","","canvas-button-response","198","326413","0.0-198.0","731","8","","","","","","","","","","","","","","confidence","","","2","1","","","","","","","","","","2"
"","","","","","","","","","","","preload","199","326414","0.0-199.0","","","","","true","","","","","","","","","","","preload","","","2","2","false","[]","[]","[]","","","","","",""
"","","","","","","","","","","","canvas-keyboard-response","200","326716","0.0-200.0","null","null","","","","","","","","","","","","","","fixation","","","2","2","","","","","","","","","",""
"","","","","","","","","","","","canvas-keyboard-response","201","327019","0.0-201.0","null","null","","","","","","","","","","","","","","stimulus","","","2","2","","","","","","","","","",""
"","","","","","","","","","","","canvas-button-response","202","328947","0.0-202.0","1925","phone","","","","","","","","","","","","","","perceptual","","","2","2","","","","","262","train","10","0","0",""
"","","","","","","","","","","","canvas-button-response","203","329763","0.0-203.0","814","1","","","","","","","","","","","","","","confidence","","","2","2","","","","","","","","","","2"
"","","","","","","","","","","","preload","204","329764","0.0-204.0","","","","","true","","","","","","","","","","","preload","","","2","3","false","[]","[]","[]","","","","","",""
"","","","","","","","","","","","canvas-keyboard-response","205","330066","0.0-205.0","null","null","","","","","","","","","","","","","","fixation","","","2","3","","","","","","","","","",""
"","","","","","","","","","","","canvas-keyboard-response","206","330369","0.0-206.0","null","null","","","","","","","","","","","","","","stimulus","","","2","3","","","","","","","","","",""
"","","","","","","","","","","","canvas-button-response","207","334263","0.0-207.0","3892","knife","","","","","","","","","","","","","","perceptual","","","2","3","","","","","397","knife","10","0","1",""
"","","","","","","","","","","","canvas-button-response","208","334862","0.0-208.0","596","7","","","","","","","","","","","","","","confidence","","","2","3","","","","","","","","","","3"
"","","","","","","","","","","","preload","209","334863","0.0-209.0","","","","","true","","","","","","","","","","","preload","","","2","4","false","[]","[]","[]","","","","","",""
"","","","","","","","","","","","canvas-keyboard-response","210","335164","0.0-210.0","null","null","","","","","","","","","","","","","","fixation","","","2","4","","","","","","","","","",""
"","","","","","","","","","","","canvas-keyboard-response","211","335466","0.0-211.0","null","null","","","","","","","","","","","","","","stimulus","","","2","4","","","","","","","","","",""
"","","","","","","","","","","","canvas-button-response","212","336813","0.0-212.0","1345","cat","","","","","","","","","","","","","","perceptual","","","2","4","","","","","313","cat","10","0","1",""
"","","","","","","","","","","","canvas-button-response","213","337662","0.0-213.0","846","3","","","","","","","","","","","","","","confidence","","","2","4","","","","","","","","","","4"
"","","","","","","","","","","","preload","214","337662","0.0-214.0","","","","","true","","","","","","","","","","","preload","","","2","5","false","[]","[]","[]","","","","","",""
"","","","","","","","","","","","canvas-keyboard-response","215","337964","0.0-215.0","null","null","","","","","","","","","","","","","","fixation","","","2","5","","","","","","","","","",""
"","","","","","","","","","","","canvas-keyboard-response","216","338266","0.0-216.0","null","null","","","","","","","","","","","","","","stimulus","","","2","5","","","","","","","","","",""
"","","","","","","","","","","","canvas-button-response","217","339320","0.0-217.0","1052","bridge","","","","","","","","","","","","","","perceptual","","","2","5","","","","","165","bridge","6","0","1",""
"","","","","","","","","","","","canvas-button-response","218","339887","0.0-218.0","564","10","","","","","","","","","","","","","","confidence","","","2","5","","","","","","","","","","5"
"","","","","","","","","","","","preload","219","339888","0.0-219.0","","","","","true","","","","","","","","","","","preload","","","2","6","false","[]","[]","[]","","","","","",""
"","","","","","","","","","","","canvas-keyboard-response","220","340190","0.0-220.0","null","null","","","","","","","","","","","","","","fixation","","","2","6","","","","","","","","","",""
"","","","","","","","","","","","canvas-keyboard-response","221","340493","0.0-221.0","null","null","","","","","","","","","","","","","","stimulus","","","2","6","","","","","","","","","",""
"","","","","","","","","","","","canvas-button-response","222","341252","0.0-222.0","757","cat","","","","","","","","","","","","","","perceptual","","","2","6","","","","","303","cat","10","0","1",""
"","","","","","","","","","","","canvas-button-response","223","342288","0.0-223.0","1034","10","","","","","","","","","","","","","","confidence","","","2","6","","","","","","","","","","6"
"","","","","","","","","","","","preload","224","342289","0.0-224.0","","","","","true","","","","","","","","","","","preload","","","2","7","false","[]","[]","[]","","","","","",""
"","","","","","","","","","","","canvas-keyboard-response","225","342591","0.0-225.0","null","null","","","","","","","","","","","","","","fixation","","","2","7","","","","","","","","","",""
"","","","","","","","","","","","canvas-keyboard-response","226","342894","0.0-226.0","null","null","","","","","","","","","","","","","","stimulus","","","2","7","","","","","","","","","",""
"","","","","","","","","","","","canvas-button-response","227","344046","0.0-227.0","1150","car","","","","","","","","","","","","","","perceptual","","","2","7","","","","","44","car","6","0","1",""
"","","","","","","","","","","","canvas-button-response","228","344512","0.0-228.0","463","10","","","","","","","","","","","","","","confidence","","","2","7","","","","","","","","","","7"
"","","","","","","","","","","","preload","229","344512","0.0-229.0","","","","","true","","","","","","","","","","","preload","","","2","8","false","[]","[]","[]","","","","","",""
"","","","","","","","","","","","canvas-keyboard-response","230","344813","0.0-230.0","null","null","","","","","","","","","","","","","","fixation","","","2","8","","","","","","","","","",""
"","","","","","","","","","","","canvas-keyboard-response","231","345116","0.0-231.0","null","null","","","","","","","","","","","","","","stimulus","","","2","8","","","","","","","","","",""
"","","","","","","","","","","","canvas-button-response","232","347013","0.0-232.0","1895","train","","","","","","","","","","","","","","perceptual","","","2","8","","","","","233","flower","10","0","0",""
"","","","","","","","","","","","canvas-button-response","233","347678","0.0-233.0","663","1","","","","","","","","","","","","","","confidence","","","2","8","","","","","","","","","","7"
"","","","","","","","","","","","preload","234","347679","0.0-234.0","","","","","true","","","","","","","","","","","preload","","","2","9","false","[]","[]","[]","","","","","",""
"","","","","","","","","","","","canvas-keyboard-response","235","347980","0.0-235.0","null","null","","","","","","","","","","","","","","fixation","","","2","9","","","","","","","","","",""
"","","","","","","","","","","","canvas-keyboard-response","236","348283","0.0-236.0","null","null","","","","","","","","","","","","","","stimulus","","","2","9","","","","","","","","","",""
"","","","","","","","","","","","canvas-button-response","237","349713","0.0-237.0","1428","house","","","","","","","","","","","","","","perceptual","","","2","9","","","","","38","house","10","0","1",""
"","","","","","","","","","","","canvas-button-response","238","350335","0.0-238.0","620","6","","","","","","","","","","","","","","confidence","","","2","9","","","","","","","","","","8"
"","","","","","","","","","","","preload","239","350336","0.0-239.0","","","","","true","","","","","","","","","","","preload","","","2","10","false","[]","[]","[]","","","","","",""
"","","","","","","","","","","","canvas-keyboard-response","240","350638","0.0-240.0","null","null","","","","","","","","","","","","","","fixation","","","2","10","","","","","","","","","",""
"","","","","","","","","","","","canvas-keyboard-response","241","350940","0.0-241.0","null","null","","","","","","","","","","","","","","stimulus","","","2","10","","","","","","","","","",""
"","","","","","","","","","","","canvas-button-response","242","355112","0.0-242.0","4170","bed","","","","","","","","","","","","","","perceptual","","","2","10","","","","","135","bed","6","0","1",""
"","","","","","","","","","","","canvas-button-response","243","355897","0.0-243.0","783","5","","","","","","","","","","","","","","confidence","","","2","10","","","","","","","","","","9"
"","","","","","","","","","","","preload","244","355898","0.0-244.0","","","","","true","","","","","","","","","","","preload","","","2","11","false","[]","[]","[]","","","","","",""
"","","","","","","","","","","","canvas-keyboard-response","245","356200","0.0-245.0","null","null","","","","","","","","","","","","","","fixation","","","2","11","","","","","","","","","",""
"","","","","","","","","","","","canvas-keyboard-response","246","356503","0.0-246.0","null","null","","","","","","","","","","","","","","stimulus","","","2","11","","","","","","","","","",""
"","","","","","","","","","","","canvas-button-response","247","357563","0.0-247.0","1057","train","","","","","","","","","","","","","","perceptual","","","2","11","","","","","318","cat","10","0","0",""
"","","","","","","","","","","","canvas-button-response","248","358213","0.0-248.0","647","5","","","","","","","","","","","","","","confidence","","","2","11","","","","","","","","","","9"
"","","","","","","","","","","","preload","249","358213","0.0-249.0","","","","","true","","","","","","","","","","","preload","","","2","12","false","[]","[]","[]","","","","","",""
"","","","","","","","","","","","canvas-keyboard-response","250","358515","0.0-250.0","null","null","","","","","","","","","","","","","","fixation","","","2","12","","","","","","","","","",""
"","","","","","","","","","","","canvas-keyboard-response","251","358818","0.0-251.0","null","null","","","","","","","","","","","","","","stimulus","","","2","12","","","","","","","","","",""
"","","","","","","","","","","","canvas-button-response","252","361770","0.0-252.0","2950","flower","","","","","","","","","","","","","","perceptual","","","2","12","","","","","189","bridge","10","0","0",""
"","","","","","","","","","","","canvas-button-response","253","362463","0.0-253.0","691","1","","","","","","","","","","","","","","confidence","","","2","12","","","","","","","","","","9"
"","","","","","","","","","","","preload","254","362464","0.0-254.0","","","","","true","","","","","","","","","","","preload","","","2","13","false","[]","[]","[]","","","","","",""
"","","","","","","","","","","","canvas-keyboard-response","255","362766","0.0-255.0","null","null","","","","","","","","","","","","","","fixation","","","2","13","","","","","","","","","",""
"","","","","","","","","","","","canvas-keyboard-response","256","363069","0.0-256.0","null","null","","","","","","","","","","","","","","stimulus","","","2","13","","","","","","","","","",""
"","","","","","","","","","","","canvas-button-response","257","364018","0.0-257.0","946","cat","","","","","","","","","","","","","","perceptual","","","2","13","","","","","302","cat","10","0","1",""
"","","","","","","","","","","","canvas-button-response","258","364680","0.0-258.0","660","8","","","","","","","","","","","","","","confidence","","","2","13","","","","","","","","","","10"
"","","","","","","","","","","","preload","259","364681","0.0-259.0","","","","","true","","","","","","","","","","","preload","","","2","14","false","[]","[]","[]","","","","","",""
"","","","","","","","","","","","canvas-keyboard-response","260","364982","0.0-260.0","null","null","","","","","","","","","","","","","","fixation","","","2","14","","","","","","","","","",""
"","","","","","","","","","","","canvas-keyboard-response","261","365285","0.0-261.0","null","null","","","","","","","","","","","","","","stimulus","","","2","14","","","","","","","","","",""
"","","","","","","","","","","","canvas-button-response","262","366246","0.0-262.0","958","train","","","","","","","","","","","","","","perceptual","","","2","14","","","","","243","train","6","0","1",""
"","","","","","","","","","","","canvas-button-response","263","366696","0.0-263.0","447","10","","","","","","","","","","","","","","confidence","","","2","14","","","","","","","","","","11"
"","","","","","","","","","","","preload","264","366697","0.0-264.0","","","","","true","","","","","","","","","","","preload","","","2","15","false","[]","[]","[]","","","","","",""
"","","","","","","","","","","","canvas-keyboard-response","265","366999","0.0-265.0","null","null","","","","","","","","","","","","","","fixation","","","2","15","","","","","","","","","",""
"","","","","","","","","","","","canvas-keyboard-response","266","367300","0.0-266.0","null","null","","","","","","","","","","","","","","stimulus","","","2","15","","","","","","","","","",""
"","","","","","","","","","","","canvas-button-response","267","368728","0.0-267.0","1426","bridge","","","","","","","","","","","","","","perceptual","","","2","15","","","","","231","flower","10","0","0",""
"","","","","","","","","","","","canvas-button-response","268","369397","0.0-268.0","666","1","","","","","","","","","","","","","","confidence","","","2","15","","","","","","","","","","11"
"","","","","","","","","","","","preload","269","369398","0.0-269.0","","","","","true","","","","","","","","","","","preload","","","2","16","false","[]","[]","[]","","","","","",""
"","","","","","","","","","","","canvas-keyboard-response","270","369699","0.0-270.0","null","null","","","","","","","","","","","","","","fixation","","","2","16","","","","","","","","","",""
"","","","","","","","","","","","canvas-keyboard-response","271","370002","0.0-271.0","null","null","","","","","","","","","","","","","","stimulus","","","2","16","","","","","","","","","",""
"","","","","","","","","","","","canvas-button-response","272","370830","0.0-272.0","825","elephant","","","","","","","","","","","","","","perceptual","","","2","16","","","","","352","elephant","10","0","1",""
"","","","","","","","","","","","canvas-button-response","273","372445","0.0-273.0","1613","10","","","","","","","","","","","","","","confidence","","","2","16","","","","","","","","","","12"
"","","","","","","","","","","","preload","274","372445","0.0-274.0","","","","","true","","","","","","","","","","","preload","","","2","17","false","[]","[]","[]","","","","","",""
"","","","","","","","","","","","canvas-keyboard-response","275","372747","0.0-275.0","null","null","","","","","","","","","","","","","","fixation","","","2","17","","","","","","","","","",""
"","","","","","","","","","","","canvas-keyboard-response","276","373050","0.0-276.0","null","null","","","","","","","","","","","","","","stimulus","","","2","17","","","","","","","","","",""
"","","","","","","","","","","","canvas-button-response","277","374147","0.0-277.0","1095","train","","","","","","","","","","","","","","perceptual","","","2","17","","","","","191","bridge","10","0","0",""
"","","","","","","","","","","","canvas-button-response","278","374701","0.0-278.0","552","6","","","","","","","","","","","","","","confidence","","","2","17","","","","","","","","","","12"
"","","","","","","","","","","","preload","279","374701","0.0-279.0","","","","","true","","","","","","","","","","","preload","","","2","18","false","[]","[]","[]","","","","","",""
"","","","","","","","","","","","canvas-keyboard-response","280","375003","0.0-280.0","null","null","","","","","","","","","","","","","","fixation","","","2","18","","","","","","","","","",""
"","","","","","","","","","","","canvas-keyboard-response","281","375306","0.0-281.0","null","null","","","","","","","","","","","","","","stimulus","","","2","18","","","","","","","","","",""
"","","","","","","","","","","","canvas-button-response","282","376851","0.0-282.0","1543","house","","","","","","","","","","","","","","perceptual","","","2","18","","","","","23","house","10","0","1",""
"","","","","","","","","","","","canvas-button-response","283","377413","0.0-283.0","560","9","","","","","","","","","","","","","","confidence","","","2","18","","","","","","","","","","13"
"","","","","","","","","","","","preload","284","377414","0.0-284.0","","","","","true","","","","","","","","","","","preload","","","2","19","false","[]","[]","[]","","","","","",""
"","","","","","","","","","","","canvas-keyboard-response","285","377717","0.0-285.0","null","null","","","","","","","","","","","","","","fixation","","","2","19","","","","","","","","","",""
"","","","","","","","","","","","canvas-keyboard-response","286","378020","0.0-286.0","null","null","","","","","","","","","","","","","","stimulus","","","2","19","","","","","","","","","",""
"","","","","","","","","","","","canvas-button-response","287","378797","0.0-287.0","774","flower","","","","","","","","","","","","","","perceptual","","","2","19","","","","","202","flower","6","0","1",""
"","","","","","","","","","","","canvas-button-response","288","379396","0.0-288.0","597","10","","","","","","","","","","","","","","confidence","","","2","19","","","","","","","","","","14"
"","","","","","","","","","","","preload","289","379398","0.0-289.0","","","","","true","","","","","","","","","","","preload","","","2","20","false","[]","[]","[]","","","","","",""
"","","","","","","","","","","","canvas-keyboard-response","290","379700","0.0-290.0","null","null","","","","","","","","","","","","","","fixation","","","2","20","","","","","","","","","",""
"","","","","","","","","","","","canvas-keyboard-response","291","380002","0.0-291.0","null","null","","","","","","","","","","","","","","stimulus","","","2","20","","","","","","","","","",""
"","","","","","","","","","","","canvas-button-response","292","381686","0.0-292.0","1682","cat","","","","","","","","","","","","","","perceptual","","","2","20","","","","","99","phone","6","0","0",""
"","","","","","","","","","","","canvas-button-response","293","382530","0.0-293.0","841","2","","","","","","","","","","","","","","confidence","","","2","20","","","","","","","","","","14"
"","","","","","","","","","","","preload","294","382531","0.0-294.0","","","","","true","","","","","","","","","","","preload","","","2","21","false","[]","[]","[]","","","","","",""
"","","","","","","","","","","","canvas-keyboard-response","295","382833","0.0-295.0","null","null","","","","","","","","","","","","","","fixation","","","2","21","","","","","","","","","",""
"","","","","","","","","","","","canvas-keyboard-response","296","383136","0.0-296.0","null","null","","","","","","","","","","","","","","stimulus","","","2","21","","","","","","","","","",""
"","","","","","","","","","","","canvas-button-response","297","384536","0.0-297.0","1397","train","","","","","","","","","","","","","","perceptual","","","2","21","","","","","388","knife","10","0","0",""
"","","","","","","","","","","","canvas-button-response","298","385196","0.0-298.0","658","2","","","","","","","","","","","","","","confidence","","","2","21","","","","","","","","","","14"
"","","","","","","","","","","","preload","299","385197","0.0-299.0","","","","","true","","","","","","","","","","","preload","","","2","22","false","[]","[]","[]","","","","","",""
"","","","","","","","","","","","canvas-keyboard-response","300","385501","0.0-300.0","null","null","","","","","","","","","","","","","","fixation","","","2","22","","","","","","","","","",""
"","","","","","","","","","","","canvas-keyboard-response","301","385802","0.0-301.0","null","null","","","","","","","","","","","","","","stimulus","","","2","22","","","","","","","","","",""
"","","","","","","","","","","","canvas-button-response","302","387613","0.0-302.0","1808","house","","","","","","","","","","","","","","perceptual","","","2","22","","","","","4","house","6","0","1",""
"","","","","","","","","","","","canvas-button-response","303","388812","0.0-303.0","1197","7","","","","","","","","","","","","","","confidence","","","2","22","","","","","","","","","","15"
"","","","","","","","","","","","preload","304","388812","0.0-304.0","","","","","true","","","","","","","","","","","preload","","","2","23","false","[]","[]","[]","","","","","",""
"","","","","","","","","","","","canvas-keyboard-response","305","389114","0.0-305.0","null","null","","","","","","","","","","","","","","fixation","","","2","23","","","","","","","","","",""
"","","","","","","","","","","","canvas-keyboard-response","306","389417","0.0-306.0","null","null","","","","","","","","","","","","","","stimulus","","","2","23","","","","","","","","","",""
"","","","","","","","","","","","canvas-button-response","307","390163","0.0-307.0","744","elephant","","","","","","","","","","","","","","perceptual","","","2","23","","","","","339","elephant","6","0","1",""
"","","","","","","","","","","","canvas-button-response","308","390630","0.0-308.0","464","10","","","","","","","","","","","","","","confidence","","","2","23","","","","","","","","","","16"
"","","","","","","","","","","","preload","309","390631","0.0-309.0","","","","","true","","","","","","","","","","","preload","","","2","24","false","[]","[]","[]","","","","","",""
"","","","","","","","","","","","canvas-keyboard-response","310","390933","0.0-310.0","null","null","","","","","","","","","","","","","","fixation","","","2","24","","","","","","","","","",""
"","","","","","","","","","","","canvas-keyboard-response","311","391236","0.0-311.0","null","null","","","","","","","","","","","","","","stimulus","","","2","24","","","","","","","","","",""
"","","","","","","","","","","","canvas-button-response","312","392029","0.0-312.0","791","train","","","","","","","","","","","","","","perceptual","","","2","24","","","","","250","train","6","0","1",""
"","","","","","","","","","","","canvas-button-response","313","392763","0.0-313.0","731","10","","","","","","","","","","","","","","confidence","","","2","24","","","","","","","","","","17"
"","","","","","","","","","","","preload","314","392765","0.0-314.0","","","","","true","","","","","","","","","","","preload","","","2","25","false","[]","[]","[]","","","","","",""
"","","","","","","","","","","","canvas-keyboard-response","315","393067","0.0-315.0","null","null","","","","","","","","","","","","","","fixation","","","2","25","","","","","","","","","",""
"","","","","","","","","","","","canvas-keyboard-response","316","393370","0.0-316.0","null","null","","","","","","","","","","","","","","stimulus","","","2","25","","","","","","","","","",""
"","","","","","","","","","","","canvas-button-response","317","395011","0.0-317.0","1639","bridge","","","","","","","","","","","","","","perceptual","","","2","25","","","","","258","train","6","0","0",""
"","","","","","","","","","","","canvas-button-response","318","396075","0.0-318.0","1063","5","","","","","","","","","","","","","","confidence","","","2","25","","","","","","","","","","17"
"","","","","","","","","","","","preload","319","396077","0.0-319.0","","","","","true","","","","","","","","","","","preload","","","2","26","false","[]","[]","[]","","","","","",""
"","","","","","","","","","","","canvas-keyboard-response","320","396378","0.0-320.0","null","null","","","","","","","","","","","","","","fixation","","","2","26","","","","","","","","","",""
"","","","","","","","","","","","canvas-keyboard-response","321","396681","0.0-321.0","null","null","","","","","","","","","","","","","","stimulus","","","2","26","","","","","","","","","",""
"","","","","","","","","","","","canvas-button-response","322","397361","0.0-322.0","678","elephant","","","","","","","","","","","","","","perceptual","","","2","26","","","","","331","elephant","6","0","1",""
"","","","","","","","","","","","canvas-button-response","323","397830","0.0-323.0","467","10","","","","","","","","","","","","","","confidence","","","2","26","","","","","","","","","","18"
"","","","","","","","","","","","preload","324","397830","0.0-324.0","","","","","true","","","","","","","","","","","preload","","","2","27","false","[]","[]","[]","","","","","",""
"","","","","","","","","","","","canvas-keyboard-response","325","398131","0.0-325.0","null","null","","","","","","","","","","","","","","fixation","","","2","27","","","","","","","","","",""
"","","","","","","","","","","","canvas-keyboard-response","326","398434","0.0-326.0","null","null","","","","","","","","","","","","","","stimulus","","","2","27","","","","","","","","","",""
"","","","","","","","","","","","canvas-button-response","327","399119","0.0-327.0","682","train","","","","","","","","","","","","","","perceptual","","","2","27","","","","","267","train","10","0","1",""
"","","","","","","","","","","","canvas-button-response","328","399612","0.0-328.0","492","10","","","","","","","","","","","","","","confidence","","","2","27","","","","","","","","","","19"
"","","","","","","","","","","","preload","329","399613","0.0-329.0","","","","","true","","","","","","","","","","","preload","","","2","28","false","[]","[]","[]","","","","","",""
"","","","","","","","","","","","canvas-keyboard-response","330","399915","0.0-330.0","null","null","","","","","","","","","","","","","","fixation","","","2","28","","","","","","","","","",""
"","","","","","","","","","","","canvas-keyboard-response","331","400217","0.0-331.0","null","null","","","","","","","","","","","","","","stimulus","","","2","28","","","","","","","","","",""
"","","","","","","","","","","","canvas-button-response","332","401046","0.0-332.0","827","train","","","","","","","","","","","","","","perceptual","","","2","28","","","","","254","train","6","0","1",""
"","","","","","","","","","","","canvas-button-response","333","401463","0.0-333.0","414","10","","","","","","","","","","","","","","confidence","","","2","28","","","","","","","","","","20"
"","","","","","","","","","","","preload","334","401463","0.0-334.0","","","","","true","","","","","","","","","","","preload","","","2","29","false","[]","[]","[]","","","","","",""
"","","","","","","","","","","","canvas-keyboard-response","335","401765","0.0-335.0","null","null","","","","","","","","","","","","","","fixation","","","2","29","","","","","","","","","",""
"","","","","","","","","","","","canvas-keyboard-response","336","402068","0.0-336.0","null","null","","","","","","","","","","","","","","stimulus","","","2","29","","","","","","","","","",""
"","","","","","","","","","","","canvas-button-response","337","404029","0.0-337.0","1959","house","","","","","","","","","","","","","","perceptual","","","2","29","","","","","116","phone","10","0","0",""
"","","","","","","","","","","","canvas-button-response","338","404713","0.0-338.0","682","2","","","","","","","","","","","","","","confidence","","","2","29","","","","","","","","","","20"
"","","","","","","","","","","","preload","339","404714","0.0-339.0","","","","","true","","","","","","","","","","","preload","","","2","30","false","[]","[]","[]","","","","","",""
"","","","","","","","","","","","canvas-keyboard-response","340","405016","0.0-340.0","null","null","","","","","","","","","","","","","","fixation","","","2","30","","","","","","","","","",""
"","","","","","","","","","","","canvas-keyboard-response","341","405318","0.0-341.0","null","null","","","","","","","","","","","","","","stimulus","","","2","30","","","","","","","","","",""
"","","","","","","","","","","","canvas-button-response","342","406096","0.0-342.0","775","flower","","","","","","","","","","","","","","perceptual","","","2","30","","","","","238","flower","10","0","1",""
"","","","","","","","","","","","canvas-button-response","343","408646","0.0-343.0","2547","9","","","","","","","","","","","","","","confidence","","","2","30","","","","","","","","","","21"
"","","","","","","","","","","","preload","344","408647","0.0-344.0","","","","","true","","","","","","","","","","","preload","","","2","31","false","[]","[]","[]","","","","","",""
"","","","","","","","","","","","canvas-keyboard-response","345","408948","0.0-345.0","null","null","","","","","","","","","","","","","","fixation","","","2","31","","","","","","","","","",""
"","","","","","","","","","","","canvas-keyboard-response","346","409251","0.0-346.0","null","null","","","","","","","","","","","","","","stimulus","","","2","31","","","","","","","","","",""
"","","","","","","","","","","","canvas-button-response","347","413563","0.0-347.0","4309","knife","","","","","","","","","","","","","","perceptual","","","2","31","","","","","197","bridge","10","0","0",""
"","","","","","","","","","","","canvas-button-response","348","414780","0.0-348.0","1214","0","","","","","","","","","","","","","","confidence","","","2","31","","","","","","","","","","21"
"","","","","","","","","","","","preload","349","414781","0.0-349.0","","","","","true","","","","","","","","","","","preload","","","2","32","false","[]","[]","[]","","","","","",""
"","","","","","","","","","","","canvas-keyboard-response","350","415083","0.0-350.0","null","null","","","","","","","","","","","","","","fixation","","","2","32","","","","","","","","","",""
"","","","","","","","","","","","canvas-keyboard-response","351","415386","0.0-351.0","null","null","","","","","","","","","","","","","","stimulus","","","2","32","","","","","","","","","",""
"","","","","","","","","","","","canvas-button-response","352","416252","0.0-352.0","864","elephant","","","","","","","","","","","","","","perceptual","","","2","32","","","","","355","elephant","10","0","1",""
"","","","","","","","","","","","canvas-button-response","353","416745","0.0-353.0","491","10","","","","","","","","","","","","","","confidence","","","2","32","","","","","","","","","","22"
"","","","","","","","","","","","preload","354","416746","0.0-354.0","","","","","true","","","","","","","","","","","preload","","","2","33","false","[]","[]","[]","","","","","",""
"","","","","","","","","","","","canvas-keyboard-response","355","417048","0.0-355.0","null","null","","","","","","","","","","","","","","fixation","","","2","33","","","","","","","","","",""
"","","","","","","","","","","","canvas-keyboard-response","356","417351","0.0-356.0","null","null","","","","","","","","","","","","","","stimulus","","","2","33","","","","","","","","","",""
"","","","","","","","","","","","canvas-button-response","357","419180","0.0-357.0","1826","car","","","","","","","","","","","","","","perceptual","","","2","33","","","","","22","house","10","0","0",""
"","","","","","","","","","","","canvas-button-response","358","419979","0.0-358.0","797","2","","","","","","","","","","","","","","confidence","","","2","33","","","","","","","","","","22"
"","","","","","","","","","","","preload","359","419981","0.0-359.0","","","","","true","","","","","","","","","","","preload","","","2","34","false","[]","[]","[]","","","","","",""
"","","","","","","","","","","","canvas-keyboard-response","360","420283","0.0-360.0","null","null","","","","","","","","","","","","","","fixation","","","2","34","","","","","","","","","",""
"","","","","","","","","","","","canvas-keyboard-response","361","420585","0.0-361.0","null","null","","","","","","","","","","","","","","stimulus","","","2","34","","","","","","","","","",""
"","","","","","","","","","","","canvas-button-response","362","421529","0.0-362.0","941","car","","","","","","","","","","","","","","perceptual","","","2","34","","","","","79","car","10","0","1",""
"","","","","","","","","","","","canvas-button-response","363","422219","0.0-363.0","688","8","","","","","","","","","","","","","","confidence","","","2","34","","","","","","","","","","23"
"","","","","","","","","","","","preload","364","422219","0.0-364.0","","","","","true","","","","","","","","","","","preload","","","2","35","false","[]","[]","[]","","","","","",""
"","","","","","","","","","","","canvas-keyboard-response","365","422521","0.0-365.0","null","null","","","","","","","","","","","","","","fixation","","","2","35","","","","","","","","","",""
"","","","","","","","","","","","canvas-keyboard-response","366","422824","0.0-366.0","null","null","","","","","","","","","","","","","","stimulus","","","2","35","","","","","","","","","",""
"","","","","","","","","","","","canvas-button-response","367","424179","0.0-367.0","1352","house","","","","","","","","","","","","","","perceptual","","","2","35","","","","","184","bridge","10","0","0",""
"","","","","","","","","","","","canvas-button-response","368","424896","0.0-368.0","715","8","","","","","","","","","","","","","","confidence","","","2","35","","","","","","","","","","23"
"","","","","","","","","","","","preload","369","424897","0.0-369.0","","","","","true","","","","","","","","","","","preload","","","2","36","false","[]","[]","[]","","","","","",""
"","","","","","","","","","","","canvas-keyboard-response","370","425199","0.0-370.0","null","null","","","","","","","","","","","","","","fixation","","","2","36","","","","","","","","","",""
"","","","","","","","","","","","canvas-keyboard-response","371","425502","0.0-371.0","null","null","","","","","","","","","","","","","","stimulus","","","2","36","","","","","","","","","",""
"","","","","","","","","","","","canvas-button-response","372","426252","0.0-372.0","748","car","","","","","","","","","","","","","","perceptual","","","2","36","","","","","56","car","6","0","1",""
"","","","","","","","","","","","canvas-button-response","373","427163","0.0-373.0","909","10","","","","","","","","","","","","","","confidence","","","2","36","","","","","","","","","","24"
"","","","","","","","","","","","preload","374","427164","0.0-374.0","","","","","true","","","","","","","","","","","preload","","","2","37","false","[]","[]","[]","","","","","",""
"","","","","","","","","","","","canvas-keyboard-response","375","427464","0.0-375.0","null","null","","","","","","","","","","","","","","fixation","","","2","37","","","","","","","","","",""
"","","","","","","","","","","","canvas-keyboard-response","376","427767","0.0-376.0","null","null","","","","","","","","","","","","","","stimulus","","","2","37","","","","","","","","","",""
"","","","","","","","","","","","canvas-button-response","377","430363","0.0-377.0","2593","cat","","","","","","","","","","","","","","perceptual","","","2","37","","","","","106","phone","10","0","0",""
"","","","","","","","","","","","canvas-button-response","378","431230","0.0-378.0","864","6","","","","","","","","","","","","","","confidence","","","2","37","","","","","","","","","","24"
"","","","","","","","","","","","preload","379","431231","0.0-379.0","","","","","true","","","","","","","","","","","preload","","","2","38","false","[]","[]","[]","","","","","",""
"","","","","","","","","","","","canvas-keyboard-response","380","431533","0.0-380.0","null","null","","","","","","","","","","","","","","fixation","","","2","38","","","","","","","","","",""
"","","","","","","","","","","","canvas-keyboard-response","381","431836","0.0-381.0","null","null","","","","","","","","","","","","","","stimulus","","","2","38","","","","","","","","","",""
"","","","","","","","","","","","canvas-button-response","382","433546","0.0-382.0","1708","flower","","","","","","","","","","","","","","perceptual","","","2","38","","","","","0","house","6","0","0",""
"","","","","","","","","","","","canvas-button-response","383","434329","0.0-383.0","781","3","","","","","","","","","","","","","","confidence","","","2","38","","","","","","","","","","24"
"","","","","","","","","","","","preload","384","434330","0.0-384.0","","","","","true","","","","","","","","","","","preload","","","2","39","false","[]","[]","[]","","","","","",""
"","","","","","","","","","","","canvas-keyboard-response","385","434632","0.0-385.0","null","null","","","","","","","","","","","","","","fixation","","","2","39","","","","","","","","","",""
"","","","","","","","","","","","canvas-keyboard-response","386","434935","0.0-386.0","null","null","","","","","","","","","","","","","","stimulus","","","2","39","","","","","","","","","",""
"","","","","","","","","","","","canvas-button-response","387","435861","0.0-387.0","924","car","","","","","","","","","","","","","","perceptual","","","2","39","","","","","59","car","6","0","1",""
"","","","","","","","","","","","canvas-button-response","388","436452","0.0-388.0","589","10","","","","","","","","","","","","","","confidence","","","2","39","","","","","","","","","","25"
"","","","","","","","","","","","preload","389","436453","0.0-389.0","","","","","true","","","","","","","","","","","preload","","","2","40","false","[]","[]","[]","","","","","",""
"","","","","","","","","","","","canvas-keyboard-response","390","436754","0.0-390.0","null","null","","","","","","","","","","","","","","fixation","","","2","40","","","","","","","","","",""
"","","","","","","","","","","","canvas-keyboard-response","391","437057","0.0-391.0","null","null","","","","","","","","","","","","","","stimulus","","","2","40","","","","","","","","","",""
"","","","","","","","","","","","canvas-button-response","392","437711","0.0-392.0","652","flower","","","","","","","","","","","","","","perceptual","","","2","40","","","","","213","flower","6","0","1",""
"","","","","","","","","","","","canvas-button-response","393","438347","0.0-393.0","633","10","","","","","","","","","","","","","","confidence","","","2","40","","","","","","","","","","26"
"","","","","","","","","","","","preload","394","438348","0.0-394.0","","","","","true","","","","","","","","","","","preload","","","2","41","false","[]","[]","[]","","","","","",""
"","","","","","","","","","","","canvas-keyboard-response","395","438649","0.0-395.0","null","null","","","","","","","","","","","","","","fixation","","","2","41","","","","","","","","","",""
"","","","","","","","","","","","canvas-keyboard-response","396","438952","0.0-396.0","null","null","","","","","","","","","","","","","","stimulus","","","2","41","","","","","","","","","",""
"","","","","","","","","","","","canvas-button-response","397","439601","0.0-397.0","647","cat","","","","","","","","","","","","","","perceptual","","","2","41","","","","","283","cat","6","0","1",""
"","","","","","","","","","","","canvas-button-response","398","440186","0.0-398.0","583","10","","","","","","","","","","","","","","confidence","","","2","41","","","","","","","","","","27"
"","","","","","","","","","","","preload","399","440187","0.0-399.0","","","","","true","","","","","","","","","","","preload","","","2","42","false","[]","[]","[]","","","","","",""
"","","","","","","","","","","","canvas-keyboard-response","400","440489","0.0-400.0","null","null","","","","","","","","","","","","","","fixation","","","2","42","","","","","","","","","",""
"","","","","","","","","","","","canvas-keyboard-response","401","440792","0.0-401.0","null","null","","","","","","","","","","","","","","stimulus","","","2","42","","","","","","","","","",""
"","","","","","","","","","","","canvas-button-response","402","442613","0.0-402.0","1818","knife","","","","","","","","","","","","","","perceptual","","","2","42","","","","","311","cat","10","0","0",""
"","","","","","","","","","","","canvas-button-response","403","443646","0.0-403.0","1031","2","","","","","","","","","","","","","","confidence","","","2","42","","","","","","","","","","27"
"","","","","","","","","","","","preload","404","443647","0.0-404.0","","","","","true","","","","","","","","","","","preload","","","2","43","false","[]","[]","[]","","","","","",""
"","","","","","","","","","","","canvas-keyboard-response","405","443948","0.0-405.0","null","null","","","","","","","","","","","","","","fixation","","","2","43","","","","","","","","","",""
"","","","","","","","","","","","canvas-keyboard-response","406","444251","0.0-406.0","null","null","","","","","","","","","","","","","","stimulus","","","2","43","","","","","","","","","",""
"","","","","","","","","","","","canvas-button-response","407","447447","0.0-407.0","3193","phone","","","","","","","","","","","","","","perceptual","","","2","43","","","","","125","bed","6","0","0",""
"","","","","","","","","","","","canvas-button-response","408","448129","0.0-408.0","680","1","","","","","","","","","","","","","","confidence","","","2","43","","","","","","","","","","27"
"","","","","","","","","","","","preload","409","448130","0.0-409.0","","","","","true","","","","","","","","","","","preload","","","2","44","false","[]","[]","[]","","","","","",""
"","","","","","","","","","","","canvas-keyboard-response","410","448433","0.0-410.0","null","null","","","","","","","","","","","","","","fixation","","","2","44","","","","","","","","","",""
"","","","","","","","","","","","canvas-keyboard-response","411","448736","0.0-411.0","null","null","","","","","","","","","","","","","","stimulus","","","2","44","","","","","","","","","",""
"","","","","","","","","","","","canvas-button-response","412","449562","0.0-412.0","824","train","","","","","","","","","","","","","","perceptual","","","2","44","","","","","195","bridge","10","0","0",""
"","","","","","","","","","","","canvas-button-response","413","450600","0.0-413.0","1035","7","","","","","","","","","","","","","","confidence","","","2","44","","","","","","","","","","27"
"","","","","","","","","","","","preload","414","450601","0.0-414.0","","","","","true","","","","","","","","","","","preload","","","2","45","false","[]","[]","[]","","","","","",""
"","","","","","","","","","","","canvas-keyboard-response","415","450904","0.0-415.0","null","null","","","","","","","","","","","","","","fixation","","","2","45","","","","","","","","","",""
"","","","","","","","","","","","canvas-keyboard-response","416","451207","0.0-416.0","null","null","","","","","","","","","","","","","","stimulus","","","2","45","","","","","","","","","",""
"","","","","","","","","","","","canvas-button-response","417","451896","0.0-417.0","687","elephant","","","","","","","","","","","","","","perceptual","","","2","45","","","","","340","elephant","10","0","1",""
"","","","","","","","","","","","canvas-button-response","418","452428","0.0-418.0","530","10","","","","","","","","","","","","","","confidence","","","2","45","","","","","","","","","","28"
"","","","","","","","","","","","preload","419","452429","0.0-419.0","","","","","true","","","","","","","","","","","preload","","","2","46","false","[]","[]","[]","","","","","",""
"","","","","","","","","","","","canvas-keyboard-response","420","452730","0.0-420.0","null","null","","","","","","","","","","","","","","fixation","","","2","46","","","","","","","","","",""
"","","","","","","","","","","","canvas-keyboard-response","421","453033","0.0-421.0","null","null","","","","","","","","","","","","","","stimulus","","","2","46","","","","","","","","","",""
"","","","","","","","","","","","canvas-button-response","422","454695","0.0-422.0","1659","phone","","","","","","","","","","","","","","perceptual","","","2","46","","","","","143","bed","10","0","0",""
"","","","","","","","","","","","canvas-button-response","423","455501","0.0-423.0","805","5","","","","","","","","","","","","","","confidence","","","2","46","","","","","","","","","","28"
"","","","","","","","","","","","preload","424","455501","0.0-424.0","","","","","true","","","","","","","","","","","preload","","","2","47","false","[]","[]","[]","","","","","",""
"","","","","","","","","","","","canvas-keyboard-response","425","455803","0.0-425.0","null","null","","","","","","","","","","","","","","fixation","","","2","47","","","","","","","","","",""
"","","","","","","","","","","","canvas-keyboard-response","426","456106","0.0-426.0","null","null","","","","","","","","","","","","","","stimulus","","","2","47","","","","","","","","","",""
"","","","","","","","","","","","canvas-button-response","427","457129","0.0-427.0","1022","bridge","","","","","","","","","","","","","","perceptual","","","2","47","","","","","172","bridge","6","0","1",""
"","","","","","","","","","","","canvas-button-response","428","458171","0.0-428.0","1039","7","","","","","","","","","","","","","","confidence","","","2","47","","","","","","","","","","29"
"","","","","","","","","","","","preload","429","458172","0.0-429.0","","","","","true","","","","","","","","","","","preload","","","2","48","false","[]","[]","[]","","","","","",""
"","","","","","","","","","","","canvas-keyboard-response","430","458474","0.0-430.0","null","null","","","","","","","","","","","","","","fixation","","","2","48","","","","","","","","","",""
"","","","","","","","","","","","canvas-keyboard-response","431","458776","0.0-431.0","null","null","","","","","","","","","","","","","","stimulus","","","2","48","","","","","","","","","",""
"","","","","","","","","","","","canvas-button-response","432","461787","0.0-432.0","3008","train","","","","","","","","","","","","","","perceptual","","","2","48","","","","","245","train","6","0","1",""
"","","","","","","","","","","","canvas-button-response","433","462867","0.0-433.0","1077","5","","","","","","","","","","","","","","confidence","","","2","48","","","","","","","","","","30"
"","","","","","","","","","","","preload","434","462867","0.0-434.0","","","","","true","","","","","","","","","","","preload","","","2","49","false","[]","[]","[]","","","","","",""
"","","","","","","","","","","","canvas-keyboard-response","435","463170","0.0-435.0","null","null","","","","","","","","","","","","","","fixation","","","2","49","","","","","","","","","",""
"","","","","","","","","","","","canvas-keyboard-response","436","463473","0.0-436.0","null","null","","","","","","","","","","","","","","stimulus","","","2","49","","","","","","","","","",""
"","","","","","","","","","","","canvas-button-response","437","464853","0.0-437.0","1378","car","","","","","","","","","","","","","","perceptual","","","2","49","","","","","47","car","6","0","1",""
"","","","","","","","","","","","canvas-button-response","438","465513","0.0-438.0","657","5","","","","","","","","","","","","","","confidence","","","2","49","","","","","","","","","","31"
"","","","","","","","","","","","html-button-response","439","514012","0.0-439.0","48497","0","","","","","","","","","","","","","","<p style=""font-size:20px;color:#000000"">You got 31 out of 50 trials correct in this block.<br><br>You have completed 6% of the experiment.<br><br>Take a short break.<br><br>When you are ready, click Continue to proceed.","","","2","49","","","","","","","","","",""
"","","","","","","","","","","","html-keyboard-response","440","515015","0.0-440.0","null","null","","","","","","","","","","","","","","<p style=""font-size:32px;color:#000000""><br><br> RUN: &nbsp 1/4 <br><br> BLOCK: 2/4 ","","","2","49","","","","","","","","","",""
"","","","","","","","","","","","preload","441","515016","0.0-441.0","","","","","true","","","","","","","","","","","preload","","","2","50","false","[]","[]","[]","","","","","",""
"","","","","","","","","","","","canvas-keyboard-response","442","515320","0.0-442.0","null","null","","","","","","","","","","","","","","fixation","","","2","50","","","","","","","","","",""
"","","","","","","","","","","","canvas-keyboard-response","443","515623","0.0-443.0","null","null","","","","","","","","","","","","","","stimulus","","","2","50","","","","","","","","","",""
"","","","","","","","","","","","canvas-button-response","444","516536","0.0-444.0","910","cat","","","","","","","","","","","","","","perceptual","","","2","50","","","","","297","cat","6","0","1",""
"","","","","","","","","","","","canvas-button-response","445","517197","0.0-445.0","658","10","","","","","","","","","","","","","","confidence","","","2","50","","","","","","","","","","1"
"","","","","","","","","","","","preload","446","517198","0.0-446.0","","","","","true","","","","","","","","","","","preload","","","2","51","false","[]","[]","[]","","","","","",""
"","","","","","","","","","","","canvas-keyboard-response","447","517500","0.0-447.0","null","null","","","","","","","","","","","","","","fixation","","","2","51","","","","","","","","","",""
"","","","","","","","","","","","canvas-keyboard-response","448","517802","0.0-448.0","null","null","","","","","","","","","","","","","","stimulus","","","2","51","","","","","","","","","",""
"","","","","","","","","","","","canvas-button-response","449","518984","0.0-449.0","1179","elephant","","","","","","","","","","","","","","perceptual","","","2","51","","","","","337","elephant","6","0","1",""
"","","","","","","","","","","","canvas-button-response","450","519480","0.0-450.0","494","10","","","","","","","","","","","","","","confidence","","","2","51","","","","","","","","","","2"
"","","","","","","","","","","","preload","451","519481","0.0-451.0","","","","","true","","","","","","","","","","","preload","","","2","52","false","[]","[]","[]","","","","","",""
"","","","","","","","","","","","canvas-keyboard-response","452","519782","0.0-452.0","null","null","","","","","","","","","","","","","","fixation","","","2","52","","","","","","","","","",""
"","","","","","","","","","","","canvas-keyboard-response","453","520086","0.0-453.0","null","null","","","","","","","","","","","","","","stimulus","","","2","52","","","","","","","","","",""
"","","","","","","","","","","","canvas-button-response","454","521097","0.0-454.0","1008","train","","","","","","","","","","","","","","perceptual","","","2","52","","","","","277","train","10","0","1",""
"","","","","","","","","","","","canvas-button-response","455","521663","0.0-455.0","563","10","","","","","","","","","","","","","","confidence","","","2","52","","","","","","","","","","3"
"","","","","","","","","","","","preload","456","521664","0.0-456.0","","","","","true","","","","","","","","","","","preload","","","2","53","false","[]","[]","[]","","","","","",""
"","","","","","","","","","","","canvas-keyboard-response","457","521966","0.0-457.0","null","null","","","","","","","","","","","","","","fixation","","","2","53","","","","","","","","","",""
"","","","","","","","","","","","canvas-keyboard-response","458","522269","0.0-458.0","null","null","","","","","","","","","","","","","","stimulus","","","2","53","","","","","","","","","",""
"","","","","","","","","","","","canvas-button-response","459","523529","0.0-459.0","1258","car","","","","","","","","","","","","","","perceptual","","","2","53","","","","","308","cat","10","0","0",""
"","","","","","","","","","","","canvas-button-response","460","524629","0.0-460.0","1097","1","","","","","","","","","","","","","","confidence","","","2","53","","","","","","","","","","3"
"","","","","","","","","","","","preload","461","524629","0.0-461.0","","","","","true","","","","","","","","","","","preload","","","2","54","false","[]","[]","[]","","","","","",""
"","","","","","","","","","","","canvas-keyboard-response","462","524931","0.0-462.0","null","null","","","","","","","","","","","","","","fixation","","","2","54","","","","","","","","","",""
"","","","","","","","","","","","canvas-keyboard-response","463","525234","0.0-463.0","null","null","","","","","","","","","","","","","","stimulus","","","2","54","","","","","","","","","",""
"","","","","","","","","","","","canvas-button-response","464","526117","0.0-464.0","881","car","","","","","","","","","","","","","","perceptual","","","2","54","","","","","193","bridge","10","0","0",""
"","","","","","","","","","","","canvas-button-response","465","526867","0.0-465.0","749","1","","","","","","","","","","","","","","confidence","","","2","54","","","","","","","","","","3"
"","","","","","","","","","","","preload","466","526868","0.0-466.0","","","","","true","","","","","","","","","","","preload","","","2","55","false","[]","[]","[]","","","","","",""
"","","","","","","","","","","","canvas-keyboard-response","467","527171","0.0-467.0","null","null","","","","","","","","","","","","","","fixation","","","2","55","","","","","","","","","",""
"","","","","","","","","","","","canvas-keyboard-response","468","527474","0.0-468.0","null","null","","","","","","","","","","","","","","stimulus","","","2","55","","","","","","","","","",""
"","","","","","","","","","","","canvas-button-response","469","528279","0.0-469.0","802","flower","","","","","","","","","","","","","","perceptual","","","2","55","","","","","201","flower","6","0","1",""
"","","","","","","","","","","","canvas-button-response","470","528951","0.0-470.0","670","10","","","","","","","","","","","","","","confidence","","","2","55","","","","","","","","","","4"
"","","","","","","","","","","","preload","471","528952","0.0-471.0","","","","","true","","","","","","","","","","","preload","","","2","56","false","[]","[]","[]","","","","","",""
"","","","","","","","","","","","canvas-keyboard-response","472","529253","0.0-472.0","null","null","","","","","","","","","","","","","","fixation","","","2","56","","","","","","","","","",""
"","","","","","","","","","","","canvas-keyboard-response","473","529556","0.0-473.0","null","null","","","","","","","","","","","","","","stimulus","","","2","56","","","","","","","","","",""
"","","","","","","","","","","","canvas-button-response","474","531329","0.0-474.0","1770","bed","","","","","","","","","","","","","","perceptual","","","2","56","","","","","33","house","10","0","0",""
"","","","","","","","","","","","canvas-button-response","475","532146","0.0-475.0","815","2","","","","","","","","","","","","","","confidence","","","2","56","","","","","","","","","","4"
"","","","","","","","","","","","preload","476","532147","0.0-476.0","","","","","true","","","","","","","","","","","preload","","","2","57","false","[]","[]","[]","","","","","",""
"","","","","","","","","","","","canvas-keyboard-response","477","532449","0.0-477.0","null","null","","","","","","","","","","","","","","fixation","","","2","57","","","","","","","","","",""
"","","","","","","","","","","","canvas-keyboard-response","478","532752","0.0-478.0","null","null","","","","","","","","","","","","","","stimulus","","","2","57","","","","","","","","","",""
"","","","","","","","","","","","canvas-button-response","479","534961","0.0-479.0","2207","knife","","","","","","","","","","","","","","perceptual","","","2","57","","","","","111","phone","10","0","0",""
"","","","","","","","","","","","canvas-button-response","480","535478","0.0-480.0","515","1","","","","","","","","","","","","","","confidence","","","2","57","","","","","","","","","","4"
"","","","","","","","","","","","preload","481","535478","0.0-481.0","","","","","true","","","","","","","","","","","preload","","","2","58","false","[]","[]","[]","","","","","",""
"","","","","","","","","","","","canvas-keyboard-response","482","535780","0.0-482.0","null","null","","","","","","","","","","","","","","fixation","","","2","58","","","","","","","","","",""
"","","","","","","","","","","","canvas-keyboard-response","483","536083","0.0-483.0","null","null","","","","","","","","","","","","","","stimulus","","","2","58","","","","","","","","","",""
"","","","","","","","","","","","canvas-button-response","484","537196","0.0-484.0","1111","train","","","","","","","","","","","","","","perceptual","","","2","58","","","","","269","train","10","0","1",""
"","","","","","","","","","","","canvas-button-response","485","537828","0.0-485.0","631","5","","","","","","","","","","","","","","confidence","","","2","58","","","","","","","","","","5"
"","","","","","","","","","","","preload","486","537829","0.0-486.0","","","","","true","","","","","","","","","","","preload","","","2","59","false","[]","[]","[]","","","","","",""
"","","","","","","","","","","","canvas-keyboard-response","487","538131","0.0-487.0","null","null","","","","","","","","","","","","","","fixation","","","2","59","","","","","","","","","",""
"","","","","","","","","","","","canvas-keyboard-response","488","538434","0.0-488.0","null","null","","","","","","","","","","","","","","stimulus","","","2","59","","","","","","","","","",""
"","","","","","","","","","","","canvas-button-response","489","540229","0.0-489.0","1792","bed","","","","","","","","","","","","","","perceptual","","","2","59","","","","","90","phone","6","0","0",""
"","","","","","","","","","","","canvas-button-response","490","540846","0.0-490.0","614","7","","","","","","","","","","","","","","confidence","","","2","59","","","","","","","","","","5"
"","","","","","","","","","","","preload","491","540847","0.0-491.0","","","","","true","","","","","","","","","","","preload","","","2","60","false","[]","[]","[]","","","","","",""
