"width","height","webaudio","browser","browser_version","mobile","os","fullscreen","vsync_rate","webcam","microphone","trial_type","trial_index","time_elapsed","internal_node_id","rt","response","accuracy","view_history","success","item_width_mm","item_height_mm","item_width_px","px2mm","view_dist_mm","item_width_deg","px2deg","scale_factor","win_width_deg","win_height_deg","stimulus","datetime","subjectID","curr_triallist","trial_no","timeout","failed_images","failed_audio","failed_video","image_index","category","blur","reps","correct","running_score"
"1728","992","true","chrome","140.0.0","false","Mac OS","true","120.51","true","true","browser-check","0","502","0.0-0.0","","","","","","","","","","","","","","","","","","","","","","","","","","","","","",""
"","","","","","","","","","","","survey","1","2361375","0.0-1.0","290223","{""P0_Q0"":""904109233"",""P0_Q1"":""18"",""P1_Q0"":""Female"",""P1_Q1"":""Not Hispanic or Latino"",""P1_Q2"":""Asian"",""P1_Q3"":""Corrected-to-Normal (using glasses/contacts)"",""P1_Q4"":""Right-Handed""}","[]","","","","","","","","","","","","","","","","","","","","","","","","","","",""
"","","","","","","","","","","","instructions","2","2405257","0.0-2.0","43882","","","[{""page_index"":0,""viewing_time"":6707},{""page_index"":1,""viewing_time"":8017},{""page_index"":2,""viewing_time"":24375},{""page_index"":3,""viewing_time"":4784}]","","","","","","","","","","","","","","","","","","","","","","","","","",""
"","","","","","","","","","","","fullscreen","3","2408063","0.0-3.0","1802","","","","true","","","","","","","","","","","","","","","","","","","","","","","","",""
"","","","","","","","","","","","virtual-chinrest","4","2467482","0.0-4.0","59417","","","","","85.6","53.98","373.1094264523883","4.356006604394878","392.8","12.436980881746276","30","1.0881526201584961","57.6","36","","","","","","","","","","","","","","",""
"","","","","","","","","","","","instructions","5","2502639","0.0-5.0","35156","","","[{""page_index"":0,""viewing_time"":3418},{""page_index"":1,""viewing_time"":4788},{""page_index"":2,""viewing_time"":8421},{""page_index"":3,""viewing_time"":4992},{""page_index"":4,""viewing_time"":3425},{""page_index"":5,""viewing_time"":8659},{""page_index"":6,""viewing_time"":1454}]","","","","","","","","","","","","","","","","","","","","","","","","","",""
"","","","","","","","","","","","html-button-response","6","2504673","0.0-6.0","2031","0","","","","","","","","","","","","","","start_practice","Sat Oct 18 2025 17:31:59 GMT-0400 (Eastern Daylight Time)","26977","","","","","","","","","","","",""
"","","","","","","","","","","","preload","7","2504675","0.0-7.0","","","","","true","","","","","","","","","","","preload","","","0","0","false","[]","[]","[]","","","","","",""
"","","","","","","","","","","","canvas-keyboard-response","8","2504978","0.0-8.0","null","null","","","","","","","","","","","","","","fixation","","","0","0","","","","","","","","","",""
"","","","","","","","","","","","canvas-keyboard-response","9","2505282","0.0-9.0","null","null","","","","","","","","","","","","","","stimulus","","","0","0","","","","","","","","","",""
"","","","","","","","","","","","canvas-button-response","10","2509914","0.0-10.0","4628","house","","","","","","","","","","","","","","perceptual","","","0","0","","","","","52","flower","1","","0",""
"","","","","","","","","","","","canvas-button-response","11","2512677","0.0-11.0","2760","7","","","","","","","","","","","","","","confidence","","","0","0","","","","","","","","","","0"
"","","","","","","","","","","","html-keyboard-response","12","2513681","0.0-12.0","null","null","","","","","","","","","","","","","","feedback","Sat Oct 18 2025 17:32:09 GMT-0400 (Eastern Daylight Time)","26977","0","0","","","","","","","","","",""
"","","","","","","","","","","","preload","13","2513682","0.0-13.0","","","","","true","","","","","","","","","","","preload","","","0","1","false","[]","[]","[]","","","","","",""
"","","","","","","","","","","","canvas-keyboard-response","14","2513984","0.0-14.0","null","null","","","","","","","","","","","","","","fixation","","","0","1","","","","","","","","","",""
"","","","","","","","","","","","canvas-keyboard-response","15","2514286","0.0-15.0","null","null","","","","","","","","","","","","","","stimulus","","","0","1","","","","","","","","","",""
"","","","","","","","","","","","canvas-button-response","16","2515835","0.0-16.0","1547","cat","","","","","","","","","","","","","","perceptual","","","0","1","","","","","72","cat","1","","1",""
"","","","","","","","","","","","canvas-button-response","17","2516651","0.0-17.0","814","10","","","","","","","","","","","","","","confidence","","","0","1","","","","","","","","","","1"
"","","","","","","","","","","","html-keyboard-response","18","2517653","0.0-18.0","null","null","","","","","","","","","","","","","","feedback","Sat Oct 18 2025 17:32:13 GMT-0400 (Eastern Daylight Time)","26977","0","1","","","","","","","","","",""
"","","","","","","","","","","","preload","19","2517654","0.0-19.0","","","","","true","","","","","","","","","","","preload","","","0","2","false","[]","[]","[]","","","","","",""
"","","","","","","","","","","","canvas-keyboard-response","20","2517957","0.0-20.0","null","null","","","","","","","","","","","","","","fixation","","","0","2","","","","","","","","","",""
"","","","","","","","","","","","canvas-keyboard-response","21","2518260","0.0-21.0","null","null","","","","","","","","","","","","","","stimulus","","","0","2","","","","","","","","","",""
"","","","","","","","","","","","canvas-button-response","22","2520610","0.0-22.0","2348","train","","","","","","","","","","","","","","perceptual","","","0","2","","","","","62","train","1","","1",""
"","","","","","","","","","","","canvas-button-response","23","2521289","0.0-23.0","676","10","","","","","","","","","","","","","","confidence","","","0","2","","","","","","","","","","2"
"","","","","","","","","","","","html-keyboard-response","24","2522292","0.0-24.0","null","null","","","","","","","","","","","","","","feedback","Sat Oct 18 2025 17:32:17 GMT-0400 (Eastern Daylight Time)","26977","0","2","","","","","","","","","",""
"","","","","","","","","","","","preload","25","2522292","0.0-25.0","","","","","true","","","","","","","","","","","preload","","","0","3","false","[]","[]","[]","","","","","",""
"","","","","","","","","","","","canvas-keyboard-response","26","2522596","0.0-26.0","null","null","","","","","","","","","","","","","","fixation","","","0","3","","","","","","","","","",""
"","","","","","","","","","","","canvas-keyboard-response","27","2522898","0.0-27.0","null","null","","","","","","","","","","","","","","stimulus","","","0","3","","","","","","","","","",""
"","","","","","","","","","","","canvas-button-response","28","2523893","0.0-28.0","993","car","","","","","","","","","","","","","","perceptual","","","0","3","","","","","12","car","1","","1",""
"","","","","","","","","","","","canvas-button-response","29","2525377","0.0-29.0","1482","10","","","","","","","","","","","","","","confidence","","","0","3","","","","","","","","","","3"
"","","","","","","","","","","","html-keyboard-response","30","2526380","0.0-30.0","null","null","","","","","","","","","","","","","","feedback","Sat Oct 18 2025 17:32:21 GMT-0400 (Eastern Daylight Time)","26977","0","3","","","","","","","","","",""
"","","","","","","","","","","","preload","31","2526381","0.0-31.0","","","","","true","","","","","","","","","","","preload","","","0","4","false","[]","[]","[]","","","","","",""
"","","","","","","","","","","","canvas-keyboard-response","32","2526683","0.0-32.0","null","null","","","","","","","","","","","","","","fixation","","","0","4","","","","","","","","","",""
"","","","","","","","","","","","canvas-keyboard-response","33","2526987","0.0-33.0","null","null","","","","","","","","","","","","","","stimulus","","","0","4","","","","","","","","","",""
"","","","","","","","","","","","canvas-button-response","34","2532839","0.0-34.0","5850","bed","","","","","","","","","","","","","","perceptual","","","0","4","","","","","42","bridge","1","","0",""
"","","","","","","","","","","","canvas-button-response","35","2533680","0.0-35.0","839","0","","","","","","","","","","","","","","confidence","","","0","4","","","","","","","","","","3"
"","","","","","","","","","","","html-keyboard-response","36","2534682","0.0-36.0","null","null","","","","","","","","","","","","","","feedback","Sat Oct 18 2025 17:32:30 GMT-0400 (Eastern Daylight Time)","26977","0","4","","","","","","","","","",""
"","","","","","","","","","","","preload","37","2534683","0.0-37.0","","","","","true","","","","","","","","","","","preload","","","0","5","false","[]","[]","[]","","","","","",""
"","","","","","","","","","","","canvas-keyboard-response","38","2534986","0.0-38.0","null","null","","","","","","","","","","","","","","fixation","","","0","5","","","","","","","","","",""
"","","","","","","","","","","","canvas-keyboard-response","39","2535288","0.0-39.0","null","null","","","","","","","","","","","","","","stimulus","","","0","5","","","","","","","","","",""
"","","","","","","","","","","","canvas-button-response","40","2537780","0.0-40.0","2489","phone","","","","","","","","","","","","","","perceptual","","","0","5","","","","","22","phone","1","","1",""
"","","","","","","","","","","","canvas-button-response","41","2538997","0.0-41.0","1215","10","","","","","","","","","","","","","","confidence","","","0","5","","","","","","","","","","4"
"","","","","","","","","","","","html-keyboard-response","42","2539999","0.0-42.0","null","null","","","","","","","","","","","","","","feedback","Sat Oct 18 2025 17:32:35 GMT-0400 (Eastern Daylight Time)","26977","0","5","","","","","","","","","",""
"","","","","","","","","","","","preload","43","2540000","0.0-43.0","","","","","true","","","","","","","","","","","preload","","","0","6","false","[]","[]","[]","","","","","",""
"","","","","","","","","","","","canvas-keyboard-response","44","2540302","0.0-44.0","null","null","","","","","","","","","","","","","","fixation","","","0","6","","","","","","","","","",""
"","","","","","","","","","","","canvas-keyboard-response","45","2540605","0.0-45.0","null","null","","","","","","","","","","","","","","stimulus","","","0","6","","","","","","","","","",""
"","","","","","","","","","","","canvas-button-response","46","2547909","0.0-46.0","7302","house","","","","","","","","","","","","","","perceptual","","","0","6","","","","","82","elephant","1","","0",""
"","","","","","","","","","","","canvas-button-response","47","2549409","0.0-47.0","1499","6","","","","","","","","","","","","","","confidence","","","0","6","","","","","","","","","","4"
"","","","","","","","","","","","html-keyboard-response","48","2550412","0.0-48.0","null","null","","","","","","","","","","","","","","feedback","Sat Oct 18 2025 17:32:45 GMT-0400 (Eastern Daylight Time)","26977","0","6","","","","","","","","","",""
"","","","","","","","","","","","preload","49","2550412","0.0-49.0","","","","","true","","","","","","","","","","","preload","","","0","7","false","[]","[]","[]","","","","","",""
"","","","","","","","","","","","canvas-keyboard-response","50","2550714","0.0-50.0","null","null","","","","","","","","","","","","","","fixation","","","0","7","","","","","","","","","",""
"","","","","","","","","","","","canvas-keyboard-response","51","2551016","0.0-51.0","null","null","","","","","","","","","","","","","","stimulus","","","0","7","","","","","","","","","",""
"","","","","","","","","","","","canvas-button-response","52","2552580","0.0-52.0","1562","bed","","","","","","","","","","","","","","perceptual","","","0","7","","","","","32","bed","1","","1",""
"","","","","","","","","","","","canvas-button-response","53","2553480","0.0-53.0","898","10","","","","","","","","","","","","","","confidence","","","0","7","","","","","","","","","","5"
"","","","","","","","","","","","html-keyboard-response","54","2554483","0.0-54.0","null","null","","","","","","","","","","","","","","feedback","Sat Oct 18 2025 17:32:49 GMT-0400 (Eastern Daylight Time)","26977","0","7","","","","","","","","","",""
"","","","","","","","","","","","preload","55","2554484","0.0-55.0","","","","","true","","","","","","","","","","","preload","","","0","8","false","[]","[]","[]","","","","","",""
"","","","","","","","","","","","canvas-keyboard-response","56","2554787","0.0-56.0","null","null","","","","","","","","","","","","","","fixation","","","0","8","","","","","","","","","",""
"","","","","","","","","","","","canvas-keyboard-response","57","2555091","0.0-57.0","null","null","","","","","","","","","","","","","","stimulus","","","0","8","","","","","","","","","",""
"","","","","","","","","","","","canvas-button-response","58","2556305","0.0-58.0","1212","knife","","","","","","","","","","","","","","perceptual","","","0","8","","","","","92","knife","1","","1",""
"","","","","","","","","","","","canvas-button-response","59","2557422","0.0-59.0","1114","10","","","","","","","","","","","","","","confidence","","","0","8","","","","","","","","","","6"
"","","","","","","","","","","","html-keyboard-response","60","2558425","0.0-60.0","null","null","","","","","","","","","","","","","","feedback","Sat Oct 18 2025 17:32:53 GMT-0400 (Eastern Daylight Time)","26977","0","8","","","","","","","","","",""
"","","","","","","","","","","","preload","61","2558426","0.0-61.0","","","","","true","","","","","","","","","","","preload","","","0","9","false","[]","[]","[]","","","","","",""
"","","","","","","","","","","","canvas-keyboard-response","62","2558730","0.0-62.0","null","null","","","","","","","","","","","","","","fixation","","","0","9","","","","","","","","","",""
"","","","","","","","","","","","canvas-keyboard-response","63","2559033","0.0-63.0","null","null","","","","","","","","","","","","","","stimulus","","","0","9","","","","","","","","","",""
"","","","","","","","","","","","canvas-button-response","64","2560113","0.0-64.0","1078","house","","","","","","","","","","","","","","perceptual","","","0","9","","","","","2","house","1","","1",""
"","","","","","","","","","","","canvas-button-response","65","2560822","0.0-65.0","707","10","","","","","","","","","","","","","","confidence","","","0","9","","","","","","","","","","7"
"","","","","","","","","","","","html-keyboard-response","66","2561825","0.0-66.0","null","null","","","","","","","","","","","","","","feedback","Sat Oct 18 2025 17:32:57 GMT-0400 (Eastern Daylight Time)","26977","0","9","","","","","","","","","",""
"","","","","","","","","","","","html-button-response","67","2568384","0.0-67.0","6557","0","","","","","","","","","","","","","","start_practice","Sat Oct 18 2025 17:32:58 GMT-0400 (Eastern Daylight Time)","26977","0","9","","","","","","","","","",""
"","","","","","","","","","","","preload","68","2568385","0.0-68.0","","","","","true","","","","","","","","","","","preload","","","1","0","false","[]","[]","[]","","","","","",""
"","","","","","","","","","","","canvas-keyboard-response","69","2568687","0.0-69.0","null","null","","","","","","","","","","","","","","fixation","","","1","0","","","","","","","","","",""
"","","","","","","","","","","","canvas-keyboard-response","70","2568990","0.0-70.0","null","null","","","","","","","","","","","","","","stimulus","","","1","0","","","","","","","","","",""
"","","","","","","","","","","","canvas-button-response","71","2572900","0.0-71.0","3909","car","","","","","","","","","","","","","","perceptual","","","1","0","","","","","67","train","10","","0",""
"","","","","","","","","","","","canvas-button-response","72","2574925","0.0-72.0","2023","0","","","","","","","","","","","","","","confidence","","","1","0","","","","","","","","","","0"
"","","","","","","","","","","","html-keyboard-response","73","2575927","0.0-73.0","null","null","","","","","","","","","","","","","","feedback","Sat Oct 18 2025 17:33:11 GMT-0400 (Eastern Daylight Time)","26977","1","0","","","","","","","","","",""
"","","","","","","","","","","","preload","74","2575928","0.0-74.0","","","","","true","","","","","","","","","","","preload","","","1","1","false","[]","[]","[]","","","","","",""
"","","","","","","","","","","","canvas-keyboard-response","75","2576230","0.0-75.0","null","null","","","","","","","","","","","","","","fixation","","","1","1","","","","","","","","","",""
"","","","","","","","","","","","canvas-keyboard-response","76","2576533","0.0-76.0","null","null","","","","","","","","","","","","","","stimulus","","","1","1","","","","","","","","","",""
"","","","","","","","","","","","canvas-button-response","77","2596138","0.0-77.0","19604","phone","","","","","","","","","","","","","","perceptual","","","1","1","","","","","17","car","10","","0",""
"","","","","","","","","","","","canvas-button-response","78","2597600","0.0-78.0","1460","0","","","","","","","","","","","","","","confidence","","","1","1","","","","","","","","","","0"
"","","","","","","","","","","","html-keyboard-response","79","2598603","0.0-79.0","null","null","","","","","","","","","","","","","","feedback","Sat Oct 18 2025 17:33:34 GMT-0400 (Eastern Daylight Time)","26977","1","1","","","","","","","","","",""
"","","","","","","","","","","","preload","80","2598603","0.0-80.0","","","","","true","","","","","","","","","","","preload","","","1","2","false","[]","[]","[]","","","","","",""
"","","","","","","","","","","","canvas-keyboard-response","81","2598906","0.0-81.0","null","null","","","","","","","","","","","","","","fixation","","","1","2","","","","","","","","","",""
"","","","","","","","","","","","canvas-keyboard-response","82","2599209","0.0-82.0","null","null","","","","","","","","","","","","","","stimulus","","","1","2","","","","","","","","","",""
"","","","","","","","","","","","canvas-button-response","83","2607788","0.0-83.0","8577","train","","","","","","","","","","","","","","perceptual","","","1","2","","","","","27","phone","10","","0",""
"","","","","","","","","","","","canvas-button-response","84","2609013","0.0-84.0","1222","2","","","","","","","","","","","","","","confidence","","","1","2","","","","","","","","","","0"
"","","","","","","","","","","","html-keyboard-response","85","2610015","0.0-85.0","null","null","","","","","","","","","","","","","","feedback","Sat Oct 18 2025 17:33:45 GMT-0400 (Eastern Daylight Time)","26977","1","2","","","","","","","","","",""
"","","","","","","","","","","","preload","86","2610016","0.0-86.0","","","","","true","","","","","","","","","","","preload","","","1","3","false","[]","[]","[]","","","","","",""
"","","","","","","","","","","","canvas-keyboard-response","87","2610320","0.0-87.0","null","null","","","","","","","","","","","","","","fixation","","","1","3","","","","","","","","","",""
"","","","","","","","","","","","canvas-keyboard-response","88","2610622","0.0-88.0","null","null","","","","","","","","","","","","","","stimulus","","","1","3","","","","","","","","","",""
"","","","","","","","","","","","canvas-button-response","89","2611855","0.0-89.0","1231","house","","","","","","","","","","","","","","perceptual","","","1","3","","","","","7","house","10","","1",""
"","","","","","","","","","","","canvas-button-response","90","2613146","0.0-90.0","1289","9","","","","","","","","","","","","","","confidence","","","1","3","","","","","","","","","","1"
"","","","","","","","","","","","html-keyboard-response","91","2614149","0.0-91.0","null","null","","","","","","","","","","","","","","feedback","Sat Oct 18 2025 17:33:49 GMT-0400 (Eastern Daylight Time)","26977","1","3","","","","","","","","","",""
"","","","","","","","","","","","preload","92","2614150","0.0-92.0","","","","","true","","","","","","","","","","","preload","","","1","4","false","[]","[]","[]","","","","","",""
"","","","","","","","","","","","canvas-keyboard-response","93","2614452","0.0-93.0","null","null","","","","","","","","","","","","","","fixation","","","1","4","","","","","","","","","",""
"","","","","","","","","","","","canvas-keyboard-response","94","2614754","0.0-94.0","null","null","","","","","","","","","","","","","","stimulus","","","1","4","","","","","","","","","",""
"","","","","","","","","","","","canvas-button-response","95","2618096","0.0-95.0","3341","bridge","","","","","","","","","","","","","","perceptual","","","1","4","","","","","87","elephant","10","","0",""
"","","","","","","","","","","","canvas-button-response","96","2619112","0.0-96.0","1015","2","","","","","","","","","","","","","","confidence","","","1","4","","","","","","","","","","1"
"","","","","","","","","","","","html-keyboard-response","97","2620113","0.0-97.0","null","null","","","","","","","","","","","","","","feedback","Sat Oct 18 2025 17:33:55 GMT-0400 (Eastern Daylight Time)","26977","1","4","","","","","","","","","",""
"","","","","","","","","","","","preload","98","2620114","0.0-98.0","","","","","true","","","","","","","","","","","preload","","","1","5","false","[]","[]","[]","","","","","",""
"","","","","","","","","","","","canvas-keyboard-response","99","2620417","0.0-99.0","null","null","","","","","","","","","","","","","","fixation","","","1","5","","","","","","","","","",""
"","","","","","","","","","","","canvas-keyboard-response","100","2620719","0.0-100.0","null","null","","","","","","","","","","","","","","stimulus","","","1","5","","","","","","","","","",""
"","","","","","","","","","","","canvas-button-response","101","2622004","0.0-101.0","1282","elephant","","","","","","","","","","","","","","perceptual","","","1","5","","","","","84","elephant","6","","1",""
"","","","","","","","","","","","canvas-button-response","102","2623271","0.0-102.0","1265","10","","","","","","","","","","","","","","confidence","","","1","5","","","","","","","","","","2"
"","","","","","","","","","","","html-keyboard-response","103","2624275","0.0-103.0","null","null","","","","","","","","","","","","","","feedback","Sat Oct 18 2025 17:33:59 GMT-0400 (Eastern Daylight Time)","26977","1","5","","","","","","","","","",""
"","","","","","","","","","","","preload","104","2624275","0.0-104.0","","","","","true","","","","","","","","","","","preload","","","1","6","false","[]","[]","[]","","","","","",""
"","","","","","","","","","","","canvas-keyboard-response","105","2624578","0.0-105.0","null","null","","","","","","","","","","","","","","fixation","","","1","6","","","","","","","","","",""
"","","","","","","","","","","","canvas-keyboard-response","106","2624880","0.0-106.0","null","null","","","","","","","","","","","","","","stimulus","","","1","6","","","","","","","","","",""
"","","","","","","","","","","","canvas-button-response","107","2628895","0.0-107.0","4013","flower","","","","","","","","","","","","","","perceptual","","","1","6","","","","","77","cat","10","","0",""
"","","","","","","","","","","","canvas-button-response","108","2629992","0.0-108.0","1095","4","","","","","","","","","","","","","","confidence","","","1","6","","","","","","","","","","2"
"","","","","","","","","","","","html-keyboard-response","109","2630995","0.0-109.0","null","null","","","","","","","","","","","","","","feedback","Sat Oct 18 2025 17:34:06 GMT-0400 (Eastern Daylight Time)","26977","1","6","","","","","","","","","",""
"","","","","","","","","","","","preload","110","2630996","0.0-110.0","","","","","true","","","","","","","","","","","preload","","","1","7","false","[]","[]","[]","","","","","",""
"","","","","","","","","","","","canvas-keyboard-response","111","2631299","0.0-111.0","null","null","","","","","","","","","","","","","","fixation","","","1","7","","","","","","","","","",""
"","","","","","","","","","","","canvas-keyboard-response","112","2631601","0.0-112.0","null","null","","","","","","","","","","","","","","stimulus","","","1","7","","","","","","","","","",""
"","","","","","","","","","","","canvas-button-response","113","2635759","0.0-113.0","4155","knife","","","","","","","","","","","","","","perceptual","","","1","7","","","","","94","knife","6","","1",""
"","","","","","","","","","","","canvas-button-response","114","2637170","0.0-114.0","1410","5","","","","","","","","","","","","","","confidence","","","1","7","","","","","","","","","","3"
"","","","","","","","","","","","html-keyboard-response","115","2638174","0.0-115.0","null","null","","","","","","","","","","","","","","feedback","Sat Oct 18 2025 17:34:13 GMT-0400 (Eastern Daylight Time)","26977","1","7","","","","","","","","","",""
"","","","","","","","","","","","preload","116","2638175","0.0-116.0","","","","","true","","","","","","","","","","","preload","","","1","8","false","[]","[]","[]","","","","","",""
"","","","","","","","","","","","canvas-keyboard-response","117","2638477","0.0-117.0","null","null","","","","","","","","","","","","","","fixation","","","1","8","","","","","","","","","",""
"","","","","","","","","","","","canvas-keyboard-response","118","2638779","0.0-118.0","null","null","","","","","","","","","","","","","","stimulus","","","1","8","","","","","","","","","",""
"","","","","","","","","","","","canvas-button-response","119","2639716","0.0-119.0","935","bed","","","","","","","","","","","","","","perceptual","","","1","8","","","","","34","bed","6","","1",""
"","","","","","","","","","","","canvas-button-response","120","2640423","0.0-120.0","706","10","","","","","","","","","","","","","","confidence","","","1","8","","","","","","","","","","4"
"","","","","","","","","","","","html-keyboard-response","121","2641425","0.0-121.0","null","null","","","","","","","","","","","","","","feedback","Sat Oct 18 2025 17:34:16 GMT-0400 (Eastern Daylight Time)","26977","1","8","","","","","","","","","",""
"","","","","","","","","","","","preload","122","2641426","0.0-122.0","","","","","true","","","","","","","","","","","preload","","","1","9","false","[]","[]","[]","","","","","",""
"","","","","","","","","","","","canvas-keyboard-response","123","2641728","0.0-123.0","null","null","","","","","","","","","","","","","","fixation","","","1","9","","","","","","","","","",""
"","","","","","","","","","","","canvas-keyboard-response","124","2642031","0.0-124.0","null","null","","","","","","","","","","","","","","stimulus","","","1","9","","","","","","","","","",""
"","","","","","","","","","","","canvas-button-response","125","2643175","0.0-125.0","1142","knife","","","","","","","","","","","","","","perceptual","","","1","9","","","","","97","knife","10","","1",""
"","","","","","","","","","","","canvas-button-response","126","2643856","0.0-126.0","679","10","","","","","","","","","","","","","","confidence","","","1","9","","","","","","","","","","5"
"","","","","","","","","","","","html-keyboard-response","127","2644859","0.0-127.0","null","null","","","","","","","","","","","","","","feedback","Sat Oct 18 2025 17:34:20 GMT-0400 (Eastern Daylight Time)","26977","1","9","","","","","","","","","",""
"","","","","","","","","","","","preload","128","2644860","0.0-128.0","","","","","true","","","","","","","","","","","preload","","","1","10","false","[]","[]","[]","","","","","",""
"","","","","","","","","","","","canvas-keyboard-response","129","2645163","0.0-129.0","null","null","","","","","","","","","","","","","","fixation","","","1","10","","","","","","","","","",""
"","","","","","","","","","","","canvas-keyboard-response","130","2645466","0.0-130.0","null","null","","","","","","","","","","","","","","stimulus","","","1","10","","","","","","","","","",""
"","","","","","","","","","","","canvas-button-response","131","2646236","0.0-131.0","768","phone","","","","","","","","","","","","","","perceptual","","","1","10","","","","","24","phone","6","","1",""
"","","","","","","","","","","","canvas-button-response","132","2646837","0.0-132.0","600","10","","","","","","","","","","","","","","confidence","","","1","10","","","","","","","","","","6"
"","","","","","","","","","","","html-keyboard-response","133","2647841","0.0-133.0","null","null","","","","","","","","","","","","","","feedback","Sat Oct 18 2025 17:34:23 GMT-0400 (Eastern Daylight Time)","26977","1","10","","","","","","","","","",""
"","","","","","","","","","","","preload","134","2647841","0.0-134.0","","","","","true","","","","","","","","","","","preload","","","1","11","false","[]","[]","[]","","","","","",""
"","","","","","","","","","","","canvas-keyboard-response","135","2648144","0.0-135.0","null","null","","","","","","","","","","","","","","fixation","","","1","11","","","","","","","","","",""
"","","","","","","","","","","","canvas-keyboard-response","136","2648447","0.0-136.0","null","null","","","","","","","","","","","","","","stimulus","","","1","11","","","","","","","","","",""
"","","","","","","","","","","","canvas-button-response","137","2649974","0.0-137.0","1526","car","","","","","","","","","","","","","","perceptual","","","1","11","","","","","14","car","6","","1",""
"","","","","","","","","","","","canvas-button-response","138","2650600","0.0-138.0","623","6","","","","","","","","","","","","","","confidence","","","1","11","","","","","","","","","","7"
"","","","","","","","","","","","html-keyboard-response","139","2651602","0.0-139.0","null","null","","","","","","","","","","","","","","feedback","Sat Oct 18 2025 17:34:27 GMT-0400 (Eastern Daylight Time)","26977","1","11","","","","","","","","","",""
"","","","","","","","","","","","preload","140","2651602","0.0-140.0","","","","","true","","","","","","","","","","","preload","","","1","12","false","[]","[]","[]","","","","","",""
"","","","","","","","","","","","canvas-keyboard-response","141","2651905","0.0-141.0","null","null","","","","","","","","","","","","","","fixation","","","1","12","","","","","","","","","",""
"","","","","","","","","","","","canvas-keyboard-response","142","2652208","0.0-142.0","null","null","","","","","","","","","","","","","","stimulus","","","1","12","","","","","","","","","",""
"","","","","","","","","","","","canvas-button-response","143","2652982","0.0-143.0","772","cat","","","","","","","","","","","","","","perceptual","","","1","12","","","","","74","cat","6","","1",""
"","","","","","","","","","","","canvas-button-response","144","2653533","0.0-144.0","548","10","","","","","","","","","","","","","","confidence","","","1","12","","","","","","","","","","8"
"","","","","","","","","","","","html-keyboard-response","145","2654536","0.0-145.0","null","null","","","","","","","","","","","","","","feedback","Sat Oct 18 2025 17:34:29 GMT-0400 (Eastern Daylight Time)","26977","1","12","","","","","","","","","",""
"","","","","","","","","","","","preload","146","2654537","0.0-146.0","","","","","true","","","","","","","","","","","preload","","","1","13","false","[]","[]","[]","","","","","",""
"","","","","","","","","","","","canvas-keyboard-response","147","2654840","0.0-147.0","null","null","","","","","","","","","","","","","","fixation","","","1","13","","","","","","","","","",""
"","","","","","","","","","","","canvas-keyboard-response","148","2655143","0.0-148.0","null","null","","","","","","","","","","","","","","stimulus","","","1","13","","","","","","","","","",""
"","","","","","","","","","","","canvas-button-response","149","2658779","0.0-149.0","3633","train","","","","","","","","","","","","","","perceptual","","","1","13","","","","","47","bridge","10","","0",""
"","","","","","","","","","","","canvas-button-response","150","2659334","0.0-150.0","553","5","","","","","","","","","","","","","","confidence","","","1","13","","","","","","","","","","8"
"","","","","","","","","","","","html-keyboard-response","151","2660337","0.0-151.0","null","null","","","","","","","","","","","","","","feedback","Sat Oct 18 2025 17:34:35 GMT-0400 (Eastern Daylight Time)","26977","1","13","","","","","","","","","",""
"","","","","","","","","","","","preload","152","2660338","0.0-152.0","","","","","true","","","","","","","","","","","preload","","","1","14","false","[]","[]","[]","","","","","",""
"","","","","","","","","","","","canvas-keyboard-response","153","2660641","0.0-153.0","null","null","","","","","","","","","","","","","","fixation","","","1","14","","","","","","","","","",""
"","","","","","","","","","","","canvas-keyboard-response","154","2660943","0.0-154.0","null","null","","","","","","","","","","","","","","stimulus","","","1","14","","","","","","","","","",""
"","","","","","","","","","","","canvas-button-response","155","2661799","0.0-155.0","854","train","","","","","","","","","","","","","","perceptual","","","1","14","","","","","64","train","6","","1",""
"","","","","","","","","","","","canvas-button-response","156","2662383","0.0-156.0","582","10","","","","","","","","","","","","","","confidence","","","1","14","","","","","","","","","","9"
"","","","","","","","","","","","html-keyboard-response","157","2663386","0.0-157.0","null","null","","","","","","","","","","","","","","feedback","Sat Oct 18 2025 17:34:38 GMT-0400 (Eastern Daylight Time)","26977","1","14","","","","","","","","","",""
"","","","","","","","","","","","preload","158","2663387","0.0-158.0","","","","","true","","","","","","","","","","","preload","","","1","15","false","[]","[]","[]","","","","","",""
"","","","","","","","","","","","canvas-keyboard-response","159","2663690","0.0-159.0","null","null","","","","","","","","","","","","","","fixation","","","1","15","","","","","","","","","",""
"","","","","","","","","","","","canvas-keyboard-response","160","2663993","0.0-160.0","null","null","","","","","","","","","","","","","","stimulus","","","1","15","","","","","","","","","",""
"","","","","","","","","","","","canvas-button-response","161","2665095","0.0-161.0","1100","flower","","","","","","","","","","","","","","perceptual","","","1","15","","","","","57","flower","10","","1",""
"","","","","","","","","","","","canvas-button-response","162","2665704","0.0-162.0","607","10","","","","","","","","","","","","","","confidence","","","1","15","","","","","","","","","","10"
"","","","","","","","","","","","html-keyboard-response","163","2666707","0.0-163.0","null","null","","","","","","","","","","","","","","feedback","Sat Oct 18 2025 17:34:42 GMT-0400 (Eastern Daylight Time)","26977","1","15","","","","","","","","","",""
"","","","","","","","","","","","preload","164","2666708","0.0-164.0","","","","","true","","","","","","","","","","","preload","","","1","16","false","[]","[]","[]","","","","","",""
"","","","","","","","","","","","canvas-keyboard-response","165","2667010","0.0-165.0","null","null","","","","","","","","","","","","","","fixation","","","1","16","","","","","","","","","",""
"","","","","","","","","","","","canvas-keyboard-response","166","2667313","0.0-166.0","null","null","","","","","","","","","","","","","","stimulus","","","1","16","","","","","","","","","",""
"","","","","","","","","","","","canvas-button-response","167","2669041","0.0-167.0","1725","bridge","","","","","","","","","","","","","","perceptual","","","1","16","","","","","44","bridge","6","","1",""
"","","","","","","","","","","","canvas-button-response","168","2669691","0.0-168.0","648","10","","","","","","","","","","","","","","confidence","","","1","16","","","","","","","","","","11"
"","","","","","","","","","","","html-keyboard-response","169","2670693","0.0-169.0","null","null","","","","","","","","","","","","","","feedback","Sat Oct 18 2025 17:34:46 GMT-0400 (Eastern Daylight Time)","26977","1","16","","","","","","","","","",""
"","","","","","","","","","","","preload","170","2670694","0.0-170.0","","","","","true","","","","","","","","","","","preload","","","1","17","false","[]","[]","[]","","","","","",""
"","","","","","","","","","","","canvas-keyboard-response","171","2670997","0.0-171.0","null","null","","","","","","","","","","","","","","fixation","","","1","17","","","","","","","","","",""
"","","","","","","","","","","","canvas-keyboard-response","172","2671300","0.0-172.0","null","null","","","","","","","","","","","","","","stimulus","","","1","17","","","","","","","","","",""
"","","","","","","","","","","","canvas-button-response","173","2672177","0.0-173.0","876","flower","","","","","","","","","","","","","","perceptual","","","1","17","","","","","54","flower","6","","1",""
"","","","","","","","","","","","canvas-button-response","174","2673175","0.0-174.0","995","10","","","","","","","","","","","","","","confidence","","","1","17","","","","","","","","","","12"
"","","","","","","","","","","","html-keyboard-response","175","2674177","0.0-175.0","null","null","","","","","","","","","","","","","","feedback","Sat Oct 18 2025 17:34:49 GMT-0400 (Eastern Daylight Time)","26977","1","17","","","","","","","","","",""
"","","","","","","","","","","","preload","176","2674178","0.0-176.0","","","","","true","","","","","","","","","","","preload","","","1","18","false","[]","[]","[]","","","","","",""
"","","","","","","","","","","","canvas-keyboard-response","177","2674481","0.0-177.0","null","null","","","","","","","","","","","","","","fixation","","","1","18","","","","","","","","","",""
"","","","","","","","","","","","canvas-keyboard-response","178","2674783","0.0-178.0","null","null","","","","","","","","","","","","","","stimulus","","","1","18","","","","","","","","","",""
"","","","","","","","","","","","canvas-button-response","179","2676028","0.0-179.0","1243","car","","","","","","","","","","","","","","perceptual","","","1","18","","","","","37","bed","10","","0",""
"","","","","","","","","","","","canvas-button-response","180","2677329","0.0-180.0","1298","2","","","","","","","","","","","","","","confidence","","","1","18","","","","","","","","","","12"
"","","","","","","","","","","","html-keyboard-response","181","2678331","0.0-181.0","null","null","","","","","","","","","","","","","","feedback","Sat Oct 18 2025 17:34:53 GMT-0400 (Eastern Daylight Time)","26977","1","18","","","","","","","","","",""
"","","","","","","","","","","","preload","182","2678332","0.0-182.0","","","","","true","","","","","","","","","","","preload","","","1","19","false","[]","[]","[]","","","","","",""
"","","","","","","","","","","","canvas-keyboard-response","183","2678635","0.0-183.0","null","null","","","","","","","","","","","","","","fixation","","","1","19","","","","","","","","","",""
"","","","","","","","","","","","canvas-keyboard-response","184","2678938","0.0-184.0","null","null","","","","","","","","","","","","","","stimulus","","","1","19","","","","","","","","","",""
"","","","","","","","","","","","canvas-button-response","185","2679883","0.0-185.0","942","house","","","","","","","","","","","","","","perceptual","","","1","19","","","","","4","house","6","","1",""
"","","","","","","","","","","","canvas-button-response","186","2680357","0.0-186.0","473","3","","","","","","","","","","","","","","confidence","","","1","19","","","","","","","","","","13"
"","","","","","","","","","","","html-keyboard-response","187","2681360","0.0-187.0","null","null","","","","","","","","","","","","","","feedback","Sat Oct 18 2025 17:34:56 GMT-0400 (Eastern Daylight Time)","26977","1","19","","","","","","","","","",""
"","","","","","","","","","","","html-button-response","188","3000517","0.0-188.0","319159","0","","","","","","","","","","","","","","start experiment","Sat Oct 18 2025 17:34:57 GMT-0400 (Eastern Daylight Time)","26977","1","19","","","","","","","","","",""
"","","","","","","","","","","","preload","189","3000518","0.0-189.0","","","","","true","","","","","","","","","","","preload","","","2","0","false","[]","[]","[]","","","","","",""
"","","","","","","","","","","","canvas-keyboard-response","190","3000820","0.0-190.0","null","null","","","","","","","","","","","","","","fixation","","","2","0","","","","","","","","","",""
"","","","","","","","","","","","canvas-keyboard-response","191","3001123","0.0-191.0","null","null","","","","","","","","","","","","","","stimulus","","","2","0","","","","","","","","","",""
"","","","","","","","","","","","canvas-button-response","192","3003494","0.0-192.0","2369","house","","","","","","","","","","","","","","perceptual","","","2","0","","","","","179","bridge","6","0","0",""
"","","","","","","","","","","","canvas-button-response","193","3003982","0.0-193.0","486","3","","","","","","","","","","","","","","confidence","","","2","0","","","","","","","","","","0"
"","","","","","","","","","","","preload","194","3003982","0.0-194.0","","","","","true","","","","","","","","","","","preload","","","2","1","false","[]","[]","[]","","","","","",""
"","","","","","","","","","","","canvas-keyboard-response","195","3004284","0.0-195.0","null","null","","","","","","","","","","","","","","fixation","","","2","1","","","","","","","","","",""
"","","","","","","","","","","","canvas-keyboard-response","196","3004587","0.0-196.0","null","null","","","","","","","","","","","","","","stimulus","","","2","1","","","","","","","","","",""
"","","","","","","","","","","","canvas-button-response","197","3008057","0.0-197.0","3469","knife","","","","","","","","","","","","","","perceptual","","","2","1","","","","","375","knife","6","0","1",""
"","","","","","","","","","","","canvas-button-response","198","3009349","0.0-198.0","1290","1","","","","","","","","","","","","","","confidence","","","2","1","","","","","","","","","","1"
"","","","","","","","","","","","preload","199","3009349","0.0-199.0","","","","","true","","","","","","","","","","","preload","","","2","2","false","[]","[]","[]","","","","","",""
"","","","","","","","","","","","canvas-keyboard-response","200","3009652","0.0-200.0","null","null","","","","","","","","","","","","","","fixation","","","2","2","","","","","","","","","",""
"","","","","","","","","","","","canvas-keyboard-response","201","3009954","0.0-201.0","null","null","","","","","","","","","","","","","","stimulus","","","2","2","","","","","","","","","",""
"","","","","","","","","","","","canvas-button-response","202","3014674","0.0-202.0","4718","flower","","","","","","","","","","","","","","perceptual","","","2","2","","","","","127","bed","6","0","0",""
"","","","","","","","","","","","canvas-button-response","203","3015661","0.0-203.0","985","2","","","","","","","","","","","","","","confidence","","","2","2","","","","","","","","","","1"
"","","","","","","","","","","","preload","204","3015662","0.0-204.0","","","","","true","","","","","","","","","","","preload","","","2","3","false","[]","[]","[]","","","","","",""
"","","","","","","","","","","","canvas-keyboard-response","205","3015965","0.0-205.0","null","null","","","","","","","","","","","","","","fixation","","","2","3","","","","","","","","","",""
"","","","","","","","","","","","canvas-keyboard-response","206","3016268","0.0-206.0","null","null","","","","","","","","","","","","","","stimulus","","","2","3","","","","","","","","","",""
"","","","","","","","","","","","canvas-button-response","207","3017049","0.0-207.0","779","flower","","","","","","","","","","","","","","perceptual","","","2","3","","","","","226","flower","10","0","1",""
"","","","","","","","","","","","canvas-button-response","208","3018183","0.0-208.0","1131","10","","","","","","","","","","","","","","confidence","","","2","3","","","","","","","","","","2"
"","","","","","","","","","","","preload","209","3018184","0.0-209.0","","","","","true","","","","","","","","","","","preload","","","2","4","false","[]","[]","[]","","","","","",""
"","","","","","","","","","","","canvas-keyboard-response","210","3018485","0.0-210.0","null","null","","","","","","","","","","","","","","fixation","","","2","4","","","","","","","","","",""
"","","","","","","","","","","","canvas-keyboard-response","211","3018788","0.0-211.0","null","null","","","","","","","","","","","","","","stimulus","","","2","4","","","","","","","","","",""
"","","","","","","","","","","","canvas-button-response","212","3020091","0.0-212.0","1301","phone","","","","","","","","","","","","","","perceptual","","","2","4","","","","","91","phone","6","0","1",""
"","","","","","","","","","","","canvas-button-response","213","3020870","0.0-213.0","777","10","","","","","","","","","","","","","","confidence","","","2","4","","","","","","","","","","3"
"","","","","","","","","","","","preload","214","3020871","0.0-214.0","","","","","true","","","","","","","","","","","preload","","","2","5","false","[]","[]","[]","","","","","",""
"","","","","","","","","","","","canvas-keyboard-response","215","3021174","0.0-215.0","null","null","","","","","","","","","","","","","","fixation","","","2","5","","","","","","","","","",""
"","","","","","","","","","","","canvas-keyboard-response","216","3021477","0.0-216.0","null","null","","","","","","","","","","","","","","stimulus","","","2","5","","","","","","","","","",""
"","","","","","","","","","","","canvas-button-response","217","3023233","0.0-217.0","1754","house","","","","","","","","","","","","","","perceptual","","","2","5","","","","","20","house","10","0","1",""
"","","","","","","","","","","","canvas-button-response","218","3023737","0.0-218.0","502","5","","","","","","","","","","","","","","confidence","","","2","5","","","","","","","","","","4"
"","","","","","","","","","","","preload","219","3023738","0.0-219.0","","","","","true","","","","","","","","","","","preload","","","2","6","false","[]","[]","[]","","","","","",""
"","","","","","","","","","","","canvas-keyboard-response","220","3024041","0.0-220.0","null","null","","","","","","","","","","","","","","fixation","","","2","6","","","","","","","","","",""
"","","","","","","","","","","","canvas-keyboard-response","221","3024343","0.0-221.0","null","null","","","","","","","","","","","","","","stimulus","","","2","6","","","","","","","","","",""
"","","","","","","","","","","","canvas-button-response","222","3028699","0.0-222.0","4354","train","","","","","","","","","","","","","","perceptual","","","2","6","","","","","164","bridge","6","0","0",""
"","","","","","","","","","","","canvas-button-response","223","3029520","0.0-223.0","819","4","","","","","","","","","","","","","","confidence","","","2","6","","","","","","","","","","4"
"","","","","","","","","","","","preload","224","3029521","0.0-224.0","","","","","true","","","","","","","","","","","preload","","","2","7","false","[]","[]","[]","","","","","",""
"","","","","","","","","","","","canvas-keyboard-response","225","3029823","0.0-225.0","null","null","","","","","","","","","","","","","","fixation","","","2","7","","","","","","","","","",""
"","","","","","","","","","","","canvas-keyboard-response","226","3030125","0.0-226.0","null","null","","","","","","","","","","","","","","stimulus","","","2","7","","","","","","","","","",""
"","","","","","","","","","","","canvas-button-response","227","3034210","0.0-227.0","4083","bed","","","","","","","","","","","","","","perceptual","","","2","7","","","","","235","flower","10","0","0",""
"","","","","","","","","","","","canvas-button-response","228","3035274","0.0-228.0","1062","0","","","","","","","","","","","","","","confidence","","","2","7","","","","","","","","","","4"
"","","","","","","","","","","","preload","229","3035275","0.0-229.0","","","","","true","","","","","","","","","","","preload","","","2","8","false","[]","[]","[]","","","","","",""
"","","","","","","","","","","","canvas-keyboard-response","230","3035577","0.0-230.0","null","null","","","","","","","","","","","","","","fixation","","","2","8","","","","","","","","","",""
"","","","","","","","","","","","canvas-keyboard-response","231","3035880","0.0-231.0","null","null","","","","","","","","","","","","","","stimulus","","","2","8","","","","","","","","","",""
"","","","","","","","","","","","canvas-button-response","232","3037732","0.0-232.0","1850","car","","","","","","","","","","","","","","perceptual","","","2","8","","","","","275","train","10","0","0",""
"","","","","","","","","","","","canvas-button-response","233","3038649","0.0-233.0","915","1","","","","","","","","","","","","","","confidence","","","2","8","","","","","","","","","","4"
"","","","","","","","","","","","preload","234","3038650","0.0-234.0","","","","","true","","","","","","","","","","","preload","","","2","9","false","[]","[]","[]","","","","","",""
"","","","","","","","","","","","canvas-keyboard-response","235","3038953","0.0-235.0","null","null","","","","","","","","","","","","","","fixation","","","2","9","","","","","","","","","",""
"","","","","","","","","","","","canvas-keyboard-response","236","3039256","0.0-236.0","null","null","","","","","","","","","","","","","","stimulus","","","2","9","","","","","","","","","",""
"","","","","","","","","","","","canvas-button-response","237","3040682","0.0-237.0","1424","car","","","","","","","","","","","","","","perceptual","","","2","9","","","","","188","bridge","10","0","0",""
"","","","","","","","","","","","canvas-button-response","238","3041324","0.0-238.0","640","3","","","","","","","","","","","","","","confidence","","","2","9","","","","","","","","","","4"
"","","","","","","","","","","","preload","239","3041325","0.0-239.0","","","","","true","","","","","","","","","","","preload","","","2","10","false","[]","[]","[]","","","","","",""
"","","","","","","","","","","","canvas-keyboard-response","240","3041628","0.0-240.0","null","null","","","","","","","","","","","","","","fixation","","","2","10","","","","","","","","","",""
"","","","","","","","","","","","canvas-keyboard-response","241","3041930","0.0-241.0","null","null","","","","","","","","","","","","","","stimulus","","","2","10","","","","","","","","","",""
"","","","","","","","","","","","canvas-button-response","242","3042895","0.0-242.0","962","knife","","","","","","","","","","","","","","perceptual","","","2","10","","","","","387","knife","10","0","1",""
"","","","","","","","","","","","canvas-button-response","243","3043784","0.0-243.0","888","10","","","","","","","","","","","","","","confidence","","","2","10","","","","","","","","","","5"
"","","","","","","","","","","","preload","244","3043785","0.0-244.0","","","","","true","","","","","","","","","","","preload","","","2","11","false","[]","[]","[]","","","","","",""
"","","","","","","","","","","","canvas-keyboard-response","245","3044086","0.0-245.0","null","null","","","","","","","","","","","","","","fixation","","","2","11","","","","","","","","","",""
"","","","","","","","","","","","canvas-keyboard-response","246","3044390","0.0-246.0","null","null","","","","","","","","","","","","","","stimulus","","","2","11","","","","","","","","","",""
"","","","","","","","","","","","canvas-button-response","247","3047528","0.0-247.0","3136","house","","","","","","","","","","","","","","perceptual","","","2","11","","","","","383","knife","10","0","0",""
"","","","","","","","","","","","canvas-button-response","248","3049570","0.0-248.0","2040","0","","","","","","","","","","","","","","confidence","","","2","11","","","","","","","","","","5"
"","","","","","","","","","","","preload","249","3049571","0.0-249.0","","","","","true","","","","","","","","","","","preload","","","2","12","false","[]","[]","[]","","","","","",""
"","","","","","","","","","","","canvas-keyboard-response","250","3049873","0.0-250.0","null","null","","","","","","","","","","","","","","fixation","","","2","12","","","","","","","","","",""
"","","","","","","","","","","","canvas-keyboard-response","251","3050175","0.0-251.0","null","null","","","","","","","","","","","","","","stimulus","","","2","12","","","","","","","","","",""
"","","","","","","","","","","","canvas-button-response","252","3053153","0.0-252.0","2976","cat","","","","","","","","","","","","","","perceptual","","","2","12","","","","","307","cat","10","0","1",""
"","","","","","","","","","","","canvas-button-response","253","3055107","0.0-253.0","1951","10","","","","","","","","","","","","","","confidence","","","2","12","","","","","","","","","","6"
"","","","","","","","","","","","preload","254","3055107","0.0-254.0","","","","","true","","","","","","","","","","","preload","","","2","13","false","[]","[]","[]","","","","","",""
"","","","","","","","","","","","canvas-keyboard-response","255","3055409","0.0-255.0","null","null","","","","","","","","","","","","","","fixation","","","2","13","","","","","","","","","",""
"","","","","","","","","","","","canvas-keyboard-response","256","3055712","0.0-256.0","null","null","","","","","","","","","","","","","","stimulus","","","2","13","","","","","","","","","",""
"","","","","","","","","","","","canvas-button-response","257","3056607","0.0-257.0","893","flower","","","","","","","","","","","","","","perceptual","","","2","13","","","","","209","flower","6","0","1",""
"","","","","","","","","","","","canvas-button-response","258","3057378","0.0-258.0","768","10","","","","","","","","","","","","","","confidence","","","2","13","","","","","","","","","","7"
"","","","","","","","","","","","preload","259","3057379","0.0-259.0","","","","","true","","","","","","","","","","","preload","","","2","14","false","[]","[]","[]","","","","","",""
"","","","","","","","","","","","canvas-keyboard-response","260","3057682","0.0-260.0","null","null","","","","","","","","","","","","","","fixation","","","2","14","","","","","","","","","",""
"","","","","","","","","","","","canvas-keyboard-response","261","3057984","0.0-261.0","null","null","","","","","","","","","","","","","","stimulus","","","2","14","","","","","","","","","",""
"","","","","","","","","","","","canvas-button-response","262","3059811","0.0-262.0","1825","train","","","","","","","","","","","","","","perceptual","","","2","14","","","","","270","train","10","0","1",""
"","","","","","","","","","","","canvas-button-response","263","3060444","0.0-263.0","631","4","","","","","","","","","","","","","","confidence","","","2","14","","","","","","","","","","8"
"","","","","","","","","","","","preload","264","3060446","0.0-264.0","","","","","true","","","","","","","","","","","preload","","","2","15","false","[]","[]","[]","","","","","",""
"","","","","","","","","","","","canvas-keyboard-response","265","3060748","0.0-265.0","null","null","","","","","","","","","","","","","","fixation","","","2","15","","","","","","","","","",""
"","","","","","","","","","","","canvas-keyboard-response","266","3061050","0.0-266.0","null","null","","","","","","","","","","","","","","stimulus","","","2","15","","","","","","","","","",""
"","","","","","","","","","","","canvas-button-response","267","3062173","0.0-267.0","1121","elephant","","","","","","","","","","","","","","perceptual","","","2","15","","","","","339","elephant","6","0","1",""
"","","","","","","","","","","","canvas-button-response","268","3062807","0.0-268.0","631","10","","","","","","","","","","","","","","confidence","","","2","15","","","","","","","","","","9"
"","","","","","","","","","","","preload","269","3062808","0.0-269.0","","","","","true","","","","","","","","","","","preload","","","2","16","false","[]","[]","[]","","","","","",""
"","","","","","","","","","","","canvas-keyboard-response","270","3063109","0.0-270.0","null","null","","","","","","","","","","","","","","fixation","","","2","16","","","","","","","","","",""
"","","","","","","","","","","","canvas-keyboard-response","271","3063412","0.0-271.0","null","null","","","","","","","","","","","","","","stimulus","","","2","16","","","","","","","","","",""
"","","","","","","","","","","","canvas-button-response","272","3064324","0.0-272.0","910","knife","","","","","","","","","","","","","","perceptual","","","2","16","","","","","360","knife","6","0","1",""
"","","","","","","","","","","","canvas-button-response","273","3064919","0.0-273.0","593","10","","","","","","","","","","","","","","confidence","","","2","16","","","","","","","","","","10"
"","","","","","","","","","","","preload","274","3064920","0.0-274.0","","","","","true","","","","","","","","","","","preload","","","2","17","false","[]","[]","[]","","","","","",""
"","","","","","","","","","","","canvas-keyboard-response","275","3065222","0.0-275.0","null","null","","","","","","","","","","","","","","fixation","","","2","17","","","","","","","","","",""
"","","","","","","","","","","","canvas-keyboard-response","276","3065525","0.0-276.0","null","null","","","","","","","","","","","","","","stimulus","","","2","17","","","","","","","","","",""
"","","","","","","","","","","","canvas-button-response","277","3073086","0.0-277.0","7559","bridge","","","","","","","","","","","","","","perceptual","","","2","17","","","","","145","bed","10","0","0",""
"","","","","","","","","","","","canvas-button-response","278","3074465","0.0-278.0","1377","0","","","","","","","","","","","","","","confidence","","","2","17","","","","","","","","","","10"
"","","","","","","","","","","","preload","279","3074466","0.0-279.0","","","","","true","","","","","","","","","","","preload","","","2","18","false","[]","[]","[]","","","","","",""
"","","","","","","","","","","","canvas-keyboard-response","280","3074767","0.0-280.0","null","null","","","","","","","","","","","","","","fixation","","","2","18","","","","","","","","","",""
"","","","","","","","","","","","canvas-keyboard-response","281","3075069","0.0-281.0","null","null","","","","","","","","","","","","","","stimulus","","","2","18","","","","","","","","","",""
"","","","","","","","","","","","canvas-button-response","282","3077773","0.0-282.0","2702","elephant","","","","","","","","","","","","","","perceptual","","","2","18","","","","","388","knife","10","0","0",""
"","","","","","","","","","","","canvas-button-response","283","3078357","0.0-283.0","582","10","","","","","","","","","","","","","","confidence","","","2","18","","","","","","","","","","10"
"","","","","","","","","","","","preload","284","3078358","0.0-284.0","","","","","true","","","","","","","","","","","preload","","","2","19","false","[]","[]","[]","","","","","",""
"","","","","","","","","","","","canvas-keyboard-response","285","3078659","0.0-285.0","null","null","","","","","","","","","","","","","","fixation","","","2","19","","","","","","","","","",""
"","","","","","","","","","","","canvas-keyboard-response","286","3078962","0.0-286.0","null","null","","","","","","","","","","","","","","stimulus","","","2","19","","","","","","","","","",""
"","","","","","","","","","","","canvas-button-response","287","3082669","0.0-287.0","3705","bridge","","","","","","","","","","","","","","perceptual","","","2","19","","","","","384","knife","10","0","0",""
"","","","","","","","","","","","canvas-button-response","288","3083336","0.0-288.0","665","4","","","","","","","","","","","","","","confidence","","","2","19","","","","","","","","","","10"
"","","","","","","","","","","","preload","289","3083337","0.0-289.0","","","","","true","","","","","","","","","","","preload","","","2","20","false","[]","[]","[]","","","","","",""
"","","","","","","","","","","","canvas-keyboard-response","290","3083640","0.0-290.0","null","null","","","","","","","","","","","","","","fixation","","","2","20","","","","","","","","","",""
"","","","","","","","","","","","canvas-keyboard-response","291","3083942","0.0-291.0","null","null","","","","","","","","","","","","","","stimulus","","","2","20","","","","","","","","","",""
"","","","","","","","","","","","canvas-button-response","292","3084998","0.0-292.0","1054","house","","","","","","","","","","","","","","perceptual","","","2","20","","","","","19","house","6","0","1",""
"","","","","","","","","","","","canvas-button-response","293","3086136","0.0-293.0","1136","10","","","","","","","","","","","","","","confidence","","","2","20","","","","","","","","","","11"
"","","","","","","","","","","","preload","294","3086137","0.0-294.0","","","","","true","","","","","","","","","","","preload","","","2","21","false","[]","[]","[]","","","","","",""
"","","","","","","","","","","","canvas-keyboard-response","295","3086440","0.0-295.0","null","null","","","","","","","","","","","","","","fixation","","","2","21","","","","","","","","","",""
"","","","","","","","","","","","canvas-keyboard-response","296","3086742","0.0-296.0","null","null","","","","","","","","","","","","","","stimulus","","","2","21","","","","","","","","","",""
"","","","","","","","","","","","canvas-button-response","297","3087494","0.0-297.0","750","knife","","","","","","","","","","","","","","perceptual","","","2","21","","","","","361","knife","6","0","1",""
"","","","","","","","","","","","canvas-button-response","298","3088215","0.0-298.0","719","10","","","","","","","","","","","","","","confidence","","","2","21","","","","","","","","","","12"
"","","","","","","","","","","","preload","299","3088216","0.0-299.0","","","","","true","","","","","","","","","","","preload","","","2","22","false","[]","[]","[]","","","","","",""
"","","","","","","","","","","","canvas-keyboard-response","300","3088517","0.0-300.0","null","null","","","","","","","","","","","","","","fixation","","","2","22","","","","","","","","","",""
"","","","","","","","","","","","canvas-keyboard-response","301","3088820","0.0-301.0","null","null","","","","","","","","","","","","","","stimulus","","","2","22","","","","","","","","","",""
"","","","","","","","","","","","canvas-button-response","302","3089665","0.0-302.0","842","elephant","","","","","","","","","","","","","","perceptual","","","2","22","","","","","333","elephant","6","0","1",""
"","","","","","","","","","","","canvas-button-response","303","3090215","0.0-303.0","549","10","","","","","","","","","","","","","","confidence","","","2","22","","","","","","","","","","13"
"","","","","","","","","","","","preload","304","3090216","0.0-304.0","","","","","true","","","","","","","","","","","preload","","","2","23","false","[]","[]","[]","","","","","",""
"","","","","","","","","","","","canvas-keyboard-response","305","3090519","0.0-305.0","null","null","","","","","","","","","","","","","","fixation","","","2","23","","","","","","","","","",""
"","","","","","","","","","","","canvas-keyboard-response","306","3090821","0.0-306.0","null","null","","","","","","","","","","","","","","stimulus","","","2","23","","","","","","","","","",""
"","","","","","","","","","","","canvas-button-response","307","3091831","0.0-307.0","1008","car","","","","","","","","","","","","","","perceptual","","","2","23","","","","","93","phone","6","0","0",""
"","","","","","","","","","","","canvas-button-response","308","3092544","0.0-308.0","711","10","","","","","","","","","","","","","","confidence","","","2","23","","","","","","","","","","13"
"","","","","","","","","","","","preload","309","3092545","0.0-309.0","","","","","true","","","","","","","","","","","preload","","","2","24","false","[]","[]","[]","","","","","",""
"","","","","","","","","","","","canvas-keyboard-response","310","3092848","0.0-310.0","null","null","","","","","","","","","","","","","","fixation","","","2","24","","","","","","","","","",""
"","","","","","","","","","","","canvas-keyboard-response","311","3093151","0.0-311.0","null","null","","","","","","","","","","","","","","stimulus","","","2","24","","","","","","","","","",""
"","","","","","","","","","","","canvas-button-response","312","3098736","0.0-312.0","5583","cat","","","","","","","","","","","","","","perceptual","","","2","24","","","","","43","car","6","0","0",""
"","","","","","","","","","","","canvas-button-response","313","3099803","0.0-313.0","1065","0","","","","","","","","","","","","","","confidence","","","2","24","","","","","","","","","","13"
"","","","","","","","","","","","preload","314","3099804","0.0-314.0","","","","","true","","","","","","","","","","","preload","","","2","25","false","[]","[]","[]","","","","","",""
"","","","","","","","","","","","canvas-keyboard-response","315","3100106","0.0-315.0","null","null","","","","","","","","","","","","","","fixation","","","2","25","","","","","","","","","",""
"","","","","","","","","","","","canvas-keyboard-response","316","3100409","0.0-316.0","null","null","","","","","","","","","","","","","","stimulus","","","2","25","","","","","","","","","",""
"","","","","","","","","","","","canvas-button-response","317","3101852","0.0-317.0","1442","bridge","","","","","","","","","","","","","","perceptual","","","2","25","","","","","33","house","10","0","0",""
"","","","","","","","","","","","canvas-button-response","318","3102723","0.0-318.0","869","10","","","","","","","","","","","","","","confidence","","","2","25","","","","","","","","","","13"
"","","","","","","","","","","","preload","319","3102724","0.0-319.0","","","","","true","","","","","","","","","","","preload","","","2","26","false","[]","[]","[]","","","","","",""
"","","","","","","","","","","","canvas-keyboard-response","320","3103026","0.0-320.0","null","null","","","","","","","","","","","","","","fixation","","","2","26","","","","","","","","","",""
"","","","","","","","","","","","canvas-keyboard-response","321","3103329","0.0-321.0","null","null","","","","","","","","","","","","","","stimulus","","","2","26","","","","","","","","","",""
"","","","","","","","","","","","canvas-button-response","322","3104569","0.0-322.0","1239","car","","","","","","","","","","","","","","perceptual","","","2","26","","","","","72","car","10","0","1",""
"","","","","","","","","","","","canvas-button-response","323","3105248","0.0-323.0","676","7","","","","","","","","","","","","","","confidence","","","2","26","","","","","","","","","","14"
"","","","","","","","","","","","preload","324","3105249","0.0-324.0","","","","","true","","","","","","","","","","","preload","","","2","27","false","[]","[]","[]","","","","","",""
"","","","","","","","","","","","canvas-keyboard-response","325","3105551","0.0-325.0","null","null","","","","","","","","","","","","","","fixation","","","2","27","","","","","","","","","",""
"","","","","","","","","","","","canvas-keyboard-response","326","3105854","0.0-326.0","null","null","","","","","","","","","","","","","","stimulus","","","2","27","","","","","","","","","",""
"","","","","","","","","","","","canvas-button-response","327","3108268","0.0-327.0","2412","bridge","","","","","","","","","","","","","","perceptual","","","2","27","","","","","260","train","10","0","0",""
"","","","","","","","","","","","canvas-button-response","328","3109636","0.0-328.0","1366","0","","","","","","","","","","","","","","confidence","","","2","27","","","","","","","","","","14"
"","","","","","","","","","","","preload","329","3109636","0.0-329.0","","","","","true","","","","","","","","","","","preload","","","2","28","false","[]","[]","[]","","","","","",""
"","","","","","","","","","","","canvas-keyboard-response","330","3109939","0.0-330.0","null","null","","","","","","","","","","","","","","fixation","","","2","28","","","","","","","","","",""
"","","","","","","","","","","","canvas-keyboard-response","331","3110241","0.0-331.0","null","null","","","","","","","","","","","","","","stimulus","","","2","28","","","","","","","","","",""
"","","","","","","","","","","","canvas-button-response","332","3111060","0.0-332.0","817","car","","","","","","","","","","","","","","perceptual","","","2","28","","","","","60","car","10","0","1",""
"","","","","","","","","","","","canvas-button-response","333","3111831","0.0-333.0","769","10","","","","","","","","","","","","","","confidence","","","2","28","","","","","","","","","","15"
"","","","","","","","","","","","preload","334","3111832","0.0-334.0","","","","","true","","","","","","","","","","","preload","","","2","29","false","[]","[]","[]","","","","","",""
"","","","","","","","","","","","canvas-keyboard-response","335","3112134","0.0-335.0","null","null","","","","","","","","","","","","","","fixation","","","2","29","","","","","","","","","",""
"","","","","","","","","","","","canvas-keyboard-response","336","3112437","0.0-336.0","null","null","","","","","","","","","","","","","","stimulus","","","2","29","","","","","","","","","",""
"","","","","","","","","","","","canvas-button-response","337","3119210","0.0-337.0","6771","bridge","","","","","","","","","","","","","","perceptual","","","2","29","","","","","229","flower","10","0","0",""
"","","","","","","","","","","","canvas-button-response","338","3119752","0.0-338.0","540","4","","","","","","","","","","","","","","confidence","","","2","29","","","","","","","","","","15"
"","","","","","","","","","","","preload","339","3119753","0.0-339.0","","","","","true","","","","","","","","","","","preload","","","2","30","false","[]","[]","[]","","","","","",""
"","","","","","","","","","","","canvas-keyboard-response","340","3120055","0.0-340.0","null","null","","","","","","","","","","","","","","fixation","","","2","30","","","","","","","","","",""
"","","","","","","","","","","","canvas-keyboard-response","341","3120357","0.0-341.0","null","null","","","","","","","","","","","","","","stimulus","","","2","30","","","","","","","","","",""
"","","","","","","","","","","","canvas-button-response","342","3128557","0.0-342.0","8198","house","","","","","","","","","","","","","","perceptual","","","2","30","","","","","301","cat","10","0","0",""
"","","","","","","","","","","","canvas-button-response","343","3130014","0.0-343.0","1456","0","","","","","","","","","","","","","","confidence","","","2","30","","","","","","","","","","15"
"","","","","","","","","","","","preload","344","3130015","0.0-344.0","","","","","true","","","","","","","","","","","preload","","","2","31","false","[]","[]","[]","","","","","",""
"","","","","","","","","","","","canvas-keyboard-response","345","3130318","0.0-345.0","null","null","","","","","","","","","","","","","","fixation","","","2","31","","","","","","","","","",""
"","","","","","","","","","","","canvas-keyboard-response","346","3130620","0.0-346.0","null","null","","","","","","","","","","","","","","stimulus","","","2","31","","","","","","","","","",""
"","","","","","","","","","","","canvas-button-response","347","3131910","0.0-347.0","1288","knife","","","","","","","","","","","","","","perceptual","","","2","31","","","","","196","bridge","10","0","0",""
"","","","","","","","","","","","canvas-button-response","348","3132327","0.0-348.0","415","6","","","","","","","","","","","","","","confidence","","","2","31","","","","","","","","","","15"
"","","","","","","","","","","","preload","349","3132328","0.0-349.0","","","","","true","","","","","","","","","","","preload","","","2","32","false","[]","[]","[]","","","","","",""
"","","","","","","","","","","","canvas-keyboard-response","350","3132631","0.0-350.0","null","null","","","","","","","","","","","","","","fixation","","","2","32","","","","","","","","","",""
"","","","","","","","","","","","canvas-keyboard-response","351","3132934","0.0-351.0","null","null","","","","","","","","","","","","","","stimulus","","","2","32","","","","","","","","","",""
"","","","","","","","","","","","canvas-button-response","352","3133777","0.0-352.0","840","flower","","","","","","","","","","","","","","perceptual","","","2","32","","","","","214","flower","6","0","1",""
"","","","","","","","","","","","canvas-button-response","353","3134239","0.0-353.0","461","5","","","","","","","","","","","","","","confidence","","","2","32","","","","","","","","","","16"
"","","","","","","","","","","","preload","354","3134240","0.0-354.0","","","","","true","","","","","","","","","","","preload","","","2","33","false","[]","[]","[]","","","","","",""
"","","","","","","","","","","","canvas-keyboard-response","355","3134543","0.0-355.0","null","null","","","","","","","","","","","","","","fixation","","","2","33","","","","","","","","","",""
"","","","","","","","","","","","canvas-keyboard-response","356","3134845","0.0-356.0","null","null","","","","","","","","","","","","","","stimulus","","","2","33","","","","","","","","","",""
"","","","","","","","","","","","canvas-button-response","357","3136398","0.0-357.0","1550","elephant","","","","","","","","","","","","","","perceptual","","","2","33","","","","","353","elephant","10","0","1",""
"","","","","","","","","","","","canvas-button-response","358","3137156","0.0-358.0","756","9","","","","","","","","","","","","","","confidence","","","2","33","","","","","","","","","","17"
"","","","","","","","","","","","preload","359","3137157","0.0-359.0","","","","","true","","","","","","","","","","","preload","","","2","34","false","[]","[]","[]","","","","","",""
"","","","","","","","","","","","canvas-keyboard-response","360","3137459","0.0-360.0","null","null","","","","","","","","","","","","","","fixation","","","2","34","","","","","","","","","",""
"","","","","","","","","","","","canvas-keyboard-response","361","3137762","0.0-361.0","null","null","","","","","","","","","","","","","","stimulus","","","2","34","","","","","","","","","",""
"","","","","","","","","","","","canvas-button-response","362","3139331","0.0-362.0","1567","bridge","","","","","","","","","","","","","","perceptual","","","2","34","","","","","167","bridge","6","0","1",""
"","","","","","","","","","","","canvas-button-response","363","3139793","0.0-363.0","460","8","","","","","","","","","","","","","","confidence","","","2","34","","","","","","","","","","18"
"","","","","","","","","","","","preload","364","3139794","0.0-364.0","","","","","true","","","","","","","","","","","preload","","","2","35","false","[]","[]","[]","","","","","",""
"","","","","","","","","","","","canvas-keyboard-response","365","3140097","0.0-365.0","null","null","","","","","","","","","","","","","","fixation","","","2","35","","","","","","","","","",""
"","","","","","","","","","","","canvas-keyboard-response","366","3140400","0.0-366.0","null","null","","","","","","","","","","","","","","stimulus","","","2","35","","","","","","","","","",""
"","","","","","","","","","","","canvas-button-response","367","3144739","0.0-367.0","4337","car","","","","","","","","","","","","","","perceptual","","","2","35","","","","","290","cat","6","0","0",""
"","","","","","","","","","","","canvas-button-response","368","3145494","0.0-368.0","752","5","","","","","","","","","","","","","","confidence","","","2","35","","","","","","","","","","18"
"","","","","","","","","","","","preload","369","3145495","0.0-369.0","","","","","true","","","","","","","","","","","preload","","","2","36","false","[]","[]","[]","","","","","",""
"","","","","","","","","","","","canvas-keyboard-response","370","3145797","0.0-370.0","null","null","","","","","","","","","","","","","","fixation","","","2","36","","","","","","","","","",""
"","","","","","","","","","","","canvas-keyboard-response","371","3146100","0.0-371.0","null","null","","","","","","","","","","","","","","stimulus","","","2","36","","","","","","","","","",""
"","","","","","","","","","","","canvas-button-response","372","3146914","0.0-372.0","812","house","","","","","","","","","","","","","","perceptual","","","2","36","","","","","7","house","6","0","1",""
"","","","","","","","","","","","canvas-button-response","373","3147714","0.0-373.0","798","10","","","","","","","","","","","","","","confidence","","","2","36","","","","","","","","","","19"
"","","","","","","","","","","","preload","374","3147715","0.0-374.0","","","","","true","","","","","","","","","","","preload","","","2","37","false","[]","[]","[]","","","","","",""
"","","","","","","","","","","","canvas-keyboard-response","375","3148017","0.0-375.0","null","null","","","","","","","","","","","","","","fixation","","","2","37","","","","","","","","","",""
"","","","","","","","","","","","canvas-keyboard-response","376","3148320","0.0-376.0","null","null","","","","","","","","","","","","","","stimulus","","","2","37","","","","","","","","","",""
"","","","","","","","","","","","canvas-button-response","377","3152001","0.0-377.0","3679","elephant","","","","","","","","","","","","","","perceptual","","","2","37","","","","","336","elephant","6","0","1",""
"","","","","","","","","","","","canvas-button-response","378","3152664","0.0-378.0","661","10","","","","","","","","","","","","","","confidence","","","2","37","","","","","","","","","","20"
"","","","","","","","","","","","preload","379","3152665","0.0-379.0","","","","","true","","","","","","","","","","","preload","","","2","38","false","[]","[]","[]","","","","","",""
"","","","","","","","","","","","canvas-keyboard-response","380","3152967","0.0-380.0","null","null","","","","","","","","","","","","","","fixation","","","2","38","","","","","","","","","",""
"","","","","","","","","","","","canvas-keyboard-response","381","3153271","0.0-381.0","null","null","","","","","","","","","","","","","","stimulus","","","2","38","","","","","","","","","",""
"","","","","","","","","","","","canvas-button-response","382","3154773","0.0-382.0","1500","cat","","","","","","","","","","","","","","perceptual","","","2","38","","","","","280","cat","6","0","1",""
"","","","","","","","","","","","canvas-button-response","383","3155267","0.0-383.0","492","7","","","","","","","","","","","","","","confidence","","","2","38","","","","","","","","","","21"
"","","","","","","","","","","","preload","384","3155268","0.0-384.0","","","","","true","","","","","","","","","","","preload","","","2","39","false","[]","[]","[]","","","","","",""
"","","","","","","","","","","","canvas-keyboard-response","385","3155569","0.0-385.0","null","null","","","","","","","","","","","","","","fixation","","","2","39","","","","","","","","","",""
"","","","","","","","","","","","canvas-keyboard-response","386","3155872","0.0-386.0","null","null","","","","","","","","","","","","","","stimulus","","","2","39","","","","","","","","","",""
"","","","","","","","","","","","canvas-button-response","387","3156677","0.0-387.0","802","train","","","","","","","","","","","","","","perceptual","","","2","39","","","","","251","train","6","0","1",""
"","","","","","","","","","","","canvas-button-response","388","3157327","0.0-388.0","648","10","","","","","","","","","","","","","","confidence","","","2","39","","","","","","","","","","22"
"","","","","","","","","","","","preload","389","3157328","0.0-389.0","","","","","true","","","","","","","","","","","preload","","","2","40","false","[]","[]","[]","","","","","",""
"","","","","","","","","","","","canvas-keyboard-response","390","3157629","0.0-390.0","null","null","","","","","","","","","","","","","","fixation","","","2","40","","","","","","","","","",""
"","","","","","","","","","","","canvas-keyboard-response","391","3157931","0.0-391.0","null","null","","","","","","","","","","","","","","stimulus","","","2","40","","","","","","","","","",""
"","","","","","","","","","","","canvas-button-response","392","3158852","0.0-392.0","919","elephant","","","","","","","","","","","","","","perceptual","","","2","40","","","","","351","elephant","10","0","1",""
"","","","","","","","","","","","canvas-button-response","393","3159418","0.0-393.0","564","10","","","","","","","","","","","","","","confidence","","","2","40","","","","","","","","","","23"
"","","","","","","","","","","","preload","394","3159419","0.0-394.0","","","","","true","","","","","","","","","","","preload","","","2","41","false","[]","[]","[]","","","","","",""
"","","","","","","","","","","","canvas-keyboard-response","395","3159721","0.0-395.0","null","null","","","","","","","","","","","","","","fixation","","","2","41","","","","","","","","","",""
"","","","","","","","","","","","canvas-keyboard-response","396","3160024","0.0-396.0","null","null","","","","","","","","","","","","","","stimulus","","","2","41","","","","","","","","","",""
"","","","","","","","","","","","canvas-button-response","397","3161072","0.0-397.0","1046","car","","","","","","","","","","","","","","perceptual","","","2","41","","","","","48","car","6","0","1",""
"","","","","","","","","","","","canvas-button-response","398","3161752","0.0-398.0","677","10","","","","","","","","","","","","","","confidence","","","2","41","","","","","","","","","","24"
"","","","","","","","","","","","preload","399","3161753","0.0-399.0","","","","","true","","","","","","","","","","","preload","","","2","42","false","[]","[]","[]","","","","","",""
"","","","","","","","","","","","canvas-keyboard-response","400","3162054","0.0-400.0","null","null","","","","","","","","","","","","","","fixation","","","2","42","","","","","","","","","",""
"","","","","","","","","","","","canvas-keyboard-response","401","3162357","0.0-401.0","null","null","","","","","","","","","","","","","","stimulus","","","2","42","","","","","","","","","",""
"","","","","","","","","","","","canvas-button-response","402","3163076","0.0-402.0","717","bridge","","","","","","","","","","","","","","perceptual","","","2","42","","","","","169","bridge","6","0","1",""
"","","","","","","","","","","","canvas-button-response","403","3163922","0.0-403.0","844","10","","","","","","","","","","","","","","confidence","","","2","42","","","","","","","","","","25"
"","","","","","","","","","","","preload","404","3163923","0.0-404.0","","","","","true","","","","","","","","","","","preload","","","2","43","false","[]","[]","[]","","","","","",""
"","","","","","","","","","","","canvas-keyboard-response","405","3164225","0.0-405.0","null","null","","","","","","","","","","","","","","fixation","","","2","43","","","","","","","","","",""
"","","","","","","","","","","","canvas-keyboard-response","406","3164528","0.0-406.0","null","null","","","","","","","","","","","","","","stimulus","","","2","43","","","","","","","","","",""
"","","","","","","","","","","","canvas-button-response","407","3171135","0.0-407.0","6605","elephant","","","","","","","","","","","","","","perceptual","","","2","43","","","","","323","elephant","6","0","1",""
"","","","","","","","","","","","canvas-button-response","408","3171717","0.0-408.0","581","10","","","","","","","","","","","","","","confidence","","","2","43","","","","","","","","","","26"
"","","","","","","","","","","","preload","409","3171718","0.0-409.0","","","","","true","","","","","","","","","","","preload","","","2","44","false","[]","[]","[]","","","","","",""
"","","","","","","","","","","","canvas-keyboard-response","410","3172020","0.0-410.0","null","null","","","","","","","","","","","","","","fixation","","","2","44","","","","","","","","","",""
"","","","","","","","","","","","canvas-keyboard-response","411","3172322","0.0-411.0","null","null","","","","","","","","","","","","","","stimulus","","","2","44","","","","","","","","","",""
"","","","","","","","","","","","canvas-button-response","412","3174309","0.0-412.0","1985","bridge","","","","","","","","","","","","","","perceptual","","","2","44","","","","","199","bridge","10","0","1",""
"","","","","","","","","","","","canvas-button-response","413","3174960","0.0-413.0","648","10","","","","","","","","","","","","","","confidence","","","2","44","","","","","","","","","","27"
"","","","","","","","","","","","preload","414","3174961","0.0-414.0","","","","","true","","","","","","","","","","","preload","","","2","45","false","[]","[]","[]","","","","","",""
"","","","","","","","","","","","canvas-keyboard-response","415","3175262","0.0-415.0","null","null","","","","","","","","","","","","","","fixation","","","2","45","","","","","","","","","",""
"","","","","","","","","","","","canvas-keyboard-response","416","3175565","0.0-416.0","null","null","","","","","","","","","","","","","","stimulus","","","2","45","","","","","","","","","",""
"","","","","","","","","","","","canvas-button-response","417","3177205","0.0-417.0","1638","bridge","","","","","","","","","","","","","","perceptual","","","2","45","","","","","130","bed","6","0","0",""
"","","","","","","","","","","","canvas-button-response","418","3177747","0.0-418.0","540","10","","","","","","","","","","","","","","confidence","","","2","45","","","","","","","","","","27"
"","","","","","","","","","","","preload","419","3177748","0.0-419.0","","","","","true","","","","","","","","","","","preload","","","2","46","false","[]","[]","[]","","","","","",""
"","","","","","","","","","","","canvas-keyboard-response","420","3178049","0.0-420.0","null","null","","","","","","","","","","","","","","fixation","","","2","46","","","","","","","","","",""
"","","","","","","","","","","","canvas-keyboard-response","421","3178352","0.0-421.0","null","null","","","","","","","","","","","","","","stimulus","","","2","46","","","","","","","","","",""
"","","","","","","","","","","","canvas-button-response","422","3179593","0.0-422.0","1238","knife","","","","","","","","","","","","","","perceptual","","","2","46","","","","","398","knife","10","0","1",""
"","","","","","","","","","","","canvas-button-response","423","3180080","0.0-423.0","486","10","","","","","","","","","","","","","","confidence","","","2","46","","","","","","","","","","28"
"","","","","","","","","","","","preload","424","3180082","0.0-424.0","","","","","true","","","","","","","","","","","preload","","","2","47","false","[]","[]","[]","","","","","",""
"","","","","","","","","","","","canvas-keyboard-response","425","3180383","0.0-425.0","null","null","","","","","","","","","","","","","","fixation","","","2","47","","","","","","","","","",""
"","","","","","","","","","","","canvas-keyboard-response","426","3180686","0.0-426.0","null","null","","","","","","","","","","","","","","stimulus","","","2","47","","","","","","","","","",""
"","","","","","","","","","","","canvas-button-response","427","3181493","0.0-427.0","804","car","","","","","","","","","","","","","","perceptual","","","2","47","","","","","75","car","10","0","1",""
"","","","","","","","","","","","canvas-button-response","428","3181980","0.0-428.0","485","10","","","","","","","","","","","","","","confidence","","","2","47","","","","","","","","","","29"
"","","","","","","","","","","","preload","429","3181981","0.0-429.0","","","","","true","","","","","","","","","","","preload","","","2","48","false","[]","[]","[]","","","","","",""
"","","","","","","","","","","","canvas-keyboard-response","430","3182282","0.0-430.0","null","null","","","","","","","","","","","","","","fixation","","","2","48","","","","","","","","","",""
"","","","","","","","","","","","canvas-keyboard-response","431","3182585","0.0-431.0","null","null","","","","","","","","","","","","","","stimulus","","","2","48","","","","","","","","","",""
"","","","","","","","","","","","canvas-button-response","432","3183230","0.0-432.0","643","car","","","","","","","","","","","","","","perceptual","","","2","48","","","","","52","car","6","0","1",""
"","","","","","","","","","","","canvas-button-response","433","3183814","0.0-433.0","581","10","","","","","","","","","","","","","","confidence","","","2","48","","","","","","","","","","30"
"","","","","","","","","","","","preload","434","3183815","0.0-434.0","","","","","true","","","","","","","","","","","preload","","","2","49","false","[]","[]","[]","","","","","",""
"","","","","","","","","","","","canvas-keyboard-response","435","3184117","0.0-435.0","null","null","","","","","","","","","","","","","","fixation","","","2","49","","","","","","","","","",""
"","","","","","","","","","","","canvas-keyboard-response","436","3184419","0.0-436.0","null","null","","","","","","","","","","","","","","stimulus","","","2","49","","","","","","","","","",""
"","","","","","","","","","","","canvas-button-response","437","3185126","0.0-437.0","704","car","","","","","","","","","","","","","","perceptual","","","2","49","","","","","62","car","10","0","1",""
"","","","","","","","","","","","canvas-button-response","438","3185793","0.0-438.0","665","10","","","","","","","","","","","","","","confidence","","","2","49","","","","","","","","","","31"
"","","","","","","","","","","","html-button-response","439","3219751","0.0-439.0","33956","0","","","","","","","","","","","","","","<p style=""font-size:20px;color:#000000"">You got 31 out of 50 trials correct in this block.<br><br>You have completed 6% of the experiment.<br><br>Take a short break.<br><br>When you are ready, click Continue to proceed.","","","2","49","","","","","","","","","",""
"","","","","","","","","","","","html-keyboard-response","440","3220754","0.0-440.0","null","null","","","","","","","","","","","","","","<p style=""font-size:32px;color:#000000""><br><br> RUN: &nbsp 1/4 <br><br> BLOCK: 2/4 ","","","2","49","","","","","","","","","",""
"","","","","","","","","","","","preload","441","3220755","0.0-441.0","","","","","true","","","","","","","","","","","preload","","","2","50","false","[]","[]","[]","","","","","",""
"","","","","","","","","","","","canvas-keyboard-response","442","3221057","0.0-442.0","null","null","","","","","","","","","","","","","","fixation","","","2","50","","","","","","","","","",""
"","","","","","","","","","","","canvas-keyboard-response","443","3221360","0.0-443.0","null","null","","","","","","","","","","","","","","stimulus","","","2","50","","","","","","","","","",""
"","","","","","","","","","","","canvas-button-response","444","3222393","0.0-444.0","1031","bridge","","","","","","","","","","","","","","perceptual","","","2","50","","","","","29","house","10","0","0",""
"","","","","","","","","","","","canvas-button-response","445","3223147","0.0-445.0","752","10","","","","","","","","","","","","","","confidence","","","2","50","","","","","","","","","","0"
"","","","","","","","","","","","preload","446","3223148","0.0-446.0","","","","","true","","","","","","","","","","","preload","","","2","51","false","[]","[]","[]","","","","","",""
"","","","","","","","","","","","canvas-keyboard-response","447","3223450","0.0-447.0","null","null","","","","","","","","","","","","","","fixation","","","2","51","","","","","","","","","",""
"","","","","","","","","","","","canvas-keyboard-response","448","3223752","0.0-448.0","null","null","","","","","","","","","","","","","","stimulus","","","2","51","","","","","","","","","",""
"","","","","","","","","","","","canvas-button-response","449","3224584","0.0-449.0","830","bridge","","","","","","","","","","","","","","perceptual","","","2","51","","","","","184","bridge","10","0","1",""
"","","","","","","","","","","","canvas-button-response","450","3225151","0.0-450.0","565","10","","","","","","","","","","","","","","confidence","","","2","51","","","","","","","","","","1"
"","","","","","","","","","","","preload","451","3225152","0.0-451.0","","","","","true","","","","","","","","","","","preload","","","2","52","false","[]","[]","[]","","","","","",""
"","","","","","","","","","","","canvas-keyboard-response","452","3225454","0.0-452.0","null","null","","","","","","","","","","","","","","fixation","","","2","52","","","","","","","","","",""
"","","","","","","","","","","","canvas-keyboard-response","453","3225756","0.0-453.0","null","null","","","","","","","","","","","","","","stimulus","","","2","52","","","","","","","","","",""
"","","","","","","","","","","","canvas-button-response","454","3226463","0.0-454.0","704","cat","","","","","","","","","","","","","","perceptual","","","2","52","","","","","285","cat","6","0","1",""
"","","","","","","","","","","","canvas-button-response","455","3227493","0.0-455.0","1027","10","","","","","","","","","","","","","","confidence","","","2","52","","","","","","","","","","2"
"","","","","","","","","","","","preload","456","3227493","0.0-456.0","","","","","true","","","","","","","","","","","preload","","","2","53","false","[]","[]","[]","","","","","",""
"","","","","","","","","","","","canvas-keyboard-response","457","3227795","0.0-457.0","null","null","","","","","","","","","","","","","","fixation","","","2","53","","","","","","","","","",""
"","","","","","","","","","","","canvas-keyboard-response","458","3228098","0.0-458.0","null","null","","","","","","","","","","","","","","stimulus","","","2","53","","","","","","","","","",""
"","","","","","","","","","","","canvas-button-response","459","3228905","0.0-459.0","804","car","","","","","","","","","","","","","","perceptual","","","2","53","","","","","267","train","10","0","0",""
"","","","","","","","","","","","canvas-button-response","460","3229388","0.0-460.0","481","10","","","","","","","","","","","","","","confidence","","","2","53","","","","","","","","","","2"
"","","","","","","","","","","","preload","461","3229389","0.0-461.0","","","","","true","","","","","","","","","","","preload","","","2","54","false","[]","[]","[]","","","","","",""
"","","","","","","","","","","","canvas-keyboard-response","462","3229690","0.0-462.0","null","null","","","","","","","","","","","","","","fixation","","","2","54","","","","","","","","","",""
"","","","","","","","","","","","canvas-keyboard-response","463","3229993","0.0-463.0","null","null","","","","","","","","","","","","","","stimulus","","","2","54","","","","","","","","","",""
"","","","","","","","","","","","canvas-button-response","464","3231562","0.0-464.0","1567","cat","","","","","","","","","","","","","","perceptual","","","2","54","","","","","295","cat","6","0","1",""
"","","","","","","","","","","","canvas-button-response","465","3232392","0.0-465.0","829","10","","","","","","","","","","","","","","confidence","","","2","54","","","","","","","","","","3"
"","","","","","","","","","","","preload","466","3232393","0.0-466.0","","","","","true","","","","","","","","","","","preload","","","2","55","false","[]","[]","[]","","","","","",""
"","","","","","","","","","","","canvas-keyboard-response","467","3232695","0.0-467.0","null","null","","","","","","","","","","","","","","fixation","","","2","55","","","","","","","","","",""
"","","","","","","","","","","","canvas-keyboard-response","468","3232998","0.0-468.0","null","null","","","","","","","","","","","","","","stimulus","","","2","55","","","","","","","","","",""
"","","","","","","","","","","","canvas-button-response","469","3233592","0.0-469.0","592","car","","","","","","","","","","","","","","perceptual","","","2","55","","","","","74","car","10","0","1",""
"","","","","","","","","","","","canvas-button-response","470","3234105","0.0-470.0","510","10","","","","","","","","","","","","","","confidence","","","2","55","","","","","","","","","","4"
"","","","","","","","","","","","preload","471","3234106","0.0-471.0","","","","","true","","","","","","","","","","","preload","","","2","56","false","[]","[]","[]","","","","","",""
"","","","","","","","","","","","canvas-keyboard-response","472","3234408","0.0-472.0","null","null","","","","","","","","","","","","","","fixation","","","2","56","","","","","","","","","",""
"","","","","","","","","","","","canvas-keyboard-response","473","3234710","0.0-473.0","null","null","","","","","","","","","","","","","","stimulus","","","2","56","","","","","","","","","",""
"","","","","","","","","","","","canvas-button-response","474","3235892","0.0-474.0","1180","house","","","","","","","","","","","","","","perceptual","","","2","56","","","","","139","bed","6","0","0",""
"","","","","","","","","","","","canvas-button-response","475","3236680","0.0-475.0","785","10","","","","","","","","","","","","","","confidence","","","2","56","","","","","","","","","","4"
"","","","","","","","","","","","preload","476","3236681","0.0-476.0","","","","","true","","","","","","","","","","","preload","","","2","57","false","[]","[]","[]","","","","","",""
"","","","","","","","","","","","canvas-keyboard-response","477","3236983","0.0-477.0","null","null","","","","","","","","","","","","","","fixation","","","2","57","","","","","","","","","",""
"","","","","","","","","","","","canvas-keyboard-response","478","3237286","0.0-478.0","null","null","","","","","","","","","","","","","","stimulus","","","2","57","","","","","","","","","",""
"","","","","","","","","","","","canvas-button-response","479","3238247","0.0-479.0","959","cat","","","","","","","","","","","","","","perceptual","","","2","57","","","","","284","cat","6","0","1",""
"","","","","","","","","","","","canvas-button-response","480","3238888","0.0-480.0","639","10","","","","","","","","","","","","","","confidence","","","2","57","","","","","","","","","","5"
"","","","","","","","","","","","preload","481","3238889","0.0-481.0","","","","","true","","","","","","","","","","","preload","","","2","58","false","[]","[]","[]","","","","","",""
"","","","","","","","","","","","canvas-keyboard-response","482","3239190","0.0-482.0","null","null","","","","","","","","","","","","","","fixation","","","2","58","","","","","","","","","",""
"","","","","","","","","","","","canvas-keyboard-response","483","3239493","0.0-483.0","null","null","","","","","","","","","","","","","","stimulus","","","2","58","","","","","","","","","",""
"","","","","","","","","","","","canvas-button-response","484","3240367","0.0-484.0","872","bridge","","","","","","","","","","","","","","perceptual","","","2","58","","","","","322","elephant","6","0","0",""
"","","","","","","","","","","","canvas-button-response","485","3241659","0.0-485.0","1289","10","","","","","","","","","","","","","","confidence","","","2","58","","","","","","","","","","5"
"","","","","","","","","","","","preload","486","3241660","0.0-486.0","","","","","true","","","","","","","","","","","preload","","","2","59","false","[]","[]","[]","","","","","",""
"","","","","","","","","","","","canvas-keyboard-response","487","3241962","0.0-487.0","null","null","","","","","","","","","","","","","","fixation","","","2","59","","","","","","","","","",""
"","","","","","","","","","","","canvas-keyboard-response","488","3242264","0.0-488.0","null","null","","","","","","","","","","","","","","stimulus","","","2","59","","","","","","","","","",""
"","","","","","","","","","","","canvas-button-response","489","3243401","0.0-489.0","1134","cat","","","","","","","","","","","","","","perceptual","","","2","59","","","","","263","train","10","0","0",""
