"width","height","webaudio","browser","browser_version","mobile","os","fullscreen","vsync_rate","webcam","microphone","trial_type","trial_index","time_elapsed","internal_node_id","rt","response","accuracy","view_history","success","item_width_mm","item_height_mm","item_width_px","px2mm","view_dist_mm","item_width_deg","px2deg","scale_factor","win_width_deg","win_height_deg","stimulus","datetime","subjectID","curr_triallist","trial_no","timeout","failed_images","failed_audio","failed_video","image_index","category","blur","reps","correct","running_score"
"1383","729","true","chrome","141.0.0","false","Windows 10","true","60.32","true","true","browser-check","0","1000","0.0-0.0","","","","","","","","","","","","","","","","","","","","","","","","","","","","","",""
"","","","","","","","","","","","survey","1","22066","0.0-1.0","21023","{""P0_Q0"":""904119950"",""P0_Q1"":""18"",""P1_Q0"":""Male"",""P1_Q1"":""Not Hispanic or Latino"",""P1_Q2"":""Asian"",""P1_Q3"":""Corrected-to-Normal (using glasses/contacts)"",""P1_Q4"":""Right-Handed""}","[]","","","","","","","","","","","","","","","","","","","","","","","","","","",""
"","","","","","","","","","","","instructions","2","310796","0.0-2.0","288729","","","[{""page_index"":0,""viewing_time"":6044},{""page_index"":1,""viewing_time"":231937},{""page_index"":2,""viewing_time"":48062},{""page_index"":3,""viewing_time"":2687}]","","","","","","","","","","","","","","","","","","","","","","","","","",""
"","","","","","","","","","","","fullscreen","3","313701","0.0-3.0","1886","","","","true","","","","","","","","","","","","","","","","","","","","","","","","",""
"","","","","","","","","","","","virtual-chinrest","4","433190","0.0-4.0","119486","","","","","85.6","53.98","263.60613982786396","3.0804260339884673","557.07","8.786871327595465","30","1.327738421527479","46.1","28.8","","","","","","","","","","","","","","",""
"","","","","","","","","","","","instructions","5","491799","0.0-5.0","58607","","","[{""page_index"":0,""viewing_time"":4941},{""page_index"":1,""viewing_time"":3735},{""page_index"":2,""viewing_time"":6349},{""page_index"":3,""viewing_time"":6270},{""page_index"":4,""viewing_time"":13858},{""page_index"":5,""viewing_time"":21071},{""page_index"":6,""viewing_time"":2383}]","","","","","","","","","","","","","","","","","","","","","","","","","",""
"","","","","","","","","","","","html-button-response","6","495731","0.0-6.0","3927","0","","","","","","","","","","","","","","start_practice","Sat Oct 18 2025 20:32:24 GMT-0400 (Eastern Daylight Time)","27300","","","","","","","","","","","",""
"","","","","","","","","","","","preload","7","495733","0.0-7.0","","","","","true","","","","","","","","","","","preload","","","0","0","false","[]","[]","[]","","","","","",""
"","","","","","","","","","","","canvas-keyboard-response","8","496039","0.0-8.0","null","null","","","","","","","","","","","","","","fixation","","","0","0","","","","","","","","","",""
"","","","","","","","","","","","canvas-keyboard-response","9","496354","0.0-9.0","null","null","","","","","","","","","","","","","","stimulus","","","0","0","","","","","","","","","",""
"","","","","","","","","","","","canvas-button-response","10","497378","0.0-10.0","1021","cat","","","","","","","","","","","","","","perceptual","","","0","0","","","","","72","cat","1","","1",""
"","","","","","","","","","","","canvas-button-response","11","499324","0.0-11.0","1944","10","","","","","","","","","","","","","","confidence","","","0","0","","","","","","","","","","1"
"","","","","","","","","","","","html-keyboard-response","12","500329","0.0-12.0","null","null","","","","","","","","","","","","","","feedback","Sat Oct 18 2025 20:32:31 GMT-0400 (Eastern Daylight Time)","27300","0","0","","","","","","","","","",""
"","","","","","","","","","","","preload","13","500330","0.0-13.0","","","","","true","","","","","","","","","","","preload","","","0","1","false","[]","[]","[]","","","","","",""
"","","","","","","","","","","","canvas-keyboard-response","14","500638","0.0-14.0","null","null","","","","","","","","","","","","","","fixation","","","0","1","","","","","","","","","",""
"","","","","","","","","","","","canvas-keyboard-response","15","500940","0.0-15.0","null","null","","","","","","","","","","","","","","stimulus","","","0","1","","","","","","","","","",""
"","","","","","","","","","","","canvas-button-response","16","501827","0.0-16.0","886","phone","","","","","","","","","","","","","","perceptual","","","0","1","","","","","22","phone","1","","1",""
"","","","","","","","","","","","canvas-button-response","17","502660","0.0-17.0","832","9","","","","","","","","","","","","","","confidence","","","0","1","","","","","","","","","","2"
"","","","","","","","","","","","html-keyboard-response","18","503675","0.0-18.0","null","null","","","","","","","","","","","","","","feedback","Sat Oct 18 2025 20:32:35 GMT-0400 (Eastern Daylight Time)","27300","0","1","","","","","","","","","",""
"","","","","","","","","","","","preload","19","503676","0.0-19.0","","","","","true","","","","","","","","","","","preload","","","0","2","false","[]","[]","[]","","","","","",""
"","","","","","","","","","","","canvas-keyboard-response","20","503986","0.0-20.0","null","null","","","","","","","","","","","","","","fixation","","","0","2","","","","","","","","","",""
"","","","","","","","","","","","canvas-keyboard-response","21","504298","0.0-21.0","null","null","","","","","","","","","","","","","","stimulus","","","0","2","","","","","","","","","",""
"","","","","","","","","","","","canvas-button-response","22","507298","0.0-22.0","2998","car","","","","","","","","","","","","","","perceptual","","","0","2","","","","","2","house","1","","0",""
"","","","","","","","","","","","canvas-button-response","23","508266","0.0-23.0","967","1","","","","","","","","","","","","","","confidence","","","0","2","","","","","","","","","","2"
"","","","","","","","","","","","html-keyboard-response","24","509275","0.0-24.0","null","null","","","","","","","","","","","","","","feedback","Sat Oct 18 2025 20:32:40 GMT-0400 (Eastern Daylight Time)","27300","0","2","","","","","","","","","",""
"","","","","","","","","","","","preload","25","509275","0.0-25.0","","","","","true","","","","","","","","","","","preload","","","0","3","false","[]","[]","[]","","","","","",""
"","","","","","","","","","","","canvas-keyboard-response","26","509578","0.0-26.0","null","null","","","","","","","","","","","","","","fixation","","","0","3","","","","","","","","","",""
"","","","","","","","","","","","canvas-keyboard-response","27","509889","0.0-27.0","null","null","","","","","","","","","","","","","","stimulus","","","0","3","","","","","","","","","",""
"","","","","","","","","","","","canvas-button-response","28","512146","0.0-28.0","2254","cat","","","","","","","","","","","","","","perceptual","","","0","3","","","","","82","elephant","1","","0",""
"","","","","","","","","","","","canvas-button-response","29","514127","0.0-29.0","1980","4","","","","","","","","","","","","","","confidence","","","0","3","","","","","","","","","","2"
"","","","","","","","","","","","html-keyboard-response","30","515140","0.0-30.0","null","null","","","","","","","","","","","","","","feedback","Sat Oct 18 2025 20:32:46 GMT-0400 (Eastern Daylight Time)","27300","0","3","","","","","","","","","",""
"","","","","","","","","","","","preload","31","515141","0.0-31.0","","","","","true","","","","","","","","","","","preload","","","0","4","false","[]","[]","[]","","","","","",""
"","","","","","","","","","","","canvas-keyboard-response","32","515446","0.0-32.0","null","null","","","","","","","","","","","","","","fixation","","","0","4","","","","","","","","","",""
"","","","","","","","","","","","canvas-keyboard-response","33","515752","0.0-33.0","null","null","","","","","","","","","","","","","","stimulus","","","0","4","","","","","","","","","",""
"","","","","","","","","","","","canvas-button-response","34","516823","0.0-34.0","1070","car","","","","","","","","","","","","","","perceptual","","","0","4","","","","","12","car","1","","1",""
"","","","","","","","","","","","canvas-button-response","35","517917","0.0-35.0","1093","9","","","","","","","","","","","","","","confidence","","","0","4","","","","","","","","","","3"
"","","","","","","","","","","","html-keyboard-response","36","518921","0.0-36.0","null","null","","","","","","","","","","","","","","feedback","Sat Oct 18 2025 20:32:50 GMT-0400 (Eastern Daylight Time)","27300","0","4","","","","","","","","","",""
"","","","","","","","","","","","preload","37","518922","0.0-37.0","","","","","true","","","","","","","","","","","preload","","","0","5","false","[]","[]","[]","","","","","",""
"","","","","","","","","","","","canvas-keyboard-response","38","519239","0.0-38.0","null","null","","","","","","","","","","","","","","fixation","","","0","5","","","","","","","","","",""
"","","","","","","","","","","","canvas-keyboard-response","39","519553","0.0-39.0","null","null","","","","","","","","","","","","","","stimulus","","","0","5","","","","","","","","","",""
"","","","","","","","","","","","canvas-button-response","40","520552","0.0-40.0","998","knife","","","","","","","","","","","","","","perceptual","","","0","5","","","","","92","knife","1","","1",""
"","","","","","","","","","","","canvas-button-response","41","521576","0.0-41.0","1023","8","","","","","","","","","","","","","","confidence","","","0","5","","","","","","","","","","4"
"","","","","","","","","","","","html-keyboard-response","42","522594","0.0-42.0","null","null","","","","","","","","","","","","","","feedback","Sat Oct 18 2025 20:32:53 GMT-0400 (Eastern Daylight Time)","27300","0","5","","","","","","","","","",""
"","","","","","","","","","","","preload","43","522595","0.0-43.0","","","","","true","","","","","","","","","","","preload","","","0","6","false","[]","[]","[]","","","","","",""
"","","","","","","","","","","","canvas-keyboard-response","44","522901","0.0-44.0","null","null","","","","","","","","","","","","","","fixation","","","0","6","","","","","","","","","",""
"","","","","","","","","","","","canvas-keyboard-response","45","523218","0.0-45.0","null","null","","","","","","","","","","","","","","stimulus","","","0","6","","","","","","","","","",""
"","","","","","","","","","","","canvas-button-response","46","524339","0.0-46.0","1118","bed","","","","","","","","","","","","","","perceptual","","","0","6","","","","","32","bed","1","","1",""
"","","","","","","","","","","","canvas-button-response","47","525016","0.0-47.0","676","9","","","","","","","","","","","","","","confidence","","","0","6","","","","","","","","","","5"
"","","","","","","","","","","","html-keyboard-response","48","526033","0.0-48.0","null","null","","","","","","","","","","","","","","feedback","Sat Oct 18 2025 20:32:57 GMT-0400 (Eastern Daylight Time)","27300","0","6","","","","","","","","","",""
"","","","","","","","","","","","preload","49","526035","0.0-49.0","","","","","true","","","","","","","","","","","preload","","","0","7","false","[]","[]","[]","","","","","",""
"","","","","","","","","","","","canvas-keyboard-response","50","526350","0.0-50.0","null","null","","","","","","","","","","","","","","fixation","","","0","7","","","","","","","","","",""
"","","","","","","","","","","","canvas-keyboard-response","51","526652","0.0-51.0","null","null","","","","","","","","","","","","","","stimulus","","","0","7","","","","","","","","","",""
"","","","","","","","","","","","canvas-button-response","52","527385","0.0-52.0","731","bridge","","","","","","","","","","","","","","perceptual","","","0","7","","","","","42","bridge","1","","1",""
"","","","","","","","","","","","canvas-button-response","53","528156","0.0-53.0","770","10","","","","","","","","","","","","","","confidence","","","0","7","","","","","","","","","","6"
"","","","","","","","","","","","html-keyboard-response","54","529171","0.0-54.0","null","null","","","","","","","","","","","","","","feedback","Sat Oct 18 2025 20:33:00 GMT-0400 (Eastern Daylight Time)","27300","0","7","","","","","","","","","",""
"","","","","","","","","","","","preload","55","529172","0.0-55.0","","","","","true","","","","","","","","","","","preload","","","0","8","false","[]","[]","[]","","","","","",""
"","","","","","","","","","","","canvas-keyboard-response","56","529483","0.0-56.0","null","null","","","","","","","","","","","","","","fixation","","","0","8","","","","","","","","","",""
"","","","","","","","","","","","canvas-keyboard-response","57","529787","0.0-57.0","null","null","","","","","","","","","","","","","","stimulus","","","0","8","","","","","","","","","",""
"","","","","","","","","","","","canvas-button-response","58","531022","0.0-58.0","1234","house","","","","","","","","","","","","","","perceptual","","","0","8","","","","","52","flower","1","","0",""
"","","","","","","","","","","","canvas-button-response","59","532044","0.0-59.0","1020","6","","","","","","","","","","","","","","confidence","","","0","8","","","","","","","","","","6"
"","","","","","","","","","","","html-keyboard-response","60","533060","0.0-60.0","null","null","","","","","","","","","","","","","","feedback","Sat Oct 18 2025 20:33:04 GMT-0400 (Eastern Daylight Time)","27300","0","8","","","","","","","","","",""
"","","","","","","","","","","","preload","61","533065","0.0-61.0","","","","","true","","","","","","","","","","","preload","","","0","9","false","[]","[]","[]","","","","","",""
"","","","","","","","","","","","canvas-keyboard-response","62","533382","0.0-62.0","null","null","","","","","","","","","","","","","","fixation","","","0","9","","","","","","","","","",""
"","","","","","","","","","","","canvas-keyboard-response","63","533686","0.0-63.0","null","null","","","","","","","","","","","","","","stimulus","","","0","9","","","","","","","","","",""
"","","","","","","","","","","","canvas-button-response","64","534548","0.0-64.0","859","train","","","","","","","","","","","","","","perceptual","","","0","9","","","","","62","train","1","","1",""
"","","","","","","","","","","","canvas-button-response","65","535138","0.0-65.0","589","10","","","","","","","","","","","","","","confidence","","","0","9","","","","","","","","","","7"
"","","","","","","","","","","","html-keyboard-response","66","536320","0.0-66.0","null","null","","","","","","","","","","","","","","feedback","Sat Oct 18 2025 20:33:07 GMT-0400 (Eastern Daylight Time)","27300","0","9","","","","","","","","","",""
"","","","","","","","","","","","html-button-response","67","539372","0.0-67.0","3049","0","","","","","","","","","","","","","","start_practice","Sat Oct 18 2025 20:33:08 GMT-0400 (Eastern Daylight Time)","27300","0","9","","","","","","","","","",""
"","","","","","","","","","","","preload","68","539372","0.0-68.0","","","","","true","","","","","","","","","","","preload","","","1","0","false","[]","[]","[]","","","","","",""
"","","","","","","","","","","","canvas-keyboard-response","69","539682","0.0-69.0","null","null","","","","","","","","","","","","","","fixation","","","1","0","","","","","","","","","",""
"","","","","","","","","","","","canvas-keyboard-response","70","539987","0.0-70.0","null","null","","","","","","","","","","","","","","stimulus","","","1","0","","","","","","","","","",""
"","","","","","","","","","","","canvas-button-response","71","541538","0.0-71.0","1550","flower","","","","","","","","","","","","","","perceptual","","","1","0","","","","","54","flower","6","","1",""
"","","","","","","","","","","","canvas-button-response","72","543182","0.0-72.0","1643","3","","","","","","","","","","","","","","confidence","","","1","0","","","","","","","","","","1"
"","","","","","","","","","","","html-keyboard-response","73","544191","0.0-73.0","null","null","","","","","","","","","","","","","","feedback","Sat Oct 18 2025 20:33:15 GMT-0400 (Eastern Daylight Time)","27300","1","0","","","","","","","","","",""
"","","","","","","","","","","","preload","74","544192","0.0-74.0","","","","","true","","","","","","","","","","","preload","","","1","1","false","[]","[]","[]","","","","","",""
"","","","","","","","","","","","canvas-keyboard-response","75","544497","0.0-75.0","null","null","","","","","","","","","","","","","","fixation","","","1","1","","","","","","","","","",""
"","","","","","","","","","","","canvas-keyboard-response","76","544799","0.0-76.0","null","null","","","","","","","","","","","","","","stimulus","","","1","1","","","","","","","","","",""
"","","","","","","","","","","","canvas-button-response","77","547845","0.0-77.0","3044","house","","","","","","","","","","","","","","perceptual","","","1","1","","","","","87","elephant","10","","0",""
"","","","","","","","","","","","canvas-button-response","78","549000","0.0-78.0","1154","1","","","","","","","","","","","","","","confidence","","","1","1","","","","","","","","","","1"
"","","","","","","","","","","","html-keyboard-response","79","550001","0.0-79.0","null","null","","","","","","","","","","","","","","feedback","Sat Oct 18 2025 20:33:21 GMT-0400 (Eastern Daylight Time)","27300","1","1","","","","","","","","","",""
"","","","","","","","","","","","preload","80","550001","0.0-80.0","","","","","true","","","","","","","","","","","preload","","","1","2","false","[]","[]","[]","","","","","",""
"","","","","","","","","","","","canvas-keyboard-response","81","550306","0.0-81.0","null","null","","","","","","","","","","","","","","fixation","","","1","2","","","","","","","","","",""
"","","","","","","","","","","","canvas-keyboard-response","82","550616","0.0-82.0","null","null","","","","","","","","","","","","","","stimulus","","","1","2","","","","","","","","","",""
"","","","","","","","","","","","canvas-button-response","83","553156","0.0-83.0","2539","bridge","","","","","","","","","","","","","","perceptual","","","1","2","","","","","47","bridge","10","","1",""
"","","","","","","","","","","","canvas-button-response","84","554566","0.0-84.0","1408","1","","","","","","","","","","","","","","confidence","","","1","2","","","","","","","","","","2"
"","","","","","","","","","","","html-keyboard-response","85","555572","0.0-85.0","null","null","","","","","","","","","","","","","","feedback","Sat Oct 18 2025 20:33:26 GMT-0400 (Eastern Daylight Time)","27300","1","2","","","","","","","","","",""
"","","","","","","","","","","","preload","86","555573","0.0-86.0","","","","","true","","","","","","","","","","","preload","","","1","3","false","[]","[]","[]","","","","","",""
"","","","","","","","","","","","canvas-keyboard-response","87","555879","0.0-87.0","null","null","","","","","","","","","","","","","","fixation","","","1","3","","","","","","","","","",""
"","","","","","","","","","","","canvas-keyboard-response","88","556196","0.0-88.0","null","null","","","","","","","","","","","","","","stimulus","","","1","3","","","","","","","","","",""
"","","","","","","","","","","","canvas-button-response","89","562862","0.0-89.0","6664","flower","","","","","","","","","","","","","","perceptual","","","1","3","","","","","17","car","10","","0",""
"","","","","","","","","","","","canvas-button-response","90","563610","0.0-90.0","748","1","","","","","","","","","","","","","","confidence","","","1","3","","","","","","","","","","2"
"","","","","","","","","","","","html-keyboard-response","91","564618","0.0-91.0","null","null","","","","","","","","","","","","","","feedback","Sat Oct 18 2025 20:33:35 GMT-0400 (Eastern Daylight Time)","27300","1","3","","","","","","","","","",""
"","","","","","","","","","","","preload","92","564620","0.0-92.0","","","","","true","","","","","","","","","","","preload","","","1","4","false","[]","[]","[]","","","","","",""
"","","","","","","","","","","","canvas-keyboard-response","93","564929","0.0-93.0","null","null","","","","","","","","","","","","","","fixation","","","1","4","","","","","","","","","",""
"","","","","","","","","","","","canvas-keyboard-response","94","565235","0.0-94.0","null","null","","","","","","","","","","","","","","stimulus","","","1","4","","","","","","","","","",""
"","","","","","","","","","","","canvas-button-response","95","571608","0.0-95.0","6372","bed","","","","","","","","","","","","","","perceptual","","","1","4","","","","","77","cat","10","","0",""
"","","","","","","","","","","","canvas-button-response","96","572763","0.0-96.0","1155","1","","","","","","","","","","","","","","confidence","","","1","4","","","","","","","","","","2"
"","","","","","","","","","","","html-keyboard-response","97","573780","0.0-97.0","null","null","","","","","","","","","","","","","","feedback","Sat Oct 18 2025 20:33:45 GMT-0400 (Eastern Daylight Time)","27300","1","4","","","","","","","","","",""
"","","","","","","","","","","","preload","98","573781","0.0-98.0","","","","","true","","","","","","","","","","","preload","","","1","5","false","[]","[]","[]","","","","","",""
"","","","","","","","","","","","canvas-keyboard-response","99","574095","0.0-99.0","null","null","","","","","","","","","","","","","","fixation","","","1","5","","","","","","","","","",""
"","","","","","","","","","","","canvas-keyboard-response","100","574412","0.0-100.0","null","null","","","","","","","","","","","","","","stimulus","","","1","5","","","","","","","","","",""
"","","","","","","","","","","","canvas-button-response","101","575442","0.0-101.0","1029","train","","","","","","","","","","","","","","perceptual","","","1","5","","","","","64","train","6","","1",""
"","","","","","","","","","","","canvas-button-response","102","576630","0.0-102.0","1187","9","","","","","","","","","","","","","","confidence","","","1","5","","","","","","","","","","3"
"","","","","","","","","","","","html-keyboard-response","103","577647","0.0-103.0","null","null","","","","","","","","","","","","","","feedback","Sat Oct 18 2025 20:33:48 GMT-0400 (Eastern Daylight Time)","27300","1","5","","","","","","","","","",""
"","","","","","","","","","","","preload","104","577648","0.0-104.0","","","","","true","","","","","","","","","","","preload","","","1","6","false","[]","[]","[]","","","","","",""
"","","","","","","","","","","","canvas-keyboard-response","105","577960","0.0-105.0","null","null","","","","","","","","","","","","","","fixation","","","1","6","","","","","","","","","",""
"","","","","","","","","","","","canvas-keyboard-response","106","578275","0.0-106.0","null","null","","","","","","","","","","","","","","stimulus","","","1","6","","","","","","","","","",""
"","","","","","","","","","","","canvas-button-response","107","580179","0.0-107.0","1903","bed","","","","","","","","","","","","","","perceptual","","","1","6","","","","","14","car","6","","0",""
"","","","","","","","","","","","canvas-button-response","108","582147","0.0-108.0","1967","3","","","","","","","","","","","","","","confidence","","","1","6","","","","","","","","","","3"
"","","","","","","","","","","","html-keyboard-response","109","583153","0.0-109.0","null","null","","","","","","","","","","","","","","feedback","Sat Oct 18 2025 20:33:54 GMT-0400 (Eastern Daylight Time)","27300","1","6","","","","","","","","","",""
"","","","","","","","","","","","preload","110","583154","0.0-110.0","","","","","true","","","","","","","","","","","preload","","","1","7","false","[]","[]","[]","","","","","",""
"","","","","","","","","","","","canvas-keyboard-response","111","583458","0.0-111.0","null","null","","","","","","","","","","","","","","fixation","","","1","7","","","","","","","","","",""
"","","","","","","","","","","","canvas-keyboard-response","112","583763","0.0-112.0","null","null","","","","","","","","","","","","","","stimulus","","","1","7","","","","","","","","","",""
"","","","","","","","","","","","canvas-button-response","113","585203","0.0-113.0","1439","bed","","","","","","","","","","","","","","perceptual","","","1","7","","","","","44","bridge","6","","0",""
"","","","","","","","","","","","canvas-button-response","114","586904","0.0-114.0","1700","0","","","","","","","","","","","","","","confidence","","","1","7","","","","","","","","","","3"
"","","","","","","","","","","","html-keyboard-response","115","587915","0.0-115.0","null","null","","","","","","","","","","","","","","feedback","Sat Oct 18 2025 20:33:59 GMT-0400 (Eastern Daylight Time)","27300","1","7","","","","","","","","","",""
"","","","","","","","","","","","preload","116","587916","0.0-116.0","","","","","true","","","","","","","","","","","preload","","","1","8","false","[]","[]","[]","","","","","",""
"","","","","","","","","","","","canvas-keyboard-response","117","588227","0.0-117.0","null","null","","","","","","","","","","","","","","fixation","","","1","8","","","","","","","","","",""
"","","","","","","","","","","","canvas-keyboard-response","118","588544","0.0-118.0","null","null","","","","","","","","","","","","","","stimulus","","","1","8","","","","","","","","","",""
"","","","","","","","","","","","canvas-button-response","119","589934","0.0-119.0","1388","knife","","","","","","","","","","","","","","perceptual","","","1","8","","","","","97","knife","10","","1",""
"","","","","","","","","","","","canvas-button-response","120","590942","0.0-120.0","1007","6","","","","","","","","","","","","","","confidence","","","1","8","","","","","","","","","","4"
"","","","","","","","","","","","html-keyboard-response","121","591948","0.0-121.0","null","null","","","","","","","","","","","","","","feedback","Sat Oct 18 2025 20:34:03 GMT-0400 (Eastern Daylight Time)","27300","1","8","","","","","","","","","",""
"","","","","","","","","","","","preload","122","591949","0.0-122.0","","","","","true","","","","","","","","","","","preload","","","1","9","false","[]","[]","[]","","","","","",""
"","","","","","","","","","","","canvas-keyboard-response","123","592258","0.0-123.0","null","null","","","","","","","","","","","","","","fixation","","","1","9","","","","","","","","","",""
"","","","","","","","","","","","canvas-keyboard-response","124","592562","0.0-124.0","null","null","","","","","","","","","","","","","","stimulus","","","1","9","","","","","","","","","",""
"","","","","","","","","","","","canvas-button-response","125","593792","0.0-125.0","1229","house","","","","","","","","","","","","","","perceptual","","","1","9","","","","","7","house","10","","1",""
"","","","","","","","","","","","canvas-button-response","126","594540","0.0-126.0","747","8","","","","","","","","","","","","","","confidence","","","1","9","","","","","","","","","","5"
"","","","","","","","","","","","html-keyboard-response","127","595555","0.0-127.0","null","null","","","","","","","","","","","","","","feedback","Sat Oct 18 2025 20:34:06 GMT-0400 (Eastern Daylight Time)","27300","1","9","","","","","","","","","",""
"","","","","","","","","","","","preload","128","595556","0.0-128.0","","","","","true","","","","","","","","","","","preload","","","1","10","false","[]","[]","[]","","","","","",""
"","","","","","","","","","","","canvas-keyboard-response","129","595872","0.0-129.0","null","null","","","","","","","","","","","","","","fixation","","","1","10","","","","","","","","","",""
"","","","","","","","","","","","canvas-keyboard-response","130","596175","0.0-130.0","null","null","","","","","","","","","","","","","","stimulus","","","1","10","","","","","","","","","",""
"","","","","","","","","","","","canvas-button-response","131","598493","0.0-131.0","2316","knife","","","","","","","","","","","","","","perceptual","","","1","10","","","","","27","phone","10","","0",""
"","","","","","","","","","","","canvas-button-response","132","599493","0.0-132.0","999","3","","","","","","","","","","","","","","confidence","","","1","10","","","","","","","","","","5"
"","","","","","","","","","","","html-keyboard-response","133","600497","0.0-133.0","null","null","","","","","","","","","","","","","","feedback","Sat Oct 18 2025 20:34:11 GMT-0400 (Eastern Daylight Time)","27300","1","10","","","","","","","","","",""
"","","","","","","","","","","","preload","134","600498","0.0-134.0","","","","","true","","","","","","","","","","","preload","","","1","11","false","[]","[]","[]","","","","","",""
"","","","","","","","","","","","canvas-keyboard-response","135","600806","0.0-135.0","null","null","","","","","","","","","","","","","","fixation","","","1","11","","","","","","","","","",""
"","","","","","","","","","","","canvas-keyboard-response","136","601110","0.0-136.0","null","null","","","","","","","","","","","","","","stimulus","","","1","11","","","","","","","","","",""
"","","","","","","","","","","","canvas-button-response","137","603515","0.0-137.0","2403","cat","","","","","","","","","","","","","","perceptual","","","1","11","","","","","37","bed","10","","0",""
"","","","","","","","","","","","canvas-button-response","138","604821","0.0-138.0","1305","1","","","","","","","","","","","","","","confidence","","","1","11","","","","","","","","","","5"
"","","","","","","","","","","","html-keyboard-response","139","605832","0.0-139.0","null","null","","","","","","","","","","","","","","feedback","Sat Oct 18 2025 20:34:17 GMT-0400 (Eastern Daylight Time)","27300","1","11","","","","","","","","","",""
"","","","","","","","","","","","preload","140","605833","0.0-140.0","","","","","true","","","","","","","","","","","preload","","","1","12","false","[]","[]","[]","","","","","",""
"","","","","","","","","","","","canvas-keyboard-response","141","606135","0.0-141.0","null","null","","","","","","","","","","","","","","fixation","","","1","12","","","","","","","","","",""
"","","","","","","","","","","","canvas-keyboard-response","142","606439","0.0-142.0","null","null","","","","","","","","","","","","","","stimulus","","","1","12","","","","","","","","","",""
"","","","","","","","","","","","canvas-button-response","143","607333","0.0-143.0","892","house","","","","","","","","","","","","","","perceptual","","","1","12","","","","","4","house","6","","1",""
"","","","","","","","","","","","canvas-button-response","144","608354","0.0-144.0","1020","7","","","","","","","","","","","","","","confidence","","","1","12","","","","","","","","","","6"
"","","","","","","","","","","","html-keyboard-response","145","609357","0.0-145.0","null","null","","","","","","","","","","","","","","feedback","Sat Oct 18 2025 20:34:20 GMT-0400 (Eastern Daylight Time)","27300","1","12","","","","","","","","","",""
"","","","","","","","","","","","preload","146","609357","0.0-146.0","","","","","true","","","","","","","","","","","preload","","","1","13","false","[]","[]","[]","","","","","",""
"","","","","","","","","","","","canvas-keyboard-response","147","609671","0.0-147.0","null","null","","","","","","","","","","","","","","fixation","","","1","13","","","","","","","","","",""
"","","","","","","","","","","","canvas-keyboard-response","148","609973","0.0-148.0","null","null","","","","","","","","","","","","","","stimulus","","","1","13","","","","","","","","","",""
"","","","","","","","","","","","canvas-button-response","149","611290","0.0-149.0","1315","flower","","","","","","","","","","","","","","perceptual","","","1","13","","","","","57","flower","10","","1",""
"","","","","","","","","","","","canvas-button-response","150","612786","0.0-150.0","1495","3","","","","","","","","","","","","","","confidence","","","1","13","","","","","","","","","","7"
"","","","","","","","","","","","html-keyboard-response","151","613791","0.0-151.0","null","null","","","","","","","","","","","","","","feedback","Sat Oct 18 2025 20:34:25 GMT-0400 (Eastern Daylight Time)","27300","1","13","","","","","","","","","",""
"","","","","","","","","","","","preload","152","613792","0.0-152.0","","","","","true","","","","","","","","","","","preload","","","1","14","false","[]","[]","[]","","","","","",""
"","","","","","","","","","","","canvas-keyboard-response","153","614104","0.0-153.0","null","null","","","","","","","","","","","","","","fixation","","","1","14","","","","","","","","","",""
"","","","","","","","","","","","canvas-keyboard-response","154","614410","0.0-154.0","null","null","","","","","","","","","","","","","","stimulus","","","1","14","","","","","","","","","",""
"","","","","","","","","","","","canvas-button-response","155","615921","0.0-155.0","1509","phone","","","","","","","","","","","","","","perceptual","","","1","14","","","","","24","phone","6","","1",""
"","","","","","","","","","","","canvas-button-response","156","616779","0.0-156.0","857","5","","","","","","","","","","","","","","confidence","","","1","14","","","","","","","","","","8"
"","","","","","","","","","","","html-keyboard-response","157","617789","0.0-157.0","null","null","","","","","","","","","","","","","","feedback","Sat Oct 18 2025 20:34:29 GMT-0400 (Eastern Daylight Time)","27300","1","14","","","","","","","","","",""
"","","","","","","","","","","","preload","158","617790","0.0-158.0","","","","","true","","","","","","","","","","","preload","","","1","15","false","[]","[]","[]","","","","","",""
"","","","","","","","","","","","canvas-keyboard-response","159","618104","0.0-159.0","null","null","","","","","","","","","","","","","","fixation","","","1","15","","","","","","","","","",""
"","","","","","","","","","","","canvas-keyboard-response","160","618407","0.0-160.0","null","null","","","","","","","","","","","","","","stimulus","","","1","15","","","","","","","","","",""
"","","","","","","","","","","","canvas-button-response","161","623620","0.0-161.0","5211","train","","","","","","","","","","","","","","perceptual","","","1","15","","","","","94","knife","6","","0",""
"","","","","","","","","","","","canvas-button-response","162","625846","0.0-162.0","2225","1","","","","","","","","","","","","","","confidence","","","1","15","","","","","","","","","","8"
"","","","","","","","","","","","html-keyboard-response","163","626861","0.0-163.0","null","null","","","","","","","","","","","","","","feedback","Sat Oct 18 2025 20:34:38 GMT-0400 (Eastern Daylight Time)","27300","1","15","","","","","","","","","",""
"","","","","","","","","","","","preload","164","626862","0.0-164.0","","","","","true","","","","","","","","","","","preload","","","1","16","false","[]","[]","[]","","","","","",""
"","","","","","","","","","","","canvas-keyboard-response","165","627171","0.0-165.0","null","null","","","","","","","","","","","","","","fixation","","","1","16","","","","","","","","","",""
"","","","","","","","","","","","canvas-keyboard-response","166","627489","0.0-166.0","null","null","","","","","","","","","","","","","","stimulus","","","1","16","","","","","","","","","",""
"","","","","","","","","","","","canvas-button-response","167","629508","0.0-167.0","2017","elephant","","","","","","","","","","","","","","perceptual","","","1","16","","","","","84","elephant","6","","1",""
"","","","","","","","","","","","canvas-button-response","168","631089","0.0-168.0","1581","6","","","","","","","","","","","","","","confidence","","","1","16","","","","","","","","","","9"
"","","","","","","","","","","","html-keyboard-response","169","632101","0.0-169.0","null","null","","","","","","","","","","","","","","feedback","Sat Oct 18 2025 20:34:43 GMT-0400 (Eastern Daylight Time)","27300","1","16","","","","","","","","","",""
"","","","","","","","","","","","preload","170","632102","0.0-170.0","","","","","true","","","","","","","","","","","preload","","","1","17","false","[]","[]","[]","","","","","",""
"","","","","","","","","","","","canvas-keyboard-response","171","632418","0.0-171.0","null","null","","","","","","","","","","","","","","fixation","","","1","17","","","","","","","","","",""
"","","","","","","","","","","","canvas-keyboard-response","172","632727","0.0-172.0","null","null","","","","","","","","","","","","","","stimulus","","","1","17","","","","","","","","","",""
"","","","","","","","","","","","canvas-button-response","173","634080","0.0-173.0","1351","cat","","","","","","","","","","","","","","perceptual","","","1","17","","","","","74","cat","6","","1",""
"","","","","","","","","","","","canvas-button-response","174","634900","0.0-174.0","819","4","","","","","","","","","","","","","","confidence","","","1","17","","","","","","","","","","10"
"","","","","","","","","","","","html-keyboard-response","175","635910","0.0-175.0","null","null","","","","","","","","","","","","","","feedback","Sat Oct 18 2025 20:34:47 GMT-0400 (Eastern Daylight Time)","27300","1","17","","","","","","","","","",""
"","","","","","","","","","","","preload","176","635911","0.0-176.0","","","","","true","","","","","","","","","","","preload","","","1","18","false","[]","[]","[]","","","","","",""
"","","","","","","","","","","","canvas-keyboard-response","177","636214","0.0-177.0","null","null","","","","","","","","","","","","","","fixation","","","1","18","","","","","","","","","",""
"","","","","","","","","","","","canvas-keyboard-response","178","636522","0.0-178.0","null","null","","","","","","","","","","","","","","stimulus","","","1","18","","","","","","","","","",""
"","","","","","","","","","","","canvas-button-response","179","637978","0.0-179.0","1454","train","","","","","","","","","","","","","","perceptual","","","1","18","","","","","67","train","10","","1",""
"","","","","","","","","","","","canvas-button-response","180","638694","0.0-180.0","715","7","","","","","","","","","","","","","","confidence","","","1","18","","","","","","","","","","11"
"","","","","","","","","","","","html-keyboard-response","181","639706","0.0-181.0","null","null","","","","","","","","","","","","","","feedback","Sat Oct 18 2025 20:34:51 GMT-0400 (Eastern Daylight Time)","27300","1","18","","","","","","","","","",""
"","","","","","","","","","","","preload","182","639707","0.0-182.0","","","","","true","","","","","","","","","","","preload","","","1","19","false","[]","[]","[]","","","","","",""
"","","","","","","","","","","","canvas-keyboard-response","183","640015","0.0-183.0","null","null","","","","","","","","","","","","","","fixation","","","1","19","","","","","","","","","",""
"","","","","","","","","","","","canvas-keyboard-response","184","640319","0.0-184.0","null","null","","","","","","","","","","","","","","stimulus","","","1","19","","","","","","","","","",""
"","","","","","","","","","","","canvas-button-response","185","641756","0.0-185.0","1436","bed","","","","","","","","","","","","","","perceptual","","","1","19","","","","","34","bed","6","","1",""
"","","","","","","","","","","","canvas-button-response","186","642850","0.0-186.0","1093","4","","","","","","","","","","","","","","confidence","","","1","19","","","","","","","","","","12"
"","","","","","","","","","","","html-keyboard-response","187","643858","0.0-187.0","null","null","","","","","","","","","","","","","","feedback","Sat Oct 18 2025 20:34:55 GMT-0400 (Eastern Daylight Time)","27300","1","19","","","","","","","","","",""
"","","","","","","","","","","","html-button-response","188","653557","0.0-188.0","9697","0","","","","","","","","","","","","","","start experiment","Sat Oct 18 2025 20:34:56 GMT-0400 (Eastern Daylight Time)","27300","1","19","","","","","","","","","",""
"","","","","","","","","","","","preload","189","653557","0.0-189.0","","","","","true","","","","","","","","","","","preload","","","2","0","false","[]","[]","[]","","","","","",""
"","","","","","","","","","","","canvas-keyboard-response","190","653866","0.0-190.0","null","null","","","","","","","","","","","","","","fixation","","","2","0","","","","","","","","","",""
"","","","","","","","","","","","canvas-keyboard-response","191","654173","0.0-191.0","null","null","","","","","","","","","","","","","","stimulus","","","2","0","","","","","","","","","",""
"","","","","","","","","","","","canvas-button-response","192","655406","0.0-192.0","1232","house","","","","","","","","","","","","","","perceptual","","","2","0","","","","","308","cat","10","0","0",""
"","","","","","","","","","","","canvas-button-response","193","656509","0.0-193.0","1101","4","","","","","","","","","","","","","","confidence","","","2","0","","","","","","","","","","0"
"","","","","","","","","","","","preload","194","656509","0.0-194.0","","","","","true","","","","","","","","","","","preload","","","2","1","false","[]","[]","[]","","","","","",""
"","","","","","","","","","","","canvas-keyboard-response","195","656817","0.0-195.0","null","null","","","","","","","","","","","","","","fixation","","","2","1","","","","","","","","","",""
"","","","","","","","","","","","canvas-keyboard-response","196","657120","0.0-196.0","null","null","","","","","","","","","","","","","","stimulus","","","2","1","","","","","","","","","",""
"","","","","","","","","","","","canvas-button-response","197","659082","0.0-197.0","1960","bed","","","","","","","","","","","","","","perceptual","","","2","1","","","","","289","cat","6","0","0",""
"","","","","","","","","","","","canvas-button-response","198","659712","0.0-198.0","629","1","","","","","","","","","","","","","","confidence","","","2","1","","","","","","","","","","0"
"","","","","","","","","","","","preload","199","659713","0.0-199.0","","","","","true","","","","","","","","","","","preload","","","2","2","false","[]","[]","[]","","","","","",""
"","","","","","","","","","","","canvas-keyboard-response","200","660015","0.0-200.0","null","null","","","","","","","","","","","","","","fixation","","","2","2","","","","","","","","","",""
"","","","","","","","","","","","canvas-keyboard-response","201","660332","0.0-201.0","null","null","","","","","","","","","","","","","","stimulus","","","2","2","","","","","","","","","",""
"","","","","","","","","","","","canvas-button-response","202","664276","0.0-202.0","3942","flower","","","","","","","","","","","","","","perceptual","","","2","2","","","","","43","car","6","0","0",""
"","","","","","","","","","","","canvas-button-response","203","665222","0.0-203.0","944","2","","","","","","","","","","","","","","confidence","","","2","2","","","","","","","","","","0"
"","","","","","","","","","","","preload","204","665222","0.0-204.0","","","","","true","","","","","","","","","","","preload","","","2","3","false","[]","[]","[]","","","","","",""
"","","","","","","","","","","","canvas-keyboard-response","205","665523","0.0-205.0","null","null","","","","","","","","","","","","","","fixation","","","2","3","","","","","","","","","",""
"","","","","","","","","","","","canvas-keyboard-response","206","665834","0.0-206.0","null","null","","","","","","","","","","","","","","stimulus","","","2","3","","","","","","","","","",""
"","","","","","","","","","","","canvas-button-response","207","666686","0.0-207.0","851","bed","","","","","","","","","","","","","","perceptual","","","2","3","","","","","154","bed","10","0","1",""
"","","","","","","","","","","","canvas-button-response","208","667789","0.0-208.0","1101","8","","","","","","","","","","","","","","confidence","","","2","3","","","","","","","","","","1"
"","","","","","","","","","","","preload","209","667790","0.0-209.0","","","","","true","","","","","","","","","","","preload","","","2","4","false","[]","[]","[]","","","","","",""
"","","","","","","","","","","","canvas-keyboard-response","210","668094","0.0-210.0","null","null","","","","","","","","","","","","","","fixation","","","2","4","","","","","","","","","",""
"","","","","","","","","","","","canvas-keyboard-response","211","668398","0.0-211.0","null","null","","","","","","","","","","","","","","stimulus","","","2","4","","","","","","","","","",""
"","","","","","","","","","","","canvas-button-response","212","669433","0.0-212.0","1034","flower","","","","","","","","","","","","","","perceptual","","","2","4","","","","","234","flower","10","0","1",""
"","","","","","","","","","","","canvas-button-response","213","670031","0.0-213.0","596","6","","","","","","","","","","","","","","confidence","","","2","4","","","","","","","","","","2"
"","","","","","","","","","","","preload","214","670031","0.0-214.0","","","","","true","","","","","","","","","","","preload","","","2","5","false","[]","[]","[]","","","","","",""
"","","","","","","","","","","","canvas-keyboard-response","215","670337","0.0-215.0","null","null","","","","","","","","","","","","","","fixation","","","2","5","","","","","","","","","",""
"","","","","","","","","","","","canvas-keyboard-response","216","670650","0.0-216.0","null","null","","","","","","","","","","","","","","stimulus","","","2","5","","","","","","","","","",""
"","","","","","","","","","","","canvas-button-response","217","671612","0.0-217.0","959","car","","","","","","","","","","","","","","perceptual","","","2","5","","","","","74","car","10","0","1",""
"","","","","","","","","","","","canvas-button-response","218","672391","0.0-218.0","778","9","","","","","","","","","","","","","","confidence","","","2","5","","","","","","","","","","3"
"","","","","","","","","","","","preload","219","672391","0.0-219.0","","","","","true","","","","","","","","","","","preload","","","2","6","false","[]","[]","[]","","","","","",""
"","","","","","","","","","","","canvas-keyboard-response","220","672702","0.0-220.0","null","null","","","","","","","","","","","","","","fixation","","","2","6","","","","","","","","","",""
"","","","","","","","","","","","canvas-keyboard-response","221","673011","0.0-221.0","null","null","","","","","","","","","","","","","","stimulus","","","2","6","","","","","","","","","",""
"","","","","","","","","","","","canvas-button-response","222","673878","0.0-222.0","866","car","","","","","","","","","","","","","","perceptual","","","2","6","","","","","44","car","6","0","1",""
"","","","","","","","","","","","canvas-button-response","223","674549","0.0-223.0","669","9","","","","","","","","","","","","","","confidence","","","2","6","","","","","","","","","","4"
"","","","","","","","","","","","preload","224","674550","0.0-224.0","","","","","true","","","","","","","","","","","preload","","","2","7","false","[]","[]","[]","","","","","",""
"","","","","","","","","","","","canvas-keyboard-response","225","674854","0.0-225.0","null","null","","","","","","","","","","","","","","fixation","","","2","7","","","","","","","","","",""
"","","","","","","","","","","","canvas-keyboard-response","226","675164","0.0-226.0","null","null","","","","","","","","","","","","","","stimulus","","","2","7","","","","","","","","","",""
"","","","","","","","","","","","canvas-button-response","227","675916","0.0-227.0","751","flower","","","","","","","","","","","","","","perceptual","","","2","7","","","","","201","flower","6","0","1",""
"","","","","","","","","","","","canvas-button-response","228","676814","0.0-228.0","897","8","","","","","","","","","","","","","","confidence","","","2","7","","","","","","","","","","5"
"","","","","","","","","","","","preload","229","676815","0.0-229.0","","","","","true","","","","","","","","","","","preload","","","2","8","false","[]","[]","[]","","","","","",""
"","","","","","","","","","","","canvas-keyboard-response","230","677120","0.0-230.0","null","null","","","","","","","","","","","","","","fixation","","","2","8","","","","","","","","","",""
"","","","","","","","","","","","canvas-keyboard-response","231","677432","0.0-231.0","null","null","","","","","","","","","","","","","","stimulus","","","2","8","","","","","","","","","",""
"","","","","","","","","","","","canvas-button-response","232","679286","0.0-232.0","1852","bridge","","","","","","","","","","","","","","perceptual","","","2","8","","","","","275","train","10","0","0",""
"","","","","","","","","","","","canvas-button-response","233","680741","0.0-233.0","1453","1","","","","","","","","","","","","","","confidence","","","2","8","","","","","","","","","","5"
"","","","","","","","","","","","preload","234","680742","0.0-234.0","","","","","true","","","","","","","","","","","preload","","","2","9","false","[]","[]","[]","","","","","",""
"","","","","","","","","","","","canvas-keyboard-response","235","681048","0.0-235.0","null","null","","","","","","","","","","","","","","fixation","","","2","9","","","","","","","","","",""
"","","","","","","","","","","","canvas-keyboard-response","236","681354","0.0-236.0","null","null","","","","","","","","","","","","","","stimulus","","","2","9","","","","","","","","","",""
"","","","","","","","","","","","canvas-button-response","237","685646","0.0-237.0","4290","cat","","","","","","","","","","","","","","perceptual","","","2","9","","","","","80","phone","6","0","0",""
"","","","","","","","","","","","canvas-button-response","238","686682","0.0-238.0","1034","1","","","","","","","","","","","","","","confidence","","","2","9","","","","","","","","","","5"
"","","","","","","","","","","","preload","239","686682","0.0-239.0","","","","","true","","","","","","","","","","","preload","","","2","10","false","[]","[]","[]","","","","","",""
"","","","","","","","","","","","canvas-keyboard-response","240","686993","0.0-240.0","null","null","","","","","","","","","","","","","","fixation","","","2","10","","","","","","","","","",""
"","","","","","","","","","","","canvas-keyboard-response","241","687298","0.0-241.0","null","null","","","","","","","","","","","","","","stimulus","","","2","10","","","","","","","","","",""
"","","","","","","","","","","","canvas-button-response","242","689407","0.0-242.0","2106","house","","","","","","","","","","","","","","perceptual","","","2","10","","","","","274","train","10","0","0",""
"","","","","","","","","","","","canvas-button-response","243","690185","0.0-243.0","777","1","","","","","","","","","","","","","","confidence","","","2","10","","","","","","","","","","5"
"","","","","","","","","","","","preload","244","690186","0.0-244.0","","","","","true","","","","","","","","","","","preload","","","2","11","false","[]","[]","[]","","","","","",""
"","","","","","","","","","","","canvas-keyboard-response","245","690488","0.0-245.0","null","null","","","","","","","","","","","","","","fixation","","","2","11","","","","","","","","","",""
"","","","","","","","","","","","canvas-keyboard-response","246","690796","0.0-246.0","null","null","","","","","","","","","","","","","","stimulus","","","2","11","","","","","","","","","",""
"","","","","","","","","","","","canvas-button-response","247","691924","0.0-247.0","1125","car","","","","","","","","","","","","","","perceptual","","","2","11","","","","","78","car","10","0","1",""
"","","","","","","","","","","","canvas-button-response","248","693255","0.0-248.0","1329","8","","","","","","","","","","","","","","confidence","","","2","11","","","","","","","","","","6"
"","","","","","","","","","","","preload","249","693255","0.0-249.0","","","","","true","","","","","","","","","","","preload","","","2","12","false","[]","[]","[]","","","","","",""
"","","","","","","","","","","","canvas-keyboard-response","250","693569","0.0-250.0","null","null","","","","","","","","","","","","","","fixation","","","2","12","","","","","","","","","",""
"","","","","","","","","","","","canvas-keyboard-response","251","693878","0.0-251.0","null","null","","","","","","","","","","","","","","stimulus","","","2","12","","","","","","","","","",""
"","","","","","","","","","","","canvas-button-response","252","694804","0.0-252.0","924","car","","","","","","","","","","","","","","perceptual","","","2","12","","","","","52","car","6","0","1",""
"","","","","","","","","","","","canvas-button-response","253","696426","0.0-253.0","1621","8","","","","","","","","","","","","","","confidence","","","2","12","","","","","","","","","","7"
"","","","","","","","","","","","preload","254","696426","0.0-254.0","","","","","true","","","","","","","","","","","preload","","","2","13","false","[]","[]","[]","","","","","",""
"","","","","","","","","","","","canvas-keyboard-response","255","696740","0.0-255.0","null","null","","","","","","","","","","","","","","fixation","","","2","13","","","","","","","","","",""
"","","","","","","","","","","","canvas-keyboard-response","256","697047","0.0-256.0","null","null","","","","","","","","","","","","","","stimulus","","","2","13","","","","","","","","","",""
"","","","","","","","","","","","canvas-button-response","257","699535","0.0-257.0","2486","house","","","","","","","","","","","","","","perceptual","","","2","13","","","","","106","phone","10","0","0",""
"","","","","","","","","","","","canvas-button-response","258","700754","0.0-258.0","1217","4","","","","","","","","","","","","","","confidence","","","2","13","","","","","","","","","","7"
"","","","","","","","","","","","preload","259","700755","0.0-259.0","","","","","true","","","","","","","","","","","preload","","","2","14","false","[]","[]","[]","","","","","",""
"","","","","","","","","","","","canvas-keyboard-response","260","701061","0.0-260.0","null","null","","","","","","","","","","","","","","fixation","","","2","14","","","","","","","","","",""
"","","","","","","","","","","","canvas-keyboard-response","261","701373","0.0-261.0","null","null","","","","","","","","","","","","","","stimulus","","","2","14","","","","","","","","","",""
"","","","","","","","","","","","canvas-button-response","262","702376","0.0-262.0","1001","bed","","","","","","","","","","","","","","perceptual","","","2","14","","","","","133","bed","6","0","1",""
"","","","","","","","","","","","canvas-button-response","263","702998","0.0-263.0","621","6","","","","","","","","","","","","","","confidence","","","2","14","","","","","","","","","","8"
"","","","","","","","","","","","preload","264","702998","0.0-264.0","","","","","true","","","","","","","","","","","preload","","","2","15","false","[]","[]","[]","","","","","",""
"","","","","","","","","","","","canvas-keyboard-response","265","703313","0.0-265.0","null","null","","","","","","","","","","","","","","fixation","","","2","15","","","","","","","","","",""
"","","","","","","","","","","","canvas-keyboard-response","266","703628","0.0-266.0","null","null","","","","","","","","","","","","","","stimulus","","","2","15","","","","","","","","","",""
"","","","","","","","","","","","canvas-button-response","267","706044","0.0-267.0","2414","phone","","","","","","","","","","","","","","perceptual","","","2","15","","","","","377","knife","6","0","0",""
"","","","","","","","","","","","canvas-button-response","268","708042","0.0-268.0","1996","5","","","","","","","","","","","","","","confidence","","","2","15","","","","","","","","","","8"
"","","","","","","","","","","","preload","269","708042","0.0-269.0","","","","","true","","","","","","","","","","","preload","","","2","16","false","[]","[]","[]","","","","","",""
"","","","","","","","","","","","canvas-keyboard-response","270","708360","0.0-270.0","null","null","","","","","","","","","","","","","","fixation","","","2","16","","","","","","","","","",""
"","","","","","","","","","","","canvas-keyboard-response","271","708677","0.0-271.0","null","null","","","","","","","","","","","","","","stimulus","","","2","16","","","","","","","","","",""
"","","","","","","","","","","","canvas-button-response","272","709673","0.0-272.0","994","car","","","","","","","","","","","","","","perceptual","","","2","16","","","","","73","car","10","0","1",""
"","","","","","","","","","","","canvas-button-response","273","710498","0.0-273.0","825","5","","","","","","","","","","","","","","confidence","","","2","16","","","","","","","","","","9"
"","","","","","","","","","","","preload","274","710499","0.0-274.0","","","","","true","","","","","","","","","","","preload","","","2","17","false","[]","[]","[]","","","","","",""
"","","","","","","","","","","","canvas-keyboard-response","275","710808","0.0-275.0","null","null","","","","","","","","","","","","","","fixation","","","2","17","","","","","","","","","",""
"","","","","","","","","","","","canvas-keyboard-response","276","711111","0.0-276.0","null","null","","","","","","","","","","","","","","stimulus","","","2","17","","","","","","","","","",""
"","","","","","","","","","","","canvas-button-response","277","711986","0.0-277.0","873","bridge","","","","","","","","","","","","","","perceptual","","","2","17","","","","","178","bridge","6","0","1",""
"","","","","","","","","","","","canvas-button-response","278","712876","0.0-278.0","889","7","","","","","","","","","","","","","","confidence","","","2","17","","","","","","","","","","10"
"","","","","","","","","","","","preload","279","712876","0.0-279.0","","","","","true","","","","","","","","","","","preload","","","2","18","false","[]","[]","[]","","","","","",""
"","","","","","","","","","","","canvas-keyboard-response","280","713181","0.0-280.0","null","null","","","","","","","","","","","","","","fixation","","","2","18","","","","","","","","","",""
"","","","","","","","","","","","canvas-keyboard-response","281","713493","0.0-281.0","null","null","","","","","","","","","","","","","","stimulus","","","2","18","","","","","","","","","",""
"","","","","","","","","","","","canvas-button-response","282","714866","0.0-282.0","1372","bed","","","","","","","","","","","","","","perceptual","","","2","18","","","","","347","elephant","10","0","0",""
"","","","","","","","","","","","canvas-button-response","283","716207","0.0-283.0","1340","1","","","","","","","","","","","","","","confidence","","","2","18","","","","","","","","","","10"
"","","","","","","","","","","","preload","284","716208","0.0-284.0","","","","","true","","","","","","","","","","","preload","","","2","19","false","[]","[]","[]","","","","","",""
"","","","","","","","","","","","canvas-keyboard-response","285","716520","0.0-285.0","null","null","","","","","","","","","","","","","","fixation","","","2","19","","","","","","","","","",""
"","","","","","","","","","","","canvas-keyboard-response","286","716832","0.0-286.0","null","null","","","","","","","","","","","","","","stimulus","","","2","19","","","","","","","","","",""
"","","","","","","","","","","","canvas-button-response","287","717842","0.0-287.0","1009","car","","","","","","","","","","","","","","perceptual","","","2","19","","","","","62","car","10","0","1",""
"","","","","","","","","","","","canvas-button-response","288","719486","0.0-288.0","1642","7","","","","","","","","","","","","","","confidence","","","2","19","","","","","","","","","","11"
"","","","","","","","","","","","preload","289","719487","0.0-289.0","","","","","true","","","","","","","","","","","preload","","","2","20","false","[]","[]","[]","","","","","",""
"","","","","","","","","","","","canvas-keyboard-response","290","719791","0.0-290.0","null","null","","","","","","","","","","","","","","fixation","","","2","20","","","","","","","","","",""
"","","","","","","","","","","","canvas-keyboard-response","291","720108","0.0-291.0","null","null","","","","","","","","","","","","","","stimulus","","","2","20","","","","","","","","","",""
"","","","","","","","","","","","canvas-button-response","292","722367","0.0-292.0","2257","phone","","","","","","","","","","","","","","perceptual","","","2","20","","","","","127","bed","6","0","0",""
"","","","","","","","","","","","canvas-button-response","293","723486","0.0-293.0","1117","3","","","","","","","","","","","","","","confidence","","","2","20","","","","","","","","","","11"
"","","","","","","","","","","","preload","294","723486","0.0-294.0","","","","","true","","","","","","","","","","","preload","","","2","21","false","[]","[]","[]","","","","","",""
"","","","","","","","","","","","canvas-keyboard-response","295","723788","0.0-295.0","null","null","","","","","","","","","","","","","","fixation","","","2","21","","","","","","","","","",""
"","","","","","","","","","","","canvas-keyboard-response","296","724092","0.0-296.0","null","null","","","","","","","","","","","","","","stimulus","","","2","21","","","","","","","","","",""
"","","","","","","","","","","","canvas-button-response","297","726200","0.0-297.0","2107","bridge","","","","","","","","","","","","","","perceptual","","","2","21","","","","","164","bridge","6","0","1",""
"","","","","","","","","","","","canvas-button-response","298","727224","0.0-298.0","1023","5","","","","","","","","","","","","","","confidence","","","2","21","","","","","","","","","","12"
"","","","","","","","","","","","preload","299","727224","0.0-299.0","","","","","true","","","","","","","","","","","preload","","","2","22","false","[]","[]","[]","","","","","",""
"","","","","","","","","","","","canvas-keyboard-response","300","727538","0.0-300.0","null","null","","","","","","","","","","","","","","fixation","","","2","22","","","","","","","","","",""
"","","","","","","","","","","","canvas-keyboard-response","301","727841","0.0-301.0","null","null","","","","","","","","","","","","","","stimulus","","","2","22","","","","","","","","","",""
"","","","","","","","","","","","canvas-button-response","302","729806","0.0-302.0","1964","house","","","","","","","","","","","","","","perceptual","","","2","22","","","","","29","house","10","0","1",""
"","","","","","","","","","","","canvas-button-response","303","731450","0.0-303.0","1643","4","","","","","","","","","","","","","","confidence","","","2","22","","","","","","","","","","13"
"","","","","","","","","","","","preload","304","731450","0.0-304.0","","","","","true","","","","","","","","","","","preload","","","2","23","false","[]","[]","[]","","","","","",""
"","","","","","","","","","","","canvas-keyboard-response","305","731756","0.0-305.0","null","null","","","","","","","","","","","","","","fixation","","","2","23","","","","","","","","","",""
"","","","","","","","","","","","canvas-keyboard-response","306","732071","0.0-306.0","null","null","","","","","","","","","","","","","","stimulus","","","2","23","","","","","","","","","",""
"","","","","","","","","","","","canvas-button-response","307","733016","0.0-307.0","943","elephant","","","","","","","","","","","","","","perceptual","","","2","23","","","","","351","elephant","10","0","1",""
"","","","","","","","","","","","canvas-button-response","308","733645","0.0-308.0","629","8","","","","","","","","","","","","","","confidence","","","2","23","","","","","","","","","","14"
"","","","","","","","","","","","preload","309","733646","0.0-309.0","","","","","true","","","","","","","","","","","preload","","","2","24","false","[]","[]","[]","","","","","",""
"","","","","","","","","","","","canvas-keyboard-response","310","733952","0.0-310.0","null","null","","","","","","","","","","","","","","fixation","","","2","24","","","","","","","","","",""
"","","","","","","","","","","","canvas-keyboard-response","311","734256","0.0-311.0","null","null","","","","","","","","","","","","","","stimulus","","","2","24","","","","","","","","","",""
"","","","","","","","","","","","canvas-button-response","312","735022","0.0-312.0","765","train","","","","","","","","","","","","","","perceptual","","","2","24","","","","","252","train","6","0","1",""
"","","","","","","","","","","","canvas-button-response","313","735826","0.0-313.0","803","8","","","","","","","","","","","","","","confidence","","","2","24","","","","","","","","","","15"
"","","","","","","","","","","","preload","314","735826","0.0-314.0","","","","","true","","","","","","","","","","","preload","","","2","25","false","[]","[]","[]","","","","","",""
"","","","","","","","","","","","canvas-keyboard-response","315","736128","0.0-315.0","null","null","","","","","","","","","","","","","","fixation","","","2","25","","","","","","","","","",""
"","","","","","","","","","","","canvas-keyboard-response","316","736439","0.0-316.0","null","null","","","","","","","","","","","","","","stimulus","","","2","25","","","","","","","","","",""
"","","","","","","","","","","","canvas-button-response","317","737807","0.0-317.0","1367","bridge","","","","","","","","","","","","","","perceptual","","","2","25","","","","","130","bed","6","0","0",""
"","","","","","","","","","","","canvas-button-response","318","739084","0.0-318.0","1275","5","","","","","","","","","","","","","","confidence","","","2","25","","","","","","","","","","15"
"","","","","","","","","","","","preload","319","739085","0.0-319.0","","","","","true","","","","","","","","","","","preload","","","2","26","false","[]","[]","[]","","","","","",""
"","","","","","","","","","","","canvas-keyboard-response","320","739386","0.0-320.0","null","null","","","","","","","","","","","","","","fixation","","","2","26","","","","","","","","","",""
"","","","","","","","","","","","canvas-keyboard-response","321","739703","0.0-321.0","null","null","","","","","","","","","","","","","","stimulus","","","2","26","","","","","","","","","",""
"","","","","","","","","","","","canvas-button-response","322","741570","0.0-322.0","1866","knife","","","","","","","","","","","","","","perceptual","","","2","26","","","","","107","phone","10","0","0",""
"","","","","","","","","","","","canvas-button-response","323","743131","0.0-323.0","1559","4","","","","","","","","","","","","","","confidence","","","2","26","","","","","","","","","","15"
"","","","","","","","","","","","preload","324","743131","0.0-324.0","","","","","true","","","","","","","","","","","preload","","","2","27","false","[]","[]","[]","","","","","",""
"","","","","","","","","","","","canvas-keyboard-response","325","743440","0.0-325.0","null","null","","","","","","","","","","","","","","fixation","","","2","27","","","","","","","","","",""
"","","","","","","","","","","","canvas-keyboard-response","326","743756","0.0-326.0","null","null","","","","","","","","","","","","","","stimulus","","","2","27","","","","","","","","","",""
"","","","","","","","","","","","canvas-button-response","327","744634","0.0-327.0","875","train","","","","","","","","","","","","","","perceptual","","","2","27","","","","","241","train","6","0","1",""
"","","","","","","","","","","","canvas-button-response","328","745254","0.0-328.0","619","7","","","","","","","","","","","","","","confidence","","","2","27","","","","","","","","","","16"
"","","","","","","","","","","","preload","329","745255","0.0-329.0","","","","","true","","","","","","","","","","","preload","","","2","28","false","[]","[]","[]","","","","","",""
"","","","","","","","","","","","canvas-keyboard-response","330","745565","0.0-330.0","null","null","","","","","","","","","","","","","","fixation","","","2","28","","","","","","","","","",""
"","","","","","","","","","","","canvas-keyboard-response","331","745868","0.0-331.0","null","null","","","","","","","","","","","","","","stimulus","","","2","28","","","","","","","","","",""
"","","","","","","","","","","","canvas-button-response","332","747356","0.0-332.0","1486","house","","","","","","","","","","","","","","perceptual","","","2","28","","","","","260","train","10","0","0",""
"","","","","","","","","","","","canvas-button-response","333","749252","0.0-333.0","1895","2","","","","","","","","","","","","","","confidence","","","2","28","","","","","","","","","","16"
"","","","","","","","","","","","preload","334","749252","0.0-334.0","","","","","true","","","","","","","","","","","preload","","","2","29","false","[]","[]","[]","","","","","",""
"","","","","","","","","","","","canvas-keyboard-response","335","749567","0.0-335.0","null","null","","","","","","","","","","","","","","fixation","","","2","29","","","","","","","","","",""
"","","","","","","","","","","","canvas-keyboard-response","336","749870","0.0-336.0","null","null","","","","","","","","","","","","","","stimulus","","","2","29","","","","","","","","","",""
"","","","","","","","","","","","canvas-button-response","337","750860","0.0-337.0","987","elephant","","","","","","","","","","","","","","perceptual","","","2","29","","","","","340","elephant","10","0","1",""
"","","","","","","","","","","","canvas-button-response","338","751513","0.0-338.0","652","4","","","","","","","","","","","","","","confidence","","","2","29","","","","","","","","","","17"
"","","","","","","","","","","","preload","339","751513","0.0-339.0","","","","","true","","","","","","","","","","","preload","","","2","30","false","[]","[]","[]","","","","","",""
"","","","","","","","","","","","canvas-keyboard-response","340","751819","0.0-340.0","null","null","","","","","","","","","","","","","","fixation","","","2","30","","","","","","","","","",""
"","","","","","","","","","","","canvas-keyboard-response","341","752121","0.0-341.0","null","null","","","","","","","","","","","","","","stimulus","","","2","30","","","","","","","","","",""
"","","","","","","","","","","","canvas-button-response","342","753574","0.0-342.0","1451","bed","","","","","","","","","","","","","","perceptual","","","2","30","","","","","151","bed","10","0","1",""
"","","","","","","","","","","","canvas-button-response","343","755595","0.0-343.0","2021","2","","","","","","","","","","","","","","confidence","","","2","30","","","","","","","","","","18"
"","","","","","","","","","","","preload","344","755596","0.0-344.0","","","","","true","","","","","","","","","","","preload","","","2","31","false","[]","[]","[]","","","","","",""
"","","","","","","","","","","","canvas-keyboard-response","345","755896","0.0-345.0","null","null","","","","","","","","","","","","","","fixation","","","2","31","","","","","","","","","",""
"","","","","","","","","","","","canvas-keyboard-response","346","756206","0.0-346.0","null","null","","","","","","","","","","","","","","stimulus","","","2","31","","","","","","","","","",""
"","","","","","","","","","","","canvas-button-response","347","757698","0.0-347.0","1490","elephant","","","","","","","","","","","","","","perceptual","","","2","31","","","","","323","elephant","6","0","1",""
"","","","","","","","","","","","canvas-button-response","348","758816","0.0-348.0","1117","3","","","","","","","","","","","","","","confidence","","","2","31","","","","","","","","","","19"
"","","","","","","","","","","","preload","349","758817","0.0-349.0","","","","","true","","","","","","","","","","","preload","","","2","32","false","[]","[]","[]","","","","","",""
"","","","","","","","","","","","canvas-keyboard-response","350","759132","0.0-350.0","null","null","","","","","","","","","","","","","","fixation","","","2","32","","","","","","","","","",""
"","","","","","","","","","","","canvas-keyboard-response","351","759436","0.0-351.0","null","null","","","","","","","","","","","","","","stimulus","","","2","32","","","","","","","","","",""
"","","","","","","","","","","","canvas-button-response","352","761870","0.0-352.0","2432","house","","","","","","","","","","","","","","perceptual","","","2","32","","","","","114","phone","10","0","0",""
"","","","","","","","","","","","canvas-button-response","353","762641","0.0-353.0","770","3","","","","","","","","","","","","","","confidence","","","2","32","","","","","","","","","","19"
"","","","","","","","","","","","preload","354","762641","0.0-354.0","","","","","true","","","","","","","","","","","preload","","","2","33","false","[]","[]","[]","","","","","",""
"","","","","","","","","","","","canvas-keyboard-response","355","762950","0.0-355.0","null","null","","","","","","","","","","","","","","fixation","","","2","33","","","","","","","","","",""
"","","","","","","","","","","","canvas-keyboard-response","356","763266","0.0-356.0","null","null","","","","","","","","","","","","","","stimulus","","","2","33","","","","","","","","","",""
"","","","","","","","","","","","canvas-button-response","357","764837","0.0-357.0","1569","bed","","","","","","","","","","","","","","perceptual","","","2","33","","","","","300","cat","10","0","0",""
"","","","","","","","","","","","canvas-button-response","358","766552","0.0-358.0","1715","1","","","","","","","","","","","","","","confidence","","","2","33","","","","","","","","","","19"
"","","","","","","","","","","","preload","359","766553","0.0-359.0","","","","","true","","","","","","","","","","","preload","","","2","34","false","[]","[]","[]","","","","","",""
"","","","","","","","","","","","canvas-keyboard-response","360","766872","0.0-360.0","null","null","","","","","","","","","","","","","","fixation","","","2","34","","","","","","","","","",""
"","","","","","","","","","","","canvas-keyboard-response","361","767185","0.0-361.0","null","null","","","","","","","","","","","","","","stimulus","","","2","34","","","","","","","","","",""
"","","","","","","","","","","","canvas-button-response","362","768568","0.0-362.0","1381","house","","","","","","","","","","","","","","perceptual","","","2","34","","","","","20","house","10","0","1",""
"","","","","","","","","","","","canvas-button-response","363","769882","0.0-363.0","1313","3","","","","","","","","","","","","","","confidence","","","2","34","","","","","","","","","","20"
"","","","","","","","","","","","preload","364","769883","0.0-364.0","","","","","true","","","","","","","","","","","preload","","","2","35","false","[]","[]","[]","","","","","",""
"","","","","","","","","","","","canvas-keyboard-response","365","770185","0.0-365.0","null","null","","","","","","","","","","","","","","fixation","","","2","35","","","","","","","","","",""
"","","","","","","","","","","","canvas-keyboard-response","366","770500","0.0-366.0","null","null","","","","","","","","","","","","","","stimulus","","","2","35","","","","","","","","","",""
"","","","","","","","","","","","canvas-button-response","367","775267","0.0-367.0","4764","elephant","","","","","","","","","","","","","","perceptual","","","2","35","","","","","325","elephant","6","0","1",""
"","","","","","","","","","","","canvas-button-response","368","776155","0.0-368.0","887","1","","","","","","","","","","","","","","confidence","","","2","35","","","","","","","","","","21"
"","","","","","","","","","","","preload","369","776155","0.0-369.0","","","","","true","","","","","","","","","","","preload","","","2","36","false","[]","[]","[]","","","","","",""
"","","","","","","","","","","","canvas-keyboard-response","370","776456","0.0-370.0","null","null","","","","","","","","","","","","","","fixation","","","2","36","","","","","","","","","",""
"","","","","","","","","","","","canvas-keyboard-response","371","776775","0.0-371.0","null","null","","","","","","","","","","","","","","stimulus","","","2","36","","","","","","","","","",""
"","","","","","","","","","","","canvas-button-response","372","778688","0.0-372.0","1911","house","","","","","","","","","","","","","","perceptual","","","2","36","","","","","4","house","6","0","1",""
"","","","","","","","","","","","canvas-button-response","373","779618","0.0-373.0","929","4","","","","","","","","","","","","","","confidence","","","2","36","","","","","","","","","","22"
"","","","","","","","","","","","preload","374","779618","0.0-374.0","","","","","true","","","","","","","","","","","preload","","","2","37","false","[]","[]","[]","","","","","",""
"","","","","","","","","","","","canvas-keyboard-response","375","779936","0.0-375.0","null","null","","","","","","","","","","","","","","fixation","","","2","37","","","","","","","","","",""
"","","","","","","","","","","","canvas-keyboard-response","376","780250","0.0-376.0","null","null","","","","","","","","","","","","","","stimulus","","","2","37","","","","","","","","","",""
"","","","","","","","","","","","canvas-button-response","377","781404","0.0-377.0","1152","car","","","","","","","","","","","","","","perceptual","","","2","37","","","","","68","car","10","0","1",""
"","","","","","","","","","","","canvas-button-response","378","782099","0.0-378.0","692","7","","","","","","","","","","","","","","confidence","","","2","37","","","","","","","","","","23"
"","","","","","","","","","","","preload","379","782100","0.0-379.0","","","","","true","","","","","","","","","","","preload","","","2","38","false","[]","[]","[]","","","","","",""
"","","","","","","","","","","","canvas-keyboard-response","380","782405","0.0-380.0","null","null","","","","","","","","","","","","","","fixation","","","2","38","","","","","","","","","",""
"","","","","","","","","","","","canvas-keyboard-response","381","782716","0.0-381.0","null","null","","","","","","","","","","","","","","stimulus","","","2","38","","","","","","","","","",""
"","","","","","","","","","","","canvas-button-response","382","783662","0.0-382.0","943","elephant","","","","","","","","","","","","","","perceptual","","","2","38","","","","","330","elephant","6","0","1",""
"","","","","","","","","","","","canvas-button-response","383","784882","0.0-383.0","1218","6","","","","","","","","","","","","","","confidence","","","2","38","","","","","","","","","","24"
"","","","","","","","","","","","preload","384","784882","0.0-384.0","","","","","true","","","","","","","","","","","preload","","","2","39","false","[]","[]","[]","","","","","",""
"","","","","","","","","","","","canvas-keyboard-response","385","785186","0.0-385.0","null","null","","","","","","","","","","","","","","fixation","","","2","39","","","","","","","","","",""
"","","","","","","","","","","","canvas-keyboard-response","386","785501","0.0-386.0","null","null","","","","","","","","","","","","","","stimulus","","","2","39","","","","","","","","","",""
"","","","","","","","","","","","canvas-button-response","387","786811","0.0-387.0","1308","knife","","","","","","","","","","","","","","perceptual","","","2","39","","","","","373","knife","6","0","1",""
"","","","","","","","","","","","canvas-button-response","388","787557","0.0-388.0","745","5","","","","","","","","","","","","","","confidence","","","2","39","","","","","","","","","","25"
"","","","","","","","","","","","preload","389","787557","0.0-389.0","","","","","true","","","","","","","","","","","preload","","","2","40","false","[]","[]","[]","","","","","",""
"","","","","","","","","","","","canvas-keyboard-response","390","787862","0.0-390.0","null","null","","","","","","","","","","","","","","fixation","","","2","40","","","","","","","","","",""
"","","","","","","","","","","","canvas-keyboard-response","391","788163","0.0-391.0","null","null","","","","","","","","","","","","","","stimulus","","","2","40","","","","","","","","","",""
"","","","","","","","","","","","canvas-button-response","392","790272","0.0-392.0","2107","knife","","","","","","","","","","","","","","perceptual","","","2","40","","","","","111","phone","10","0","0",""
"","","","","","","","","","","","canvas-button-response","393","791186","0.0-393.0","913","1","","","","","","","","","","","","","","confidence","","","2","40","","","","","","","","","","25"
"","","","","","","","","","","","preload","394","791187","0.0-394.0","","","","","true","","","","","","","","","","","preload","","","2","41","false","[]","[]","[]","","","","","",""
"","","","","","","","","","","","canvas-keyboard-response","395","791488","0.0-395.0","null","null","","","","","","","","","","","","","","fixation","","","2","41","","","","","","","","","",""
"","","","","","","","","","","","canvas-keyboard-response","396","791803","0.0-396.0","null","null","","","","","","","","","","","","","","stimulus","","","2","41","","","","","","","","","",""
"","","","","","","","","","","","canvas-button-response","397","794577","0.0-397.0","2773","bridge","","","","","","","","","","","","","","perceptual","","","2","41","","","","","180","bridge","10","0","1",""
"","","","","","","","","","","","canvas-button-response","398","795632","0.0-398.0","1053","2","","","","","","","","","","","","","","confidence","","","2","41","","","","","","","","","","26"
"","","","","","","","","","","","preload","399","795632","0.0-399.0","","","","","true","","","","","","","","","","","preload","","","2","42","false","[]","[]","[]","","","","","",""
"","","","","","","","","","","","canvas-keyboard-response","400","795936","0.0-400.0","null","null","","","","","","","","","","","","","","fixation","","","2","42","","","","","","","","","",""
"","","","","","","","","","","","canvas-keyboard-response","401","796244","0.0-401.0","null","null","","","","","","","","","","","","","","stimulus","","","2","42","","","","","","","","","",""
"","","","","","","","","","","","canvas-button-response","402","796961","0.0-402.0","716","cat","","","","","","","","","","","","","","perceptual","","","2","42","","","","","42","car","6","0","0",""
"","","","","","","","","","","","canvas-button-response","403","798589","0.0-403.0","1627","0","","","","","","","","","","","","","","confidence","","","2","42","","","","","","","","","","26"
"","","","","","","","","","","","preload","404","798590","0.0-404.0","","","","","true","","","","","","","","","","","preload","","","2","43","false","[]","[]","[]","","","","","",""
"","","","","","","","","","","","canvas-keyboard-response","405","798892","0.0-405.0","null","null","","","","","","","","","","","","","","fixation","","","2","43","","","","","","","","","",""
"","","","","","","","","","","","canvas-keyboard-response","406","799195","0.0-406.0","null","null","","","","","","","","","","","","","","stimulus","","","2","43","","","","","","","","","",""
"","","","","","","","","","","","canvas-button-response","407","800386","0.0-407.0","1190","car","","","","","","","","","","","","","","perceptual","","","2","43","","","","","50","car","6","0","1",""
"","","","","","","","","","","","canvas-button-response","408","806083","0.0-408.0","5696","7","","","","","","","","","","","","","","confidence","","","2","43","","","","","","","","","","27"
"","","","","","","","","","","","preload","409","806084","0.0-409.0","","","","","true","","","","","","","","","","","preload","","","2","44","false","[]","[]","[]","","","","","",""
"","","","","","","","","","","","canvas-keyboard-response","410","806386","0.0-410.0","null","null","","","","","","","","","","","","","","fixation","","","2","44","","","","","","","","","",""
"","","","","","","","","","","","canvas-keyboard-response","411","806695","0.0-411.0","null","null","","","","","","","","","","","","","","stimulus","","","2","44","","","","","","","","","",""
"","","","","","","","","","","","canvas-button-response","412","808106","0.0-412.0","1410","house","","","","","","","","","","","","","","perceptual","","","2","44","","","","","173","bridge","6","0","0",""
"","","","","","","","","","","","canvas-button-response","413","809074","0.0-413.0","967","3","","","","","","","","","","","","","","confidence","","","2","44","","","","","","","","","","27"
"","","","","","","","","","","","preload","414","809075","0.0-414.0","","","","","true","","","","","","","","","","","preload","","","2","45","false","[]","[]","[]","","","","","",""
"","","","","","","","","","","","canvas-keyboard-response","415","809377","0.0-415.0","null","null","","","","","","","","","","","","","","fixation","","","2","45","","","","","","","","","",""
"","","","","","","","","","","","canvas-keyboard-response","416","809692","0.0-416.0","null","null","","","","","","","","","","","","","","stimulus","","","2","45","","","","","","","","","",""
"","","","","","","","","","","","canvas-button-response","417","811694","0.0-417.0","2001","elephant","","","","","","","","","","","","","","perceptual","","","2","45","","","","","231","flower","10","0","0",""
"","","","","","","","","","","","canvas-button-response","418","813048","0.0-418.0","1353","1","","","","","","","","","","","","","","confidence","","","2","45","","","","","","","","","","27"
"","","","","","","","","","","","preload","419","813049","0.0-419.0","","","","","true","","","","","","","","","","","preload","","","2","46","false","[]","[]","[]","","","","","",""
"","","","","","","","","","","","canvas-keyboard-response","420","813350","0.0-420.0","null","null","","","","","","","","","","","","","","fixation","","","2","46","","","","","","","","","",""
"","","","","","","","","","","","canvas-keyboard-response","421","813660","0.0-421.0","null","null","","","","","","","","","","","","","","stimulus","","","2","46","","","","","","","","","",""
"","","","","","","","","","","","canvas-button-response","422","814944","0.0-422.0","1282","cat","","","","","","","","","","","","","","perceptual","","","2","46","","","","","284","cat","6","0","1",""
"","","","","","","","","","","","canvas-button-response","423","816346","0.0-423.0","1401","7","","","","","","","","","","","","","","confidence","","","2","46","","","","","","","","","","28"
"","","","","","","","","","","","preload","424","816346","0.0-424.0","","","","","true","","","","","","","","","","","preload","","","2","47","false","[]","[]","[]","","","","","",""
"","","","","","","","","","","","canvas-keyboard-response","425","816652","0.0-425.0","null","null","","","","","","","","","","","","","","fixation","","","2","47","","","","","","","","","",""
"","","","","","","","","","","","canvas-keyboard-response","426","816958","0.0-426.0","null","null","","","","","","","","","","","","","","stimulus","","","2","47","","","","","","","","","",""
"","","","","","","","","","","","canvas-button-response","427","819966","0.0-427.0","3007","house","","","","","","","","","","","","","","perceptual","","","2","47","","","","","13","house","6","0","1",""
"","","","","","","","","","","","canvas-button-response","428","820832","0.0-428.0","865","1","","","","","","","","","","","","","","confidence","","","2","47","","","","","","","","","","29"
"","","","","","","","","","","","preload","429","820833","0.0-429.0","","","","","true","","","","","","","","","","","preload","","","2","48","false","[]","[]","[]","","","","","",""
"","","","","","","","","","","","canvas-keyboard-response","430","821135","0.0-430.0","null","null","","","","","","","","","","","","","","fixation","","","2","48","","","","","","","","","",""
"","","","","","","","","","","","canvas-keyboard-response","431","821444","0.0-431.0","null","null","","","","","","","","","","","","","","stimulus","","","2","48","","","","","","","","","",""
"","","","","","","","","","","","canvas-button-response","432","822649","0.0-432.0","1204","car","","","","","","","","","","","","","","perceptual","","","2","48","","","","","70","car","10","0","1",""
"","","","","","","","","","","","canvas-button-response","433","823554","0.0-433.0","903","7","","","","","","","","","","","","","","confidence","","","2","48","","","","","","","","","","30"
"","","","","","","","","","","","preload","434","823554","0.0-434.0","","","","","true","","","","","","","","","","","preload","","","2","49","false","[]","[]","[]","","","","","",""
"","","","","","","","","","","","canvas-keyboard-response","435","823855","0.0-435.0","null","null","","","","","","","","","","","","","","fixation","","","2","49","","","","","","","","","",""
"","","","","","","","","","","","canvas-keyboard-response","436","824163","0.0-436.0","null","null","","","","","","","","","","","","","","stimulus","","","2","49","","","","","","","","","",""
"","","","","","","","","","","","canvas-button-response","437","826775","0.0-437.0","2610","knife","","","","","","","","","","","","","","perceptual","","","2","49","","","","","28","house","10","0","0",""
"","","","","","","","","","","","canvas-button-response","438","829378","0.0-438.0","2602","1","","","","","","","","","","","","","","confidence","","","2","49","","","","","","","","","","30"
"","","","","","","","","","","","html-button-response","439","834486","0.0-439.0","5107","0","","","","","","","","","","","","","","<p style=""font-size:20px;color:#000000"">You got 30 out of 50 trials correct in this block.<br><br>You have completed 6% of the experiment.<br><br>Take a short break.<br><br>When you are ready, click Continue to proceed.","","","2","49","","","","","","","","","",""
"","","","","","","","","","","","html-keyboard-response","440","835500","0.0-440.0","null","null","","","","","","","","","","","","","","<p style=""font-size:32px;color:#000000""><br><br> RUN: &nbsp 1/4 <br><br> BLOCK: 2/4 ","","","2","49","","","","","","","","","",""
"","","","","","","","","","","","preload","441","835501","0.0-441.0","","","","","true","","","","","","","","","","","preload","","","2","50","false","[]","[]","[]","","","","","",""
"","","","","","","","","","","","canvas-keyboard-response","442","835814","0.0-442.0","null","null","","","","","","","","","","","","","","fixation","","","2","50","","","","","","","","","",""
"","","","","","","","","","","","canvas-keyboard-response","443","836126","0.0-443.0","null","null","","","","","","","","","","","","","","stimulus","","","2","50","","","","","","","","","",""
"","","","","","","","","","","","canvas-button-response","444","838320","0.0-444.0","2192","bridge","","","","","","","","","","","","","","perceptual","","","2","50","","","","","167","bridge","6","0","1",""
"","","","","","","","","","","","canvas-button-response","445","839477","0.0-445.0","1155","2","","","","","","","","","","","","","","confidence","","","2","50","","","","","","","","","","1"
"","","","","","","","","","","","preload","446","839477","0.0-446.0","","","","","true","","","","","","","","","","","preload","","","2","51","false","[]","[]","[]","","","","","",""
"","","","","","","","","","","","canvas-keyboard-response","447","839793","0.0-447.0","null","null","","","","","","","","","","","","","","fixation","","","2","51","","","","","","","","","",""
"","","","","","","","","","","","canvas-keyboard-response","448","840108","0.0-448.0","null","null","","","","","","","","","","","","","","stimulus","","","2","51","","","","","","","","","",""
"","","","","","","","","","","","canvas-button-response","449","842098","0.0-449.0","1988","flower","","","","","","","","","","","","","","perceptual","","","2","51","","","","","225","flower","10","0","1",""
"","","","","","","","","","","","canvas-button-response","450","843294","0.0-450.0","1194","3","","","","","","","","","","","","","","confidence","","","2","51","","","","","","","","","","2"
"","","","","","","","","","","","preload","451","843294","0.0-451.0","","","","","true","","","","","","","","","","","preload","","","2","52","false","[]","[]","[]","","","","","",""
"","","","","","","","","","","","canvas-keyboard-response","452","843604","0.0-452.0","null","null","","","","","","","","","","","","","","fixation","","","2","52","","","","","","","","","",""
"","","","","","","","","","","","canvas-keyboard-response","453","843922","0.0-453.0","null","null","","","","","","","","","","","","","","stimulus","","","2","52","","","","","","","","","",""
"","","","","","","","","","","","canvas-button-response","454","845090","0.0-454.0","1166","train","","","","","","","","","","","","","","perceptual","","","2","52","","","","","247","train","6","0","1",""
"","","","","","","","","","","","canvas-button-response","455","846319","0.0-455.0","1227","7","","","","","","","","","","","","","","confidence","","","2","52","","","","","","","","","","3"
"","","","","","","","","","","","preload","456","846319","0.0-456.0","","","","","true","","","","","","","","","","","preload","","","2","53","false","[]","[]","[]","","","","","",""
"","","","","","","","","","","","canvas-keyboard-response","457","846623","0.0-457.0","null","null","","","","","","","","","","","","","","fixation","","","2","53","","","","","","","","","",""
"","","","","","","","","","","","canvas-keyboard-response","458","846940","0.0-458.0","null","null","","","","","","","","","","","","","","stimulus","","","2","53","","","","","","","","","",""
"","","","","","","","","","","","canvas-button-response","459","848584","0.0-459.0","1642","bed","","","","","","","","","","","","","","perceptual","","","2","53","","","","","311","cat","10","0","0",""
"","","","","","","","","","","","canvas-button-response","460","849868","0.0-460.0","1283","1","","","","","","","","","","","","","","confidence","","","2","53","","","","","","","","","","3"
"","","","","","","","","","","","preload","461","849869","0.0-461.0","","","","","true","","","","","","","","","","","preload","","","2","54","false","[]","[]","[]","","","","","",""
"","","","","","","","","","","","canvas-keyboard-response","462","850178","0.0-462.0","null","null","","","","","","","","","","","","","","fixation","","","2","54","","","","","","","","","",""
"","","","","","","","","","","","canvas-keyboard-response","463","850490","0.0-463.0","null","null","","","","","","","","","","","","","","stimulus","","","2","54","","","","","","","","","",""
"","","","","","","","","","","","canvas-button-response","464","851837","0.0-464.0","1344","house","","","","","","","","","","","","","","perceptual","","","2","54","","","","","320","elephant","6","0","0",""
"","","","","","","","","","","","canvas-button-response","465","852544","0.0-465.0","706","1","","","","","","","","","","","","","","confidence","","","2","54","","","","","","","","","","3"
"","","","","","","","","","","","preload","466","852544","0.0-466.0","","","","","true","","","","","","","","","","","preload","","","2","55","false","[]","[]","[]","","","","","",""
"","","","","","","","","","","","canvas-keyboard-response","467","852845","0.0-467.0","null","null","","","","","","","","","","","","","","fixation","","","2","55","","","","","","","","","",""
"","","","","","","","","","","","canvas-keyboard-response","468","853158","0.0-468.0","null","null","","","","","","","","","","","","","","stimulus","","","2","55","","","","","","","","","",""
"","","","","","","","","","","","canvas-button-response","469","854348","0.0-469.0","1189","train","","","","","","","","","","","","","","perceptual","","","2","55","","","","","87","phone","6","0","0",""
"","","","","","","","","","","","canvas-button-response","470","855110","0.0-470.0","761","4","","","","","","","","","","","","","","confidence","","","2","55","","","","","","","","","","3"
"","","","","","","","","","","","preload","471","855111","0.0-471.0","","","","","true","","","","","","","","","","","preload","","","2","56","false","[]","[]","[]","","","","","",""
"","","","","","","","","","","","canvas-keyboard-response","472","855419","0.0-472.0","null","null","","","","","","","","","","","","","","fixation","","","2","56","","","","","","","","","",""
"","","","","","","","","","","","canvas-keyboard-response","473","855725","0.0-473.0","null","null","","","","","","","","","","","","","","stimulus","","","2","56","","","","","","","","","",""
"","","","","","","","","","","","canvas-button-response","474","858274","0.0-474.0","2548","cat","","","","","","","","","","","","","","perceptual","","","2","56","","","","","146","bed","10","0","0",""
"","","","","","","","","","","","canvas-button-response","475","859284","0.0-475.0","1008","1","","","","","","","","","","","","","","confidence","","","2","56","","","","","","","","","","3"
"","","","","","","","","","","","preload","476","859285","0.0-476.0","","","","","true","","","","","","","","","","","preload","","","2","57","false","[]","[]","[]","","","","","",""
"","","","","","","","","","","","canvas-keyboard-response","477","859586","0.0-477.0","null","null","","","","","","","","","","","","","","fixation","","","2","57","","","","","","","","","",""
"","","","","","","","","","","","canvas-keyboard-response","478","859895","0.0-478.0","null","null","","","","","","","","","","","","","","stimulus","","","2","57","","","","","","","","","",""
"","","","","","","","","","","","canvas-button-response","479","862219","0.0-479.0","2322","knife","","","","","","","","","","","","","","perceptual","","","2","57","","","","","71","car","10","0","0",""
"","","","","","","","","","","","canvas-button-response","480","863194","0.0-480.0","974","1","","","","","","","","","","","","","","confidence","","","2","57","","","","","","","","","","3"
"","","","","","","","","","","","preload","481","863194","0.0-481.0","","","","","true","","","","","","","","","","","preload","","","2","58","false","[]","[]","[]","","","","","",""
"","","","","","","","","","","","canvas-keyboard-response","482","863509","0.0-482.0","null","null","","","","","","","","","","","","","","fixation","","","2","58","","","","","","","","","",""
"","","","","","","","","","","","canvas-keyboard-response","483","863821","0.0-483.0","null","null","","","","","","","","","","","","","","stimulus","","","2","58","","","","","","","","","",""
"","","","","","","","","","","","canvas-button-response","484","866712","0.0-484.0","2890","house","","","","","","","","","","","","","","perceptual","","","2","58","","","","","334","elephant","6","0","0",""
"","","","","","","","","","","","canvas-button-response","485","867517","0.0-485.0","803","1","","","","","","","","","","","","","","confidence","","","2","58","","","","","","","","","","3"
"","","","","","","","","","","","preload","486","867517","0.0-486.0","","","","","true","","","","","","","","","","","preload","","","2","59","false","[]","[]","[]","","","","","",""
"","","","","","","","","","","","canvas-keyboard-response","487","867821","0.0-487.0","null","null","","","","","","","","","","","","","","fixation","","","2","59","","","","","","","","","",""
"","","","","","","","","","","","canvas-keyboard-response","488","868135","0.0-488.0","null","null","","","","","","","","","","","","","","stimulus","","","2","59","","","","","","","","","",""
"","","","","","","","","","","","canvas-button-response","489","869351","0.0-489.0","1213","car","","","","","","","","","","","","","","perceptual","","","2","59","","","","","37","house","10","0","0",""
"","","","","","","","","","","","canvas-button-response","490","870570","0.0-490.0","1219","2","","","","","","","","","","","","","","confidence","","","2","59","","","","","","","","","","3"
"","","","","","","","","","","","preload","491","870571","0.0-491.0","","","","","true","","","","","","","","","","","preload","","","2","60","false","[]","[]","[]","","","","","",""
