"width","height","webaudio","browser","browser_version","mobile","os","fullscreen","vsync_rate","webcam","microphone","trial_type","trial_index","time_elapsed","internal_node_id","rt","response","accuracy","view_history","success","item_width_mm","item_height_mm","item_width_px","px2mm","view_dist_mm","item_width_deg","px2deg","scale_factor","win_width_deg","win_height_deg","stimulus","datetime","subjectID","curr_triallist","trial_no","timeout","failed_images","failed_audio","failed_video","image_index","category","blur","reps","correct","running_score"
"1280","712","true","chrome","141.0.0","false","Windows 10","true","59.96","true","true","browser-check","0","1011","0.0-0.0","","","","","","","","","","","","","","","","","","","","","","","","","","","","","",""
"","","","","","","","","","","","survey","1","47998","0.0-1.0","46910","{""P0_Q0"":""904074515"",""P0_Q1"":""18"",""P1_Q0"":""Female"",""P1_Q1"":""Not Hispanic or Latino"",""P1_Q2"":""White"",""P1_Q3"":""Normal"",""P1_Q4"":""Right-Handed""}","[]","","","","","","","","","","","","","","","","","","","","","","","","","","",""
"","","","","","","","","","","","instructions","2","81168","0.0-2.0","33168","","","[{""page_index"":0,""viewing_time"":1843},{""page_index"":1,""viewing_time"":8609},{""page_index"":2,""viewing_time"":20130},{""page_index"":3,""viewing_time"":2586}]","","","","","","","","","","","","","","","","","","","","","","","","","",""
"","","","","","","","","","","","fullscreen","3","83601","0.0-3.0","1424","","","","true","","","","","","","","","","","","","","","","","","","","","","","","",""
"","","","","","","","","","","","virtual-chinrest","4","152373","0.0-4.0","68770","","","","","85.6","53.98","272.5733801419477","3.1837772225946512","538.67","9.085779338064924","30","1.3317514711486533","42.666666666666664","26.666666666666668","","","","","","","","","","","","","","",""
"","","","","","","","","","","","instructions","5","203515","0.0-5.0","51141","","","[{""page_index"":0,""viewing_time"":3767},{""page_index"":1,""viewing_time"":7793},{""page_index"":2,""viewing_time"":5289},{""page_index"":3,""viewing_time"":9078},{""page_index"":4,""viewing_time"":3763},{""page_index"":5,""viewing_time"":18770},{""page_index"":6,""viewing_time"":2681}]","","","","","","","","","","","","","","","","","","","","","","","","","",""
"","","","","","","","","","","","html-button-response","6","208067","0.0-6.0","4548","0","","","","","","","","","","","","","","start_practice","Sun Oct 12 2025 11:23:23 GMT-0400 (Eastern Daylight Time)","27130","","","","","","","","","","","",""
"","","","","","","","","","","","preload","7","208069","0.0-7.0","","","","","true","","","","","","","","","","","preload","","","0","0","false","[]","[]","[]","","","","","",""
"","","","","","","","","","","","canvas-keyboard-response","8","208393","0.0-8.0","null","null","","","","","","","","","","","","","","fixation","","","0","0","","","","","","","","","",""
"","","","","","","","","","","","canvas-keyboard-response","9","208697","0.0-9.0","null","null","","","","","","","","","","","","","","stimulus","","","0","0","","","","","","","","","",""
"","","","","","","","","","","","canvas-button-response","10","213158","0.0-10.0","4457","house","","","","","","","","","","","","","","perceptual","","","0","0","","","","","52","flower","1","","0",""
"","","","","","","","","","","","canvas-button-response","11","215289","0.0-11.0","2124","9","","","","","","","","","","","","","","confidence","","","0","0","","","","","","","","","","0"
"","","","","","","","","","","","html-keyboard-response","12","216292","0.0-12.0","null","null","","","","","","","","","","","","","","feedback","Sun Oct 12 2025 11:23:35 GMT-0400 (Eastern Daylight Time)","27130","0","0","","","","","","","","","",""
"","","","","","","","","","","","preload","13","216293","0.0-13.0","","","","","true","","","","","","","","","","","preload","","","0","1","false","[]","[]","[]","","","","","",""
"","","","","","","","","","","","canvas-keyboard-response","14","216595","0.0-14.0","null","null","","","","","","","","","","","","","","fixation","","","0","1","","","","","","","","","",""
"","","","","","","","","","","","canvas-keyboard-response","15","216898","0.0-15.0","null","null","","","","","","","","","","","","","","stimulus","","","0","1","","","","","","","","","",""
"","","","","","","","","","","","canvas-button-response","16","231322","0.0-16.0","14421","house","","","","","","","","","","","","","","perceptual","","","0","1","","","","","82","elephant","1","","0",""
"","","","","","","","","","","","canvas-button-response","17","232848","0.0-17.0","1523","2","","","","","","","","","","","","","","confidence","","","0","1","","","","","","","","","","0"
"","","","","","","","","","","","html-keyboard-response","18","233855","0.0-18.0","null","null","","","","","","","","","","","","","","feedback","Sun Oct 12 2025 11:23:52 GMT-0400 (Eastern Daylight Time)","27130","0","1","","","","","","","","","",""
"","","","","","","","","","","","preload","19","233856","0.0-19.0","","","","","true","","","","","","","","","","","preload","","","0","2","false","[]","[]","[]","","","","","",""
"","","","","","","","","","","","canvas-keyboard-response","20","234159","0.0-20.0","null","null","","","","","","","","","","","","","","fixation","","","0","2","","","","","","","","","",""
"","","","","","","","","","","","canvas-keyboard-response","21","234465","0.0-21.0","null","null","","","","","","","","","","","","","","stimulus","","","0","2","","","","","","","","","",""
"","","","","","","","","","","","canvas-button-response","22","235624","0.0-22.0","1157","car","","","","","","","","","","","","","","perceptual","","","0","2","","","","","12","car","1","","1",""
"","","","","","","","","","","","canvas-button-response","23","236486","0.0-23.0","858","10","","","","","","","","","","","","","","confidence","","","0","2","","","","","","","","","","1"
"","","","","","","","","","","","html-keyboard-response","24","237496","0.0-24.0","null","null","","","","","","","","","","","","","","feedback","Sun Oct 12 2025 11:23:56 GMT-0400 (Eastern Daylight Time)","27130","0","2","","","","","","","","","",""
"","","","","","","","","","","","preload","25","237497","0.0-25.0","","","","","true","","","","","","","","","","","preload","","","0","3","false","[]","[]","[]","","","","","",""
"","","","","","","","","","","","canvas-keyboard-response","26","237800","0.0-26.0","null","null","","","","","","","","","","","","","","fixation","","","0","3","","","","","","","","","",""
"","","","","","","","","","","","canvas-keyboard-response","27","238107","0.0-27.0","null","null","","","","","","","","","","","","","","stimulus","","","0","3","","","","","","","","","",""
"","","","","","","","","","","","canvas-button-response","28","239116","0.0-28.0","1007","cat","","","","","","","","","","","","","","perceptual","","","0","3","","","","","72","cat","1","","1",""
"","","","","","","","","","","","canvas-button-response","29","239968","0.0-29.0","849","10","","","","","","","","","","","","","","confidence","","","0","3","","","","","","","","","","2"
"","","","","","","","","","","","html-keyboard-response","30","240971","0.0-30.0","null","null","","","","","","","","","","","","","","feedback","Sun Oct 12 2025 11:24:00 GMT-0400 (Eastern Daylight Time)","27130","0","3","","","","","","","","","",""
"","","","","","","","","","","","preload","31","240973","0.0-31.0","","","","","true","","","","","","","","","","","preload","","","0","4","false","[]","[]","[]","","","","","",""
"","","","","","","","","","","","canvas-keyboard-response","32","241279","0.0-32.0","null","null","","","","","","","","","","","","","","fixation","","","0","4","","","","","","","","","",""
"","","","","","","","","","","","canvas-keyboard-response","33","241582","0.0-33.0","null","null","","","","","","","","","","","","","","stimulus","","","0","4","","","","","","","","","",""
"","","","","","","","","","","","canvas-button-response","34","243038","0.0-34.0","1451","train","","","","","","","","","","","","","","perceptual","","","0","4","","","","","62","train","1","","1",""
"","","","","","","","","","","","canvas-button-response","35","243956","0.0-35.0","915","10","","","","","","","","","","","","","","confidence","","","0","4","","","","","","","","","","3"
"","","","","","","","","","","","html-keyboard-response","36","244958","0.0-36.0","null","null","","","","","","","","","","","","","","feedback","Sun Oct 12 2025 11:24:04 GMT-0400 (Eastern Daylight Time)","27130","0","4","","","","","","","","","",""
"","","","","","","","","","","","preload","37","244959","0.0-37.0","","","","","true","","","","","","","","","","","preload","","","0","5","false","[]","[]","[]","","","","","",""
"","","","","","","","","","","","canvas-keyboard-response","38","245267","0.0-38.0","null","null","","","","","","","","","","","","","","fixation","","","0","5","","","","","","","","","",""
"","","","","","","","","","","","canvas-keyboard-response","39","245579","0.0-39.0","null","null","","","","","","","","","","","","","","stimulus","","","0","5","","","","","","","","","",""
"","","","","","","","","","","","canvas-button-response","40","251680","0.0-40.0","6098","knife","","","","","","","","","","","","","","perceptual","","","0","5","","","","","92","knife","1","","1",""
"","","","","","","","","","","","canvas-button-response","41","253058","0.0-41.0","1376","10","","","","","","","","","","","","","","confidence","","","0","5","","","","","","","","","","4"
"","","","","","","","","","","","html-keyboard-response","42","254075","0.0-42.0","null","null","","","","","","","","","","","","","","feedback","Sun Oct 12 2025 11:24:13 GMT-0400 (Eastern Daylight Time)","27130","0","5","","","","","","","","","",""
"","","","","","","","","","","","preload","43","254075","0.0-43.0","","","","","true","","","","","","","","","","","preload","","","0","6","false","[]","[]","[]","","","","","",""
"","","","","","","","","","","","canvas-keyboard-response","44","254383","0.0-44.0","null","null","","","","","","","","","","","","","","fixation","","","0","6","","","","","","","","","",""
"","","","","","","","","","","","canvas-keyboard-response","45","254701","0.0-45.0","null","null","","","","","","","","","","","","","","stimulus","","","0","6","","","","","","","","","",""
"","","","","","","","","","","","canvas-button-response","46","255868","0.0-46.0","1162","phone","","","","","","","","","","","","","","perceptual","","","0","6","","","","","22","phone","1","","1",""
"","","","","","","","","","","","canvas-button-response","47","256656","0.0-47.0","784","10","","","","","","","","","","","","","","confidence","","","0","6","","","","","","","","","","5"
"","","","","","","","","","","","html-keyboard-response","48","257670","0.0-48.0","null","null","","","","","","","","","","","","","","feedback","Sun Oct 12 2025 11:24:16 GMT-0400 (Eastern Daylight Time)","27130","0","6","","","","","","","","","",""
"","","","","","","","","","","","preload","49","257671","0.0-49.0","","","","","true","","","","","","","","","","","preload","","","0","7","false","[]","[]","[]","","","","","",""
"","","","","","","","","","","","canvas-keyboard-response","50","257983","0.0-50.0","null","null","","","","","","","","","","","","","","fixation","","","0","7","","","","","","","","","",""
"","","","","","","","","","","","canvas-keyboard-response","51","258295","0.0-51.0","null","null","","","","","","","","","","","","","","stimulus","","","0","7","","","","","","","","","",""
"","","","","","","","","","","","canvas-button-response","52","259659","0.0-52.0","1361","bed","","","","","","","","","","","","","","perceptual","","","0","7","","","","","32","bed","1","","1",""
"","","","","","","","","","","","canvas-button-response","53","260572","0.0-53.0","910","10","","","","","","","","","","","","","","confidence","","","0","7","","","","","","","","","","6"
"","","","","","","","","","","","html-keyboard-response","54","261575","0.0-54.0","null","null","","","","","","","","","","","","","","feedback","Sun Oct 12 2025 11:24:20 GMT-0400 (Eastern Daylight Time)","27130","0","7","","","","","","","","","",""
"","","","","","","","","","","","preload","55","261576","0.0-55.0","","","","","true","","","","","","","","","","","preload","","","0","8","false","[]","[]","[]","","","","","",""
"","","","","","","","","","","","canvas-keyboard-response","56","261882","0.0-56.0","null","null","","","","","","","","","","","","","","fixation","","","0","8","","","","","","","","","",""
"","","","","","","","","","","","canvas-keyboard-response","57","262194","0.0-57.0","null","null","","","","","","","","","","","","","","stimulus","","","0","8","","","","","","","","","",""
"","","","","","","","","","","","canvas-button-response","58","263584","0.0-58.0","1387","bridge","","","","","","","","","","","","","","perceptual","","","0","8","","","","","42","bridge","1","","1",""
"","","","","","","","","","","","canvas-button-response","59","264558","0.0-59.0","968","10","","","","","","","","","","","","","","confidence","","","0","8","","","","","","","","","","7"
"","","","","","","","","","","","html-keyboard-response","60","265564","0.0-60.0","null","null","","","","","","","","","","","","","","feedback","Sun Oct 12 2025 11:24:24 GMT-0400 (Eastern Daylight Time)","27130","0","8","","","","","","","","","",""
"","","","","","","","","","","","preload","61","265565","0.0-61.0","","","","","true","","","","","","","","","","","preload","","","0","9","false","[]","[]","[]","","","","","",""
"","","","","","","","","","","","canvas-keyboard-response","62","265881","0.0-62.0","null","null","","","","","","","","","","","","","","fixation","","","0","9","","","","","","","","","",""
"","","","","","","","","","","","canvas-keyboard-response","63","266190","0.0-63.0","null","null","","","","","","","","","","","","","","stimulus","","","0","9","","","","","","","","","",""
"","","","","","","","","","","","canvas-button-response","64","272268","0.0-64.0","6075","house","","","","","","","","","","","","","","perceptual","","","0","9","","","","","2","house","1","","1",""
"","","","","","","","","","","","canvas-button-response","65","273226","0.0-65.0","952","10","","","","","","","","","","","","","","confidence","","","0","9","","","","","","","","","","8"
"","","","","","","","","","","","html-keyboard-response","66","274239","0.0-66.0","null","null","","","","","","","","","","","","","","feedback","Sun Oct 12 2025 11:24:33 GMT-0400 (Eastern Daylight Time)","27130","0","9","","","","","","","","","",""
"","","","","","","","","","","","html-button-response","67","276491","0.0-67.0","2226","0","","","","","","","","","","","","","","start_practice","Sun Oct 12 2025 11:24:34 GMT-0400 (Eastern Daylight Time)","27130","0","9","","","","","","","","","",""
"","","","","","","","","","","","preload","68","276492","0.0-68.0","","","","","true","","","","","","","","","","","preload","","","1","0","false","[]","[]","[]","","","","","",""
"","","","","","","","","","","","canvas-keyboard-response","69","276807","0.0-69.0","null","null","","","","","","","","","","","","","","fixation","","","1","0","","","","","","","","","",""
"","","","","","","","","","","","canvas-keyboard-response","70","277123","0.0-70.0","null","null","","","","","","","","","","","","","","stimulus","","","1","0","","","","","","","","","",""
"","","","","","","","","","","","canvas-button-response","71","279500","0.0-71.0","2373","train","","","","","","","","","","","","","","perceptual","","","1","0","","","","","67","train","10","","1",""
"","","","","","","","","","","","canvas-button-response","72","280373","0.0-72.0","866","10","","","","","","","","","","","","","","confidence","","","1","0","","","","","","","","","","1"
"","","","","","","","","","","","html-keyboard-response","73","281380","0.0-73.0","null","null","","","","","","","","","","","","","","feedback","Sun Oct 12 2025 11:24:40 GMT-0400 (Eastern Daylight Time)","27130","1","0","","","","","","","","","",""
"","","","","","","","","","","","preload","74","281381","0.0-74.0","","","","","true","","","","","","","","","","","preload","","","1","1","false","[]","[]","[]","","","","","",""
"","","","","","","","","","","","canvas-keyboard-response","75","281698","0.0-75.0","null","null","","","","","","","","","","","","","","fixation","","","1","1","","","","","","","","","",""
"","","","","","","","","","","","canvas-keyboard-response","76","282009","0.0-76.0","null","null","","","","","","","","","","","","","","stimulus","","","1","1","","","","","","","","","",""
"","","","","","","","","","","","canvas-button-response","77","283773","0.0-77.0","1762","flower","","","","","","","","","","","","","","perceptual","","","1","1","","","","","57","flower","10","","1",""
"","","","","","","","","","","","canvas-button-response","78","284874","0.0-78.0","1098","7","","","","","","","","","","","","","","confidence","","","1","1","","","","","","","","","","2"
"","","","","","","","","","","","html-keyboard-response","79","285887","0.0-79.0","null","null","","","","","","","","","","","","","","feedback","Sun Oct 12 2025 11:24:44 GMT-0400 (Eastern Daylight Time)","27130","1","1","","","","","","","","","",""
"","","","","","","","","","","","preload","80","285888","0.0-80.0","","","","","true","","","","","","","","","","","preload","","","1","2","false","[]","[]","[]","","","","","",""
"","","","","","","","","","","","canvas-keyboard-response","81","286199","0.0-81.0","null","null","","","","","","","","","","","","","","fixation","","","1","2","","","","","","","","","",""
"","","","","","","","","","","","canvas-keyboard-response","82","286509","0.0-82.0","null","null","","","","","","","","","","","","","","stimulus","","","1","2","","","","","","","","","",""
"","","","","","","","","","","","canvas-button-response","83","287533","0.0-83.0","1021","cat","","","","","","","","","","","","","","perceptual","","","1","2","","","","","74","cat","6","","1",""
"","","","","","","","","","","","canvas-button-response","84","288893","0.0-84.0","1357","10","","","","","","","","","","","","","","confidence","","","1","2","","","","","","","","","","3"
"","","","","","","","","","","","html-keyboard-response","85","289911","0.0-85.0","null","null","","","","","","","","","","","","","","feedback","Sun Oct 12 2025 11:24:48 GMT-0400 (Eastern Daylight Time)","27130","1","2","","","","","","","","","",""
"","","","","","","","","","","","preload","86","289911","0.0-86.0","","","","","true","","","","","","","","","","","preload","","","1","3","false","[]","[]","[]","","","","","",""
"","","","","","","","","","","","canvas-keyboard-response","87","290216","0.0-87.0","null","null","","","","","","","","","","","","","","fixation","","","1","3","","","","","","","","","",""
"","","","","","","","","","","","canvas-keyboard-response","88","290525","0.0-88.0","null","null","","","","","","","","","","","","","","stimulus","","","1","3","","","","","","","","","",""
"","","","","","","","","","","","canvas-button-response","89","291672","0.0-89.0","1144","knife","","","","","","","","","","","","","","perceptual","","","1","3","","","","","97","knife","10","","1",""
"","","","","","","","","","","","canvas-button-response","90","292619","0.0-90.0","943","10","","","","","","","","","","","","","","confidence","","","1","3","","","","","","","","","","4"
"","","","","","","","","","","","html-keyboard-response","91","293621","0.0-91.0","null","null","","","","","","","","","","","","","","feedback","Sun Oct 12 2025 11:24:52 GMT-0400 (Eastern Daylight Time)","27130","1","3","","","","","","","","","",""
"","","","","","","","","","","","preload","92","293622","0.0-92.0","","","","","true","","","","","","","","","","","preload","","","1","4","false","[]","[]","[]","","","","","",""
"","","","","","","","","","","","canvas-keyboard-response","93","293933","0.0-93.0","null","null","","","","","","","","","","","","","","fixation","","","1","4","","","","","","","","","",""
"","","","","","","","","","","","canvas-keyboard-response","94","294249","0.0-94.0","null","null","","","","","","","","","","","","","","stimulus","","","1","4","","","","","","","","","",""
"","","","","","","","","","","","canvas-button-response","95","297306","0.0-95.0","3054","phone","","","","","","","","","","","","","","perceptual","","","1","4","","","","","27","phone","10","","1",""
"","","","","","","","","","","","canvas-button-response","96","298262","0.0-96.0","953","5","","","","","","","","","","","","","","confidence","","","1","4","","","","","","","","","","5"
"","","","","","","","","","","","html-keyboard-response","97","299270","0.0-97.0","null","null","","","","","","","","","","","","","","feedback","Sun Oct 12 2025 11:24:58 GMT-0400 (Eastern Daylight Time)","27130","1","4","","","","","","","","","",""
"","","","","","","","","","","","preload","98","299271","0.0-98.0","","","","","true","","","","","","","","","","","preload","","","1","5","false","[]","[]","[]","","","","","",""
"","","","","","","","","","","","canvas-keyboard-response","99","299576","0.0-99.0","null","null","","","","","","","","","","","","","","fixation","","","1","5","","","","","","","","","",""
"","","","","","","","","","","","canvas-keyboard-response","100","299883","0.0-100.0","null","null","","","","","","","","","","","","","","stimulus","","","1","5","","","","","","","","","",""
"","","","","","","","","","","","canvas-button-response","101","301231","0.0-101.0","1346","house","","","","","","","","","","","","","","perceptual","","","1","5","","","","","4","house","6","","1",""
"","","","","","","","","","","","canvas-button-response","102","302194","0.0-102.0","959","10","","","","","","","","","","","","","","confidence","","","1","5","","","","","","","","","","6"
"","","","","","","","","","","","html-keyboard-response","103","303204","0.0-103.0","null","null","","","","","","","","","","","","","","feedback","Sun Oct 12 2025 11:25:02 GMT-0400 (Eastern Daylight Time)","27130","1","5","","","","","","","","","",""
"","","","","","","","","","","","preload","104","303205","0.0-104.0","","","","","true","","","","","","","","","","","preload","","","1","6","false","[]","[]","[]","","","","","",""
"","","","","","","","","","","","canvas-keyboard-response","105","303510","0.0-105.0","null","null","","","","","","","","","","","","","","fixation","","","1","6","","","","","","","","","",""
"","","","","","","","","","","","canvas-keyboard-response","106","303816","0.0-106.0","null","null","","","","","","","","","","","","","","stimulus","","","1","6","","","","","","","","","",""
"","","","","","","","","","","","canvas-button-response","107","305603","0.0-107.0","1783","bridge","","","","","","","","","","","","","","perceptual","","","1","6","","","","","87","elephant","10","","0",""
"","","","","","","","","","","","canvas-button-response","108","306556","0.0-108.0","950","4","","","","","","","","","","","","","","confidence","","","1","6","","","","","","","","","","6"
"","","","","","","","","","","","html-keyboard-response","109","307571","0.0-109.0","null","null","","","","","","","","","","","","","","feedback","Sun Oct 12 2025 11:25:06 GMT-0400 (Eastern Daylight Time)","27130","1","6","","","","","","","","","",""
"","","","","","","","","","","","preload","110","307572","0.0-110.0","","","","","true","","","","","","","","","","","preload","","","1","7","false","[]","[]","[]","","","","","",""
"","","","","","","","","","","","canvas-keyboard-response","111","307881","0.0-111.0","null","null","","","","","","","","","","","","","","fixation","","","1","7","","","","","","","","","",""
"","","","","","","","","","","","canvas-keyboard-response","112","308198","0.0-112.0","null","null","","","","","","","","","","","","","","stimulus","","","1","7","","","","","","","","","",""
"","","","","","","","","","","","canvas-button-response","113","310830","0.0-113.0","2630","bed","","","","","","","","","","","","","","perceptual","","","1","7","","","","","14","car","6","","0",""
"","","","","","","","","","","","canvas-button-response","114","311640","0.0-114.0","808","6","","","","","","","","","","","","","","confidence","","","1","7","","","","","","","","","","6"
"","","","","","","","","","","","html-keyboard-response","115","312645","0.0-115.0","null","null","","","","","","","","","","","","","","feedback","Sun Oct 12 2025 11:25:11 GMT-0400 (Eastern Daylight Time)","27130","1","7","","","","","","","","","",""
"","","","","","","","","","","","preload","116","312646","0.0-116.0","","","","","true","","","","","","","","","","","preload","","","1","8","false","[]","[]","[]","","","","","",""
"","","","","","","","","","","","canvas-keyboard-response","117","312961","0.0-117.0","null","null","","","","","","","","","","","","","","fixation","","","1","8","","","","","","","","","",""
"","","","","","","","","","","","canvas-keyboard-response","118","313265","0.0-118.0","null","null","","","","","","","","","","","","","","stimulus","","","1","8","","","","","","","","","",""
"","","","","","","","","","","","canvas-button-response","119","316700","0.0-119.0","3432","bridge","","","","","","","","","","","","","","perceptual","","","1","8","","","","","54","flower","6","","0",""
"","","","","","","","","","","","canvas-button-response","120","318922","0.0-120.0","2213","3","","","","","","","","","","","","","","confidence","","","1","8","","","","","","","","","","6"
"","","","","","","","","","","","html-keyboard-response","121","319925","0.0-121.0","null","null","","","","","","","","","","","","","","feedback","Sun Oct 12 2025 11:25:19 GMT-0400 (Eastern Daylight Time)","27130","1","8","","","","","","","","","",""
"","","","","","","","","","","","preload","122","319925","0.0-122.0","","","","","true","","","","","","","","","","","preload","","","1","9","false","[]","[]","[]","","","","","",""
"","","","","","","","","","","","canvas-keyboard-response","123","320243","0.0-123.0","null","null","","","","","","","","","","","","","","fixation","","","1","9","","","","","","","","","",""
"","","","","","","","","","","","canvas-keyboard-response","124","320550","0.0-124.0","null","null","","","","","","","","","","","","","","stimulus","","","1","9","","","","","","","","","",""
"","","","","","","","","","","","canvas-button-response","125","323007","0.0-125.0","2453","bridge","","","","","","","","","","","","","","perceptual","","","1","9","","","","","17","car","10","","0",""
"","","","","","","","","","","","canvas-button-response","126","323838","0.0-126.0","827","5","","","","","","","","","","","","","","confidence","","","1","9","","","","","","","","","","6"
"","","","","","","","","","","","html-keyboard-response","127","324845","0.0-127.0","null","null","","","","","","","","","","","","","","feedback","Sun Oct 12 2025 11:25:23 GMT-0400 (Eastern Daylight Time)","27130","1","9","","","","","","","","","",""
"","","","","","","","","","","","preload","128","324846","0.0-128.0","","","","","true","","","","","","","","","","","preload","","","1","10","false","[]","[]","[]","","","","","",""
"","","","","","","","","","","","canvas-keyboard-response","129","325148","0.0-129.0","null","null","","","","","","","","","","","","","","fixation","","","1","10","","","","","","","","","",""
"","","","","","","","","","","","canvas-keyboard-response","130","325471","0.0-130.0","null","null","","","","","","","","","","","","","","stimulus","","","1","10","","","","","","","","","",""
"","","","","","","","","","","","canvas-button-response","131","328619","0.0-131.0","3144","bridge","","","","","","","","","","","","","","perceptual","","","1","10","","","","","44","bridge","6","","1",""
"","","","","","","","","","","","canvas-button-response","132","329420","0.0-132.0","796","3","","","","","","","","","","","","","","confidence","","","1","10","","","","","","","","","","7"
"","","","","","","","","","","","html-keyboard-response","133","330424","0.0-133.0","null","null","","","","","","","","","","","","","","feedback","Sun Oct 12 2025 11:25:29 GMT-0400 (Eastern Daylight Time)","27130","1","10","","","","","","","","","",""
"","","","","","","","","","","","preload","134","330424","0.0-134.0","","","","","true","","","","","","","","","","","preload","","","1","11","false","[]","[]","[]","","","","","",""
"","","","","","","","","","","","canvas-keyboard-response","135","330728","0.0-135.0","null","null","","","","","","","","","","","","","","fixation","","","1","11","","","","","","","","","",""
"","","","","","","","","","","","canvas-keyboard-response","136","331040","0.0-136.0","null","null","","","","","","","","","","","","","","stimulus","","","1","11","","","","","","","","","",""
"","","","","","","","","","","","canvas-button-response","137","335624","0.0-137.0","4581","house","","","","","","","","","","","","","","perceptual","","","1","11","","","","","37","bed","10","","0",""
"","","","","","","","","","","","canvas-button-response","138","336747","0.0-138.0","1121","3","","","","","","","","","","","","","","confidence","","","1","11","","","","","","","","","","7"
"","","","","","","","","","","","html-keyboard-response","139","337753","0.0-139.0","null","null","","","","","","","","","","","","","","feedback","Sun Oct 12 2025 11:25:36 GMT-0400 (Eastern Daylight Time)","27130","1","11","","","","","","","","","",""
"","","","","","","","","","","","preload","140","337754","0.0-140.0","","","","","true","","","","","","","","","","","preload","","","1","12","false","[]","[]","[]","","","","","",""
"","","","","","","","","","","","canvas-keyboard-response","141","338065","0.0-141.0","null","null","","","","","","","","","","","","","","fixation","","","1","12","","","","","","","","","",""
"","","","","","","","","","","","canvas-keyboard-response","142","338381","0.0-142.0","null","null","","","","","","","","","","","","","","stimulus","","","1","12","","","","","","","","","",""
"","","","","","","","","","","","canvas-button-response","143","340356","0.0-143.0","1971","elephant","","","","","","","","","","","","","","perceptual","","","1","12","","","","","84","elephant","6","","1",""
"","","","","","","","","","","","canvas-button-response","144","341129","0.0-144.0","771","6","","","","","","","","","","","","","","confidence","","","1","12","","","","","","","","","","8"
"","","","","","","","","","","","html-keyboard-response","145","342132","0.0-145.0","null","null","","","","","","","","","","","","","","feedback","Sun Oct 12 2025 11:25:41 GMT-0400 (Eastern Daylight Time)","27130","1","12","","","","","","","","","",""
"","","","","","","","","","","","preload","146","342133","0.0-146.0","","","","","true","","","","","","","","","","","preload","","","1","13","false","[]","[]","[]","","","","","",""
"","","","","","","","","","","","canvas-keyboard-response","147","342440","0.0-147.0","null","null","","","","","","","","","","","","","","fixation","","","1","13","","","","","","","","","",""
"","","","","","","","","","","","canvas-keyboard-response","148","342749","0.0-148.0","null","null","","","","","","","","","","","","","","stimulus","","","1","13","","","","","","","","","",""
"","","","","","","","","","","","canvas-button-response","149","344323","0.0-149.0","1568","house","","","","","","","","","","","","","","perceptual","","","1","13","","","","","7","house","10","","1",""
"","","","","","","","","","","","canvas-button-response","150","345582","0.0-150.0","1256","6","","","","","","","","","","","","","","confidence","","","1","13","","","","","","","","","","9"
"","","","","","","","","","","","html-keyboard-response","151","346586","0.0-151.0","null","null","","","","","","","","","","","","","","feedback","Sun Oct 12 2025 11:25:45 GMT-0400 (Eastern Daylight Time)","27130","1","13","","","","","","","","","",""
"","","","","","","","","","","","preload","152","346587","0.0-152.0","","","","","true","","","","","","","","","","","preload","","","1","14","false","[]","[]","[]","","","","","",""
"","","","","","","","","","","","canvas-keyboard-response","153","346899","0.0-153.0","null","null","","","","","","","","","","","","","","fixation","","","1","14","","","","","","","","","",""
"","","","","","","","","","","","canvas-keyboard-response","154","347213","0.0-154.0","null","null","","","","","","","","","","","","","","stimulus","","","1","14","","","","","","","","","",""
"","","","","","","","","","","","canvas-button-response","155","353624","0.0-155.0","6408","phone","","","","","","","","","","","","","","perceptual","","","1","14","","","","","94","knife","6","","0",""
"","","","","","","","","","","","canvas-button-response","156","354353","0.0-156.0","726","6","","","","","","","","","","","","","","confidence","","","1","14","","","","","","","","","","9"
"","","","","","","","","","","","html-keyboard-response","157","355366","0.0-157.0","null","null","","","","","","","","","","","","","","feedback","Sun Oct 12 2025 11:25:54 GMT-0400 (Eastern Daylight Time)","27130","1","14","","","","","","","","","",""
"","","","","","","","","","","","preload","158","355368","0.0-158.0","","","","","true","","","","","","","","","","","preload","","","1","15","false","[]","[]","[]","","","","","",""
"","","","","","","","","","","","canvas-keyboard-response","159","355680","0.0-159.0","null","null","","","","","","","","","","","","","","fixation","","","1","15","","","","","","","","","",""
"","","","","","","","","","","","canvas-keyboard-response","160","355989","0.0-160.0","null","null","","","","","","","","","","","","","","stimulus","","","1","15","","","","","","","","","",""
"","","","","","","","","","","","canvas-button-response","161","379566","0.0-161.0","23574","bed","","","","","","","","","","","","","","perceptual","","","1","15","","","","","47","bridge","10","","0",""
"","","","","","","","","","","","canvas-button-response","162","380614","0.0-162.0","1042","2","","","","","","","","","","","","","","confidence","","","1","15","","","","","","","","","","9"
"","","","","","","","","","","","html-keyboard-response","163","381620","0.0-163.0","null","null","","","","","","","","","","","","","","feedback","Sun Oct 12 2025 11:26:20 GMT-0400 (Eastern Daylight Time)","27130","1","15","","","","","","","","","",""
"","","","","","","","","","","","preload","164","381620","0.0-164.0","","","","","true","","","","","","","","","","","preload","","","1","16","false","[]","[]","[]","","","","","",""
"","","","","","","","","","","","canvas-keyboard-response","165","381926","0.0-165.0","null","null","","","","","","","","","","","","","","fixation","","","1","16","","","","","","","","","",""
"","","","","","","","","","","","canvas-keyboard-response","166","382230","0.0-166.0","null","null","","","","","","","","","","","","","","stimulus","","","1","16","","","","","","","","","",""
"","","","","","","","","","","","canvas-button-response","167","383905","0.0-167.0","1672","cat","","","","","","","","","","","","","","perceptual","","","1","16","","","","","77","cat","10","","1",""
"","","","","","","","","","","","canvas-button-response","168","384822","0.0-168.0","914","2","","","","","","","","","","","","","","confidence","","","1","16","","","","","","","","","","10"
"","","","","","","","","","","","html-keyboard-response","169","385830","0.0-169.0","null","null","","","","","","","","","","","","","","feedback","Sun Oct 12 2025 11:26:24 GMT-0400 (Eastern Daylight Time)","27130","1","16","","","","","","","","","",""
"","","","","","","","","","","","preload","170","385831","0.0-170.0","","","","","true","","","","","","","","","","","preload","","","1","17","false","[]","[]","[]","","","","","",""
"","","","","","","","","","","","canvas-keyboard-response","171","386140","0.0-171.0","null","null","","","","","","","","","","","","","","fixation","","","1","17","","","","","","","","","",""
"","","","","","","","","","","","canvas-keyboard-response","172","386456","0.0-172.0","null","null","","","","","","","","","","","","","","stimulus","","","1","17","","","","","","","","","",""
"","","","","","","","","","","","canvas-button-response","173","387623","0.0-173.0","1165","bed","","","","","","","","","","","","","","perceptual","","","1","17","","","","","34","bed","6","","1",""
"","","","","","","","","","","","canvas-button-response","174","388498","0.0-174.0","873","9","","","","","","","","","","","","","","confidence","","","1","17","","","","","","","","","","11"
"","","","","","","","","","","","html-keyboard-response","175","389507","0.0-175.0","null","null","","","","","","","","","","","","","","feedback","Sun Oct 12 2025 11:26:28 GMT-0400 (Eastern Daylight Time)","27130","1","17","","","","","","","","","",""
"","","","","","","","","","","","preload","176","389508","0.0-176.0","","","","","true","","","","","","","","","","","preload","","","1","18","false","[]","[]","[]","","","","","",""
"","","","","","","","","","","","canvas-keyboard-response","177","389813","0.0-177.0","null","null","","","","","","","","","","","","","","fixation","","","1","18","","","","","","","","","",""
"","","","","","","","","","","","canvas-keyboard-response","178","390130","0.0-178.0","null","null","","","","","","","","","","","","","","stimulus","","","1","18","","","","","","","","","",""
"","","","","","","","","","","","canvas-button-response","179","391290","0.0-179.0","1158","train","","","","","","","","","","","","","","perceptual","","","1","18","","","","","64","train","6","","1",""
"","","","","","","","","","","","canvas-button-response","180","392072","0.0-180.0","779","10","","","","","","","","","","","","","","confidence","","","1","18","","","","","","","","","","12"
"","","","","","","","","","","","html-keyboard-response","181","393085","0.0-181.0","null","null","","","","","","","","","","","","","","feedback","Sun Oct 12 2025 11:26:32 GMT-0400 (Eastern Daylight Time)","27130","1","18","","","","","","","","","",""
"","","","","","","","","","","","preload","182","393087","0.0-182.0","","","","","true","","","","","","","","","","","preload","","","1","19","false","[]","[]","[]","","","","","",""
"","","","","","","","","","","","canvas-keyboard-response","183","393399","0.0-183.0","null","null","","","","","","","","","","","","","","fixation","","","1","19","","","","","","","","","",""
"","","","","","","","","","","","canvas-keyboard-response","184","393708","0.0-184.0","null","null","","","","","","","","","","","","","","stimulus","","","1","19","","","","","","","","","",""
"","","","","","","","","","","","canvas-button-response","185","400030","0.0-185.0","6320","knife","","","","","","","","","","","","","","perceptual","","","1","19","","","","","24","phone","6","","0",""
"","","","","","","","","","","","canvas-button-response","186","400785","0.0-186.0","750","2","","","","","","","","","","","","","","confidence","","","1","19","","","","","","","","","","12"
"","","","","","","","","","","","html-keyboard-response","187","401791","0.0-187.0","null","null","","","","","","","","","","","","","","feedback","Sun Oct 12 2025 11:26:40 GMT-0400 (Eastern Daylight Time)","27130","1","19","","","","","","","","","",""
"","","","","","","","","","","","html-button-response","188","418788","0.0-188.0","16995","0","","","","","","","","","","","","","","start experiment","Sun Oct 12 2025 11:26:41 GMT-0400 (Eastern Daylight Time)","27130","1","19","","","","","","","","","",""
"","","","","","","","","","","","preload","189","418789","0.0-189.0","","","","","true","","","","","","","","","","","preload","","","2","0","false","[]","[]","[]","","","","","",""
"","","","","","","","","","","","canvas-keyboard-response","190","419092","0.0-190.0","null","null","","","","","","","","","","","","","","fixation","","","2","0","","","","","","","","","",""
"","","","","","","","","","","","canvas-keyboard-response","191","419406","0.0-191.0","null","null","","","","","","","","","","","","","","stimulus","","","2","0","","","","","","","","","",""
"","","","","","","","","","","","canvas-button-response","192","420604","0.0-192.0","1196","cat","","","","","","","","","","","","","","perceptual","","","2","0","","","","","296","cat","6","0","1",""
"","","","","","","","","","","","canvas-button-response","193","421580","0.0-193.0","973","10","","","","","","","","","","","","","","confidence","","","2","0","","","","","","","","","","1"
"","","","","","","","","","","","preload","194","421582","0.0-194.0","","","","","true","","","","","","","","","","","preload","","","2","1","false","[]","[]","[]","","","","","",""
"","","","","","","","","","","","canvas-keyboard-response","195","421893","0.0-195.0","null","null","","","","","","","","","","","","","","fixation","","","2","1","","","","","","","","","",""
"","","","","","","","","","","","canvas-keyboard-response","196","422210","0.0-196.0","null","null","","","","","","","","","","","","","","stimulus","","","2","1","","","","","","","","","",""
"","","","","","","","","","","","canvas-button-response","197","423204","0.0-197.0","992","knife","","","","","","","","","","","","","","perceptual","","","2","1","","","","","367","knife","6","0","1",""
"","","","","","","","","","","","canvas-button-response","198","423966","0.0-198.0","758","10","","","","","","","","","","","","","","confidence","","","2","1","","","","","","","","","","2"
"","","","","","","","","","","","preload","199","423971","0.0-199.0","","","","","true","","","","","","","","","","","preload","","","2","2","false","[]","[]","[]","","","","","",""
"","","","","","","","","","","","canvas-keyboard-response","200","424282","0.0-200.0","null","null","","","","","","","","","","","","","","fixation","","","2","2","","","","","","","","","",""
"","","","","","","","","","","","canvas-keyboard-response","201","424598","0.0-201.0","null","null","","","","","","","","","","","","","","stimulus","","","2","2","","","","","","","","","",""
"","","","","","","","","","","","canvas-button-response","202","428480","0.0-202.0","3875","bridge","","","","","","","","","","","","","","perceptual","","","2","2","","","","","69","car","10","0","0",""
"","","","","","","","","","","","canvas-button-response","203","430147","0.0-203.0","1665","4","","","","","","","","","","","","","","confidence","","","2","2","","","","","","","","","","2"
"","","","","","","","","","","","preload","204","430150","0.0-204.0","","","","","true","","","","","","","","","","","preload","","","2","3","false","[]","[]","[]","","","","","",""
"","","","","","","","","","","","canvas-keyboard-response","205","430455","0.0-205.0","null","null","","","","","","","","","","","","","","fixation","","","2","3","","","","","","","","","",""
"","","","","","","","","","","","canvas-keyboard-response","206","430771","0.0-206.0","null","null","","","","","","","","","","","","","","stimulus","","","2","3","","","","","","","","","",""
"","","","","","","","","","","","canvas-button-response","207","432810","0.0-207.0","2037","car","","","","","","","","","","","","","","perceptual","","","2","3","","","","","286","cat","6","0","0",""
"","","","","","","","","","","","canvas-button-response","208","433565","0.0-208.0","752","3","","","","","","","","","","","","","","confidence","","","2","3","","","","","","","","","","2"
"","","","","","","","","","","","preload","209","433569","0.0-209.0","","","","","true","","","","","","","","","","","preload","","","2","4","false","[]","[]","[]","","","","","",""
"","","","","","","","","","","","canvas-keyboard-response","210","433880","0.0-210.0","null","null","","","","","","","","","","","","","","fixation","","","2","4","","","","","","","","","",""
"","","","","","","","","","","","canvas-keyboard-response","211","434196","0.0-211.0","null","null","","","","","","","","","","","","","","stimulus","","","2","4","","","","","","","","","",""
"","","","","","","","","","","","canvas-button-response","212","435170","0.0-212.0","971","knife","","","","","","","","","","","","","","perceptual","","","2","4","","","","","394","knife","10","0","1",""
"","","","","","","","","","","","canvas-button-response","213","436120","0.0-213.0","947","10","","","","","","","","","","","","","","confidence","","","2","4","","","","","","","","","","3"
"","","","","","","","","","","","preload","214","436121","0.0-214.0","","","","","true","","","","","","","","","","","preload","","","2","5","false","[]","[]","[]","","","","","",""
"","","","","","","","","","","","canvas-keyboard-response","215","436439","0.0-215.0","null","null","","","","","","","","","","","","","","fixation","","","2","5","","","","","","","","","",""
"","","","","","","","","","","","canvas-keyboard-response","216","436745","0.0-216.0","null","null","","","","","","","","","","","","","","stimulus","","","2","5","","","","","","","","","",""
"","","","","","","","","","","","canvas-button-response","217","437890","0.0-217.0","1142","cat","","","","","","","","","","","","","","perceptual","","","2","5","","","","","295","cat","6","0","1",""
"","","","","","","","","","","","canvas-button-response","218","439281","0.0-218.0","1388","7","","","","","","","","","","","","","","confidence","","","2","5","","","","","","","","","","4"
"","","","","","","","","","","","preload","219","439283","0.0-219.0","","","","","true","","","","","","","","","","","preload","","","2","6","false","[]","[]","[]","","","","","",""
"","","","","","","","","","","","canvas-keyboard-response","220","439590","0.0-220.0","null","null","","","","","","","","","","","","","","fixation","","","2","6","","","","","","","","","",""
"","","","","","","","","","","","canvas-keyboard-response","221","439908","0.0-221.0","null","null","","","","","","","","","","","","","","stimulus","","","2","6","","","","","","","","","",""
"","","","","","","","","","","","canvas-button-response","222","440940","0.0-222.0","1029","flower","","","","","","","","","","","","","","perceptual","","","2","6","","","","","237","flower","10","0","1",""
"","","","","","","","","","","","canvas-button-response","223","441832","0.0-223.0","889","10","","","","","","","","","","","","","","confidence","","","2","6","","","","","","","","","","5"
"","","","","","","","","","","","preload","224","441835","0.0-224.0","","","","","true","","","","","","","","","","","preload","","","2","7","false","[]","[]","[]","","","","","",""
"","","","","","","","","","","","canvas-keyboard-response","225","442147","0.0-225.0","null","null","","","","","","","","","","","","","","fixation","","","2","7","","","","","","","","","",""
"","","","","","","","","","","","canvas-keyboard-response","226","442468","0.0-226.0","null","null","","","","","","","","","","","","","","stimulus","","","2","7","","","","","","","","","",""
"","","","","","","","","","","","canvas-button-response","227","443682","0.0-227.0","1211","car","","","","","","","","","","","","","","perceptual","","","2","7","","","","","70","car","10","0","1",""
"","","","","","","","","","","","canvas-button-response","228","444501","0.0-228.0","813","10","","","","","","","","","","","","","","confidence","","","2","7","","","","","","","","","","6"
"","","","","","","","","","","","preload","229","444503","0.0-229.0","","","","","true","","","","","","","","","","","preload","","","2","8","false","[]","[]","[]","","","","","",""
"","","","","","","","","","","","canvas-keyboard-response","230","444805","0.0-230.0","null","null","","","","","","","","","","","","","","fixation","","","2","8","","","","","","","","","",""
"","","","","","","","","","","","canvas-keyboard-response","231","445120","0.0-231.0","null","null","","","","","","","","","","","","","","stimulus","","","2","8","","","","","","","","","",""
"","","","","","","","","","","","canvas-button-response","232","446966","0.0-232.0","1843","cat","","","","","","","","","","","","","","perceptual","","","2","8","","","","","100","phone","10","0","0",""
"","","","","","","","","","","","canvas-button-response","233","447802","0.0-233.0","833","3","","","","","","","","","","","","","","confidence","","","2","8","","","","","","","","","","6"
"","","","","","","","","","","","preload","234","447803","0.0-234.0","","","","","true","","","","","","","","","","","preload","","","2","9","false","[]","[]","[]","","","","","",""
"","","","","","","","","","","","canvas-keyboard-response","235","448106","0.0-235.0","null","null","","","","","","","","","","","","","","fixation","","","2","9","","","","","","","","","",""
"","","","","","","","","","","","canvas-keyboard-response","236","448408","0.0-236.0","null","null","","","","","","","","","","","","","","stimulus","","","2","9","","","","","","","","","",""
"","","","","","","","","","","","canvas-button-response","237","450348","0.0-237.0","1938","phone","","","","","","","","","","","","","","perceptual","","","2","9","","","","","310","cat","10","0","0",""
"","","","","","","","","","","","canvas-button-response","238","451187","0.0-238.0","835","3","","","","","","","","","","","","","","confidence","","","2","9","","","","","","","","","","6"
"","","","","","","","","","","","preload","239","451189","0.0-239.0","","","","","true","","","","","","","","","","","preload","","","2","10","false","[]","[]","[]","","","","","",""
"","","","","","","","","","","","canvas-keyboard-response","240","451505","0.0-240.0","null","null","","","","","","","","","","","","","","fixation","","","2","10","","","","","","","","","",""
"","","","","","","","","","","","canvas-keyboard-response","241","451811","0.0-241.0","null","null","","","","","","","","","","","","","","stimulus","","","2","10","","","","","","","","","",""
"","","","","","","","","","","","canvas-button-response","242","453462","0.0-242.0","1649","train","","","","","","","","","","","","","","perceptual","","","2","10","","","","","278","train","10","0","1",""
"","","","","","","","","","","","canvas-button-response","243","455522","0.0-243.0","2056","5","","","","","","","","","","","","","","confidence","","","2","10","","","","","","","","","","7"
"","","","","","","","","","","","preload","244","455523","0.0-244.0","","","","","true","","","","","","","","","","","preload","","","2","11","false","[]","[]","[]","","","","","",""
"","","","","","","","","","","","canvas-keyboard-response","245","455836","0.0-245.0","null","null","","","","","","","","","","","","","","fixation","","","2","11","","","","","","","","","",""
"","","","","","","","","","","","canvas-keyboard-response","246","456147","0.0-246.0","null","null","","","","","","","","","","","","","","stimulus","","","2","11","","","","","","","","","",""
"","","","","","","","","","","","canvas-button-response","247","457238","0.0-247.0","1089","cat","","","","","","","","","","","","","","perceptual","","","2","11","","","","","304","cat","10","0","1",""
"","","","","","","","","","","","canvas-button-response","248","458202","0.0-248.0","961","10","","","","","","","","","","","","","","confidence","","","2","11","","","","","","","","","","8"
"","","","","","","","","","","","preload","249","458204","0.0-249.0","","","","","true","","","","","","","","","","","preload","","","2","12","false","[]","[]","[]","","","","","",""
"","","","","","","","","","","","canvas-keyboard-response","250","458520","0.0-250.0","null","null","","","","","","","","","","","","","","fixation","","","2","12","","","","","","","","","",""
"","","","","","","","","","","","canvas-keyboard-response","251","458822","0.0-251.0","null","null","","","","","","","","","","","","","","stimulus","","","2","12","","","","","","","","","",""
"","","","","","","","","","","","canvas-button-response","252","459754","0.0-252.0","930","train","","","","","","","","","","","","","","perceptual","","","2","12","","","","","240","train","6","0","1",""
"","","","","","","","","","","","canvas-button-response","253","460484","0.0-253.0","726","10","","","","","","","","","","","","","","confidence","","","2","12","","","","","","","","","","9"
"","","","","","","","","","","","preload","254","460485","0.0-254.0","","","","","true","","","","","","","","","","","preload","","","2","13","false","[]","[]","[]","","","","","",""
"","","","","","","","","","","","canvas-keyboard-response","255","460792","0.0-255.0","null","null","","","","","","","","","","","","","","fixation","","","2","13","","","","","","","","","",""
"","","","","","","","","","","","canvas-keyboard-response","256","461098","0.0-256.0","null","null","","","","","","","","","","","","","","stimulus","","","2","13","","","","","","","","","",""
"","","","","","","","","","","","canvas-button-response","257","464071","0.0-257.0","2969","bed","","","","","","","","","","","","","","perceptual","","","2","13","","","","","90","phone","6","0","0",""
"","","","","","","","","","","","canvas-button-response","258","465030","0.0-258.0","956","1","","","","","","","","","","","","","","confidence","","","2","13","","","","","","","","","","9"
"","","","","","","","","","","","preload","259","465031","0.0-259.0","","","","","true","","","","","","","","","","","preload","","","2","14","false","[]","[]","[]","","","","","",""
"","","","","","","","","","","","canvas-keyboard-response","260","465346","0.0-260.0","null","null","","","","","","","","","","","","","","fixation","","","2","14","","","","","","","","","",""
"","","","","","","","","","","","canvas-keyboard-response","261","465651","0.0-261.0","null","null","","","","","","","","","","","","","","stimulus","","","2","14","","","","","","","","","",""
"","","","","","","","","","","","canvas-button-response","262","466747","0.0-262.0","1092","elephant","","","","","","","","","","","","","","perceptual","","","2","14","","","","","333","elephant","6","0","1",""
"","","","","","","","","","","","canvas-button-response","263","467486","0.0-263.0","734","10","","","","","","","","","","","","","","confidence","","","2","14","","","","","","","","","","10"
"","","","","","","","","","","","preload","264","467488","0.0-264.0","","","","","true","","","","","","","","","","","preload","","","2","15","false","[]","[]","[]","","","","","",""
"","","","","","","","","","","","canvas-keyboard-response","265","467796","0.0-265.0","null","null","","","","","","","","","","","","","","fixation","","","2","15","","","","","","","","","",""
"","","","","","","","","","","","canvas-keyboard-response","266","468105","0.0-266.0","null","null","","","","","","","","","","","","","","stimulus","","","2","15","","","","","","","","","",""
"","","","","","","","","","","","canvas-button-response","267","470402","0.0-267.0","2291","cat","","","","","","","","","","","","","","perceptual","","","2","15","","","","","301","cat","10","0","1",""
"","","","","","","","","","","","canvas-button-response","268","471197","0.0-268.0","791","3","","","","","","","","","","","","","","confidence","","","2","15","","","","","","","","","","11"
"","","","","","","","","","","","preload","269","471200","0.0-269.0","","","","","true","","","","","","","","","","","preload","","","2","16","false","[]","[]","[]","","","","","",""
"","","","","","","","","","","","canvas-keyboard-response","270","471508","0.0-270.0","null","null","","","","","","","","","","","","","","fixation","","","2","16","","","","","","","","","",""
"","","","","","","","","","","","canvas-keyboard-response","271","471817","0.0-271.0","null","null","","","","","","","","","","","","","","stimulus","","","2","16","","","","","","","","","",""
"","","","","","","","","","","","canvas-button-response","272","472901","0.0-272.0","1080","knife","","","","","","","","","","","","","","perceptual","","","2","16","","","","","393","knife","10","0","1",""
"","","","","","","","","","","","canvas-button-response","273","473755","0.0-273.0","850","10","","","","","","","","","","","","","","confidence","","","2","16","","","","","","","","","","12"
"","","","","","","","","","","","preload","274","473757","0.0-274.0","","","","","true","","","","","","","","","","","preload","","","2","17","false","[]","[]","[]","","","","","",""
"","","","","","","","","","","","canvas-keyboard-response","275","474064","0.0-275.0","null","null","","","","","","","","","","","","","","fixation","","","2","17","","","","","","","","","",""
"","","","","","","","","","","","canvas-keyboard-response","276","474367","0.0-276.0","null","null","","","","","","","","","","","","","","stimulus","","","2","17","","","","","","","","","",""
"","","","","","","","","","","","canvas-button-response","277","475364","0.0-277.0","994","flower","","","","","","","","","","","","","","perceptual","","","2","17","","","","","226","flower","10","0","1",""
"","","","","","","","","","","","canvas-button-response","278","476429","0.0-278.0","1060","10","","","","","","","","","","","","","","confidence","","","2","17","","","","","","","","","","13"
"","","","","","","","","","","","preload","279","476430","0.0-279.0","","","","","true","","","","","","","","","","","preload","","","2","18","false","[]","[]","[]","","","","","",""
"","","","","","","","","","","","canvas-keyboard-response","280","476744","0.0-280.0","null","null","","","","","","","","","","","","","","fixation","","","2","18","","","","","","","","","",""
"","","","","","","","","","","","canvas-keyboard-response","281","477054","0.0-281.0","null","null","","","","","","","","","","","","","","stimulus","","","2","18","","","","","","","","","",""
"","","","","","","","","","","","canvas-button-response","282","479053","0.0-282.0","1997","bed","","","","","","","","","","","","","","perceptual","","","2","18","","","","","126","bed","6","0","1",""
"","","","","","","","","","","","canvas-button-response","283","480013","0.0-283.0","957","7","","","","","","","","","","","","","","confidence","","","2","18","","","","","","","","","","14"
"","","","","","","","","","","","preload","284","480014","0.0-284.0","","","","","true","","","","","","","","","","","preload","","","2","19","false","[]","[]","[]","","","","","",""
"","","","","","","","","","","","canvas-keyboard-response","285","480317","0.0-285.0","null","null","","","","","","","","","","","","","","fixation","","","2","19","","","","","","","","","",""
"","","","","","","","","","","","canvas-keyboard-response","286","480628","0.0-286.0","null","null","","","","","","","","","","","","","","stimulus","","","2","19","","","","","","","","","",""
"","","","","","","","","","","","canvas-button-response","287","481864","0.0-287.0","1233","cat","","","","","","","","","","","","","","perceptual","","","2","19","","","","","109","phone","10","0","0",""
"","","","","","","","","","","","canvas-button-response","288","482644","0.0-288.0","774","5","","","","","","","","","","","","","","confidence","","","2","19","","","","","","","","","","14"
"","","","","","","","","","","","preload","289","482645","0.0-289.0","","","","","true","","","","","","","","","","","preload","","","2","20","false","[]","[]","[]","","","","","",""
"","","","","","","","","","","","canvas-keyboard-response","290","482957","0.0-290.0","null","null","","","","","","","","","","","","","","fixation","","","2","20","","","","","","","","","",""
"","","","","","","","","","","","canvas-keyboard-response","291","483263","0.0-291.0","null","null","","","","","","","","","","","","","","stimulus","","","2","20","","","","","","","","","",""
"","","","","","","","","","","","canvas-button-response","292","485020","0.0-292.0","1754","bridge","","","","","","","","","","","","","","perceptual","","","2","20","","","","","118","phone","10","0","0",""
"","","","","","","","","","","","canvas-button-response","293","485723","0.0-293.0","700","3","","","","","","","","","","","","","","confidence","","","2","20","","","","","","","","","","14"
"","","","","","","","","","","","preload","294","485724","0.0-294.0","","","","","true","","","","","","","","","","","preload","","","2","21","false","[]","[]","[]","","","","","",""
"","","","","","","","","","","","canvas-keyboard-response","295","486041","0.0-295.0","null","null","","","","","","","","","","","","","","fixation","","","2","21","","","","","","","","","",""
"","","","","","","","","","","","canvas-keyboard-response","296","486348","0.0-296.0","null","null","","","","","","","","","","","","","","stimulus","","","2","21","","","","","","","","","",""
"","","","","","","","","","","","canvas-button-response","297","488294","0.0-297.0","1943","house","","","","","","","","","","","","","","perceptual","","","2","21","","","","","7","house","6","0","1",""
"","","","","","","","","","","","canvas-button-response","298","489738","0.0-298.0","1441","9","","","","","","","","","","","","","","confidence","","","2","21","","","","","","","","","","15"
"","","","","","","","","","","","preload","299","489739","0.0-299.0","","","","","true","","","","","","","","","","","preload","","","2","22","false","[]","[]","[]","","","","","",""
"","","","","","","","","","","","canvas-keyboard-response","300","490056","0.0-300.0","null","null","","","","","","","","","","","","","","fixation","","","2","22","","","","","","","","","",""
"","","","","","","","","","","","canvas-keyboard-response","301","490362","0.0-301.0","null","null","","","","","","","","","","","","","","stimulus","","","2","22","","","","","","","","","",""
"","","","","","","","","","","","canvas-button-response","302","492876","0.0-302.0","2510","cat","","","","","","","","","","","","","","perceptual","","","2","22","","","","","346","elephant","10","0","0",""
"","","","","","","","","","","","canvas-button-response","303","493711","0.0-303.0","833","2","","","","","","","","","","","","","","confidence","","","2","22","","","","","","","","","","15"
"","","","","","","","","","","","preload","304","493712","0.0-304.0","","","","","true","","","","","","","","","","","preload","","","2","23","false","[]","[]","[]","","","","","",""
"","","","","","","","","","","","canvas-keyboard-response","305","494023","0.0-305.0","null","null","","","","","","","","","","","","","","fixation","","","2","23","","","","","","","","","",""
"","","","","","","","","","","","canvas-keyboard-response","306","494327","0.0-306.0","null","null","","","","","","","","","","","","","","stimulus","","","2","23","","","","","","","","","",""
"","","","","","","","","","","","canvas-button-response","307","495288","0.0-307.0","959","phone","","","","","","","","","","","","","","perceptual","","","2","23","","","","","95","phone","6","0","1",""
"","","","","","","","","","","","canvas-button-response","308","496035","0.0-308.0","744","10","","","","","","","","","","","","","","confidence","","","2","23","","","","","","","","","","16"
"","","","","","","","","","","","preload","309","496036","0.0-309.0","","","","","true","","","","","","","","","","","preload","","","2","24","false","[]","[]","[]","","","","","",""
"","","","","","","","","","","","canvas-keyboard-response","310","496346","0.0-310.0","null","null","","","","","","","","","","","","","","fixation","","","2","24","","","","","","","","","",""
"","","","","","","","","","","","canvas-keyboard-response","311","496668","0.0-311.0","null","null","","","","","","","","","","","","","","stimulus","","","2","24","","","","","","","","","",""
"","","","","","","","","","","","canvas-button-response","312","497804","0.0-312.0","1133","train","","","","","","","","","","","","","","perceptual","","","2","24","","","","","134","bed","6","0","0",""
"","","","","","","","","","","","canvas-button-response","313","498704","0.0-313.0","892","3","","","","","","","","","","","","","","confidence","","","2","24","","","","","","","","","","16"
"","","","","","","","","","","","preload","314","498705","0.0-314.0","","","","","true","","","","","","","","","","","preload","","","2","25","false","[]","[]","[]","","","","","",""
"","","","","","","","","","","","canvas-keyboard-response","315","499023","0.0-315.0","null","null","","","","","","","","","","","","","","fixation","","","2","25","","","","","","","","","",""
"","","","","","","","","","","","canvas-keyboard-response","316","499336","0.0-316.0","null","null","","","","","","","","","","","","","","stimulus","","","2","25","","","","","","","","","",""
"","","","","","","","","","","","canvas-button-response","317","500262","0.0-317.0","923","flower","","","","","","","","","","","","","","perceptual","","","2","25","","","","","205","flower","6","0","1",""
"","","","","","","","","","","","canvas-button-response","318","501259","0.0-318.0","994","10","","","","","","","","","","","","","","confidence","","","2","25","","","","","","","","","","17"
"","","","","","","","","","","","preload","319","501260","0.0-319.0","","","","","true","","","","","","","","","","","preload","","","2","26","false","[]","[]","[]","","","","","",""
"","","","","","","","","","","","canvas-keyboard-response","320","501576","0.0-320.0","null","null","","","","","","","","","","","","","","fixation","","","2","26","","","","","","","","","",""
"","","","","","","","","","","","canvas-keyboard-response","321","501887","0.0-321.0","null","null","","","","","","","","","","","","","","stimulus","","","2","26","","","","","","","","","",""
"","","","","","","","","","","","canvas-button-response","322","503053","0.0-322.0","1163","flower","","","","","","","","","","","","","","perceptual","","","2","26","","","","","212","flower","6","0","1",""
"","","","","","","","","","","","canvas-button-response","323","504105","0.0-323.0","1050","3","","","","","","","","","","","","","","confidence","","","2","26","","","","","","","","","","18"
"","","","","","","","","","","","preload","324","504106","0.0-324.0","","","","","true","","","","","","","","","","","preload","","","2","27","false","[]","[]","[]","","","","","",""
"","","","","","","","","","","","canvas-keyboard-response","325","504413","0.0-325.0","null","null","","","","","","","","","","","","","","fixation","","","2","27","","","","","","","","","",""
"","","","","","","","","","","","canvas-keyboard-response","326","504719","0.0-326.0","null","null","","","","","","","","","","","","","","stimulus","","","2","27","","","","","","","","","",""
"","","","","","","","","","","","canvas-button-response","327","506094","0.0-327.0","1372","bed","","","","","","","","","","","","","","perceptual","","","2","27","","","","","149","bed","10","0","1",""
"","","","","","","","","","","","canvas-button-response","328","507051","0.0-328.0","953","4","","","","","","","","","","","","","","confidence","","","2","27","","","","","","","","","","19"
"","","","","","","","","","","","preload","329","507053","0.0-329.0","","","","","true","","","","","","","","","","","preload","","","2","28","false","[]","[]","[]","","","","","",""
"","","","","","","","","","","","canvas-keyboard-response","330","507355","0.0-330.0","null","null","","","","","","","","","","","","","","fixation","","","2","28","","","","","","","","","",""
"","","","","","","","","","","","canvas-keyboard-response","331","507660","0.0-331.0","null","null","","","","","","","","","","","","","","stimulus","","","2","28","","","","","","","","","",""
"","","","","","","","","","","","canvas-button-response","332","508937","0.0-332.0","1274","elephant","","","","","","","","","","","","","","perceptual","","","2","28","","","","","260","train","10","0","0",""
"","","","","","","","","","","","canvas-button-response","333","509984","0.0-333.0","1044","2","","","","","","","","","","","","","","confidence","","","2","28","","","","","","","","","","19"
"","","","","","","","","","","","preload","334","509985","0.0-334.0","","","","","true","","","","","","","","","","","preload","","","2","29","false","[]","[]","[]","","","","","",""
"","","","","","","","","","","","canvas-keyboard-response","335","510294","0.0-335.0","null","null","","","","","","","","","","","","","","fixation","","","2","29","","","","","","","","","",""
"","","","","","","","","","","","canvas-keyboard-response","336","510612","0.0-336.0","null","null","","","","","","","","","","","","","","stimulus","","","2","29","","","","","","","","","",""
"","","","","","","","","","","","canvas-button-response","337","513856","0.0-337.0","3242","knife","","","","","","","","","","","","","","perceptual","","","2","29","","","","","27","house","10","0","0",""
"","","","","","","","","","","","canvas-button-response","338","514568","0.0-338.0","709","7","","","","","","","","","","","","","","confidence","","","2","29","","","","","","","","","","19"
"","","","","","","","","","","","preload","339","514569","0.0-339.0","","","","","true","","","","","","","","","","","preload","","","2","30","false","[]","[]","[]","","","","","",""
"","","","","","","","","","","","canvas-keyboard-response","340","514880","0.0-340.0","null","null","","","","","","","","","","","","","","fixation","","","2","30","","","","","","","","","",""
"","","","","","","","","","","","canvas-keyboard-response","341","515191","0.0-341.0","null","null","","","","","","","","","","","","","","stimulus","","","2","30","","","","","","","","","",""
"","","","","","","","","","","","canvas-button-response","342","516569","0.0-342.0","1374","car","","","","","","","","","","","","","","perceptual","","","2","30","","","","","44","car","6","0","1",""
"","","","","","","","","","","","canvas-button-response","343","517579","0.0-343.0","1007","10","","","","","","","","","","","","","","confidence","","","2","30","","","","","","","","","","20"
"","","","","","","","","","","","preload","344","517580","0.0-344.0","","","","","true","","","","","","","","","","","preload","","","2","31","false","[]","[]","[]","","","","","",""
"","","","","","","","","","","","canvas-keyboard-response","345","517886","0.0-345.0","null","null","","","","","","","","","","","","","","fixation","","","2","31","","","","","","","","","",""
"","","","","","","","","","","","canvas-keyboard-response","346","518194","0.0-346.0","null","null","","","","","","","","","","","","","","stimulus","","","2","31","","","","","","","","","",""
"","","","","","","","","","","","canvas-button-response","347","519162","0.0-347.0","965","elephant","","","","","","","","","","","","","","perceptual","","","2","31","","","","","350","elephant","10","0","1",""
"","","","","","","","","","","","canvas-button-response","348","520152","0.0-348.0","986","10","","","","","","","","","","","","","","confidence","","","2","31","","","","","","","","","","21"
"","","","","","","","","","","","preload","349","520153","0.0-349.0","","","","","true","","","","","","","","","","","preload","","","2","32","false","[]","[]","[]","","","","","",""
"","","","","","","","","","","","canvas-keyboard-response","350","520463","0.0-350.0","null","null","","","","","","","","","","","","","","fixation","","","2","32","","","","","","","","","",""
"","","","","","","","","","","","canvas-keyboard-response","351","520775","0.0-351.0","null","null","","","","","","","","","","","","","","stimulus","","","2","32","","","","","","","","","",""
"","","","","","","","","","","","canvas-button-response","352","521811","0.0-352.0","1033","flower","","","","","","","","","","","","","","perceptual","","","2","32","","","","","207","flower","6","0","1",""
"","","","","","","","","","","","canvas-button-response","353","522782","0.0-353.0","968","10","","","","","","","","","","","","","","confidence","","","2","32","","","","","","","","","","22"
"","","","","","","","","","","","preload","354","522784","0.0-354.0","","","","","true","","","","","","","","","","","preload","","","2","33","false","[]","[]","[]","","","","","",""
"","","","","","","","","","","","canvas-keyboard-response","355","523094","0.0-355.0","null","null","","","","","","","","","","","","","","fixation","","","2","33","","","","","","","","","",""
"","","","","","","","","","","","canvas-keyboard-response","356","523405","0.0-356.0","null","null","","","","","","","","","","","","","","stimulus","","","2","33","","","","","","","","","",""
"","","","","","","","","","","","canvas-button-response","357","524729","0.0-357.0","1321","bridge","","","","","","","","","","","","","","perceptual","","","2","33","","","","","179","bridge","6","0","1",""
"","","","","","","","","","","","canvas-button-response","358","525764","0.0-358.0","1031","6","","","","","","","","","","","","","","confidence","","","2","33","","","","","","","","","","23"
"","","","","","","","","","","","preload","359","525767","0.0-359.0","","","","","true","","","","","","","","","","","preload","","","2","34","false","[]","[]","[]","","","","","",""
"","","","","","","","","","","","canvas-keyboard-response","360","526073","0.0-360.0","null","null","","","","","","","","","","","","","","fixation","","","2","34","","","","","","","","","",""
"","","","","","","","","","","","canvas-keyboard-response","361","526394","0.0-361.0","null","null","","","","","","","","","","","","","","stimulus","","","2","34","","","","","","","","","",""
"","","","","","","","","","","","canvas-button-response","362","527603","0.0-362.0","1206","car","","","","","","","","","","","","","","perceptual","","","2","34","","","","","46","car","6","0","1",""
"","","","","","","","","","","","canvas-button-response","363","528427","0.0-363.0","820","10","","","","","","","","","","","","","","confidence","","","2","34","","","","","","","","","","24"
"","","","","","","","","","","","preload","364","528428","0.0-364.0","","","","","true","","","","","","","","","","","preload","","","2","35","false","[]","[]","[]","","","","","",""
"","","","","","","","","","","","canvas-keyboard-response","365","528740","0.0-365.0","null","null","","","","","","","","","","","","","","fixation","","","2","35","","","","","","","","","",""
"","","","","","","","","","","","canvas-keyboard-response","366","529057","0.0-366.0","null","null","","","","","","","","","","","","","","stimulus","","","2","35","","","","","","","","","",""
"","","","","","","","","","","","canvas-button-response","367","530294","0.0-367.0","1234","house","","","","","","","","","","","","","","perceptual","","","2","35","","","","","30","house","10","0","1",""
"","","","","","","","","","","","canvas-button-response","368","531254","0.0-368.0","958","8","","","","","","","","","","","","","","confidence","","","2","35","","","","","","","","","","25"
"","","","","","","","","","","","preload","369","531256","0.0-369.0","","","","","true","","","","","","","","","","","preload","","","2","36","false","[]","[]","[]","","","","","",""
"","","","","","","","","","","","canvas-keyboard-response","370","531570","0.0-370.0","null","null","","","","","","","","","","","","","","fixation","","","2","36","","","","","","","","","",""
"","","","","","","","","","","","canvas-keyboard-response","371","531873","0.0-371.0","null","null","","","","","","","","","","","","","","stimulus","","","2","36","","","","","","","","","",""
"","","","","","","","","","","","canvas-button-response","372","533397","0.0-372.0","1520","phone","","","","","","","","","","","","","","perceptual","","","2","36","","","","","365","knife","6","0","0",""
"","","","","","","","","","","","canvas-button-response","373","534234","0.0-373.0","829","5","","","","","","","","","","","","","","confidence","","","2","36","","","","","","","","","","25"
"","","","","","","","","","","","preload","374","534236","0.0-374.0","","","","","true","","","","","","","","","","","preload","","","2","37","false","[]","[]","[]","","","","","",""
"","","","","","","","","","","","canvas-keyboard-response","375","534538","0.0-375.0","null","null","","","","","","","","","","","","","","fixation","","","2","37","","","","","","","","","",""
"","","","","","","","","","","","canvas-keyboard-response","376","534846","0.0-376.0","null","null","","","","","","","","","","","","","","stimulus","","","2","37","","","","","","","","","",""
"","","","","","","","","","","","canvas-button-response","377","535746","0.0-377.0","898","knife","","","","","","","","","","","","","","perceptual","","","2","37","","","","","378","knife","6","0","1",""
"","","","","","","","","","","","canvas-button-response","378","536527","0.0-378.0","778","10","","","","","","","","","","","","","","confidence","","","2","37","","","","","","","","","","26"
"","","","","","","","","","","","preload","379","536528","0.0-379.0","","","","","true","","","","","","","","","","","preload","","","2","38","false","[]","[]","[]","","","","","",""
"","","","","","","","","","","","canvas-keyboard-response","380","536841","0.0-380.0","null","null","","","","","","","","","","","","","","fixation","","","2","38","","","","","","","","","",""
"","","","","","","","","","","","canvas-keyboard-response","381","537145","0.0-381.0","null","null","","","","","","","","","","","","","","stimulus","","","2","38","","","","","","","","","",""
"","","","","","","","","","","","canvas-button-response","382","538269","0.0-382.0","1122","cat","","","","","","","","","","","","","","perceptual","","","2","38","","","","","309","cat","10","0","1",""
"","","","","","","","","","","","canvas-button-response","383","539238","0.0-383.0","966","5","","","","","","","","","","","","","","confidence","","","2","38","","","","","","","","","","27"
"","","","","","","","","","","","preload","384","539239","0.0-384.0","","","","","true","","","","","","","","","","","preload","","","2","39","false","[]","[]","[]","","","","","",""
"","","","","","","","","","","","canvas-keyboard-response","385","539555","0.0-385.0","null","null","","","","","","","","","","","","","","fixation","","","2","39","","","","","","","","","",""
"","","","","","","","","","","","canvas-keyboard-response","386","539867","0.0-386.0","null","null","","","","","","","","","","","","","","stimulus","","","2","39","","","","","","","","","",""
"","","","","","","","","","","","canvas-button-response","387","540821","0.0-387.0","952","flower","","","","","","","","","","","","","","perceptual","","","2","39","","","","","233","flower","10","0","1",""
"","","","","","","","","","","","canvas-button-response","388","542088","0.0-388.0","1265","10","","","","","","","","","","","","","","confidence","","","2","39","","","","","","","","","","28"
"","","","","","","","","","","","preload","389","542089","0.0-389.0","","","","","true","","","","","","","","","","","preload","","","2","40","false","[]","[]","[]","","","","","",""
"","","","","","","","","","","","canvas-keyboard-response","390","542404","0.0-390.0","null","null","","","","","","","","","","","","","","fixation","","","2","40","","","","","","","","","",""
"","","","","","","","","","","","canvas-keyboard-response","391","542713","0.0-391.0","null","null","","","","","","","","","","","","","","stimulus","","","2","40","","","","","","","","","",""
"","","","","","","","","","","","canvas-button-response","392","543751","0.0-392.0","1032","car","","","","","","","","","","","","","","perceptual","","","2","40","","","","","62","car","10","0","1",""
"","","","","","","","","","","","canvas-button-response","393","544671","0.0-393.0","916","10","","","","","","","","","","","","","","confidence","","","2","40","","","","","","","","","","29"
"","","","","","","","","","","","preload","394","544672","0.0-394.0","","","","","true","","","","","","","","","","","preload","","","2","41","false","[]","[]","[]","","","","","",""
"","","","","","","","","","","","canvas-keyboard-response","395","544988","0.0-395.0","null","null","","","","","","","","","","","","","","fixation","","","2","41","","","","","","","","","",""
"","","","","","","","","","","","canvas-keyboard-response","396","545290","0.0-396.0","null","null","","","","","","","","","","","","","","stimulus","","","2","41","","","","","","","","","",""
"","","","","","","","","","","","canvas-button-response","397","547012","0.0-397.0","1718","bridge","","","","","","","","","","","","","","perceptual","","","2","41","","","","","161","bridge","6","0","1",""
"","","","","","","","","","","","canvas-button-response","398","578704","0.0-398.0","31689","1","","","","","","","","","","","","","","confidence","","","2","41","","","","","","","","","","30"
"","","","","","","","","","","","preload","399","578705","0.0-399.0","","","","","true","","","","","","","","","","","preload","","","2","42","false","[]","[]","[]","","","","","",""
"","","","","","","","","","","","canvas-keyboard-response","400","579011","0.0-400.0","null","null","","","","","","","","","","","","","","fixation","","","2","42","","","","","","","","","",""
"","","","","","","","","","","","canvas-keyboard-response","401","579315","0.0-401.0","null","null","","","","","","","","","","","","","","stimulus","","","2","42","","","","","","","","","",""
"","","","","","","","","","","","canvas-button-response","402","580537","0.0-402.0","1219","train","","","","","","","","","","","","","","perceptual","","","2","42","","","","","241","train","6","0","1",""
"","","","","","","","","","","","canvas-button-response","403","581673","0.0-403.0","1133","10","","","","","","","","","","","","","","confidence","","","2","42","","","","","","","","","","31"
"","","","","","","","","","","","preload","404","581675","0.0-404.0","","","","","true","","","","","","","","","","","preload","","","2","43","false","[]","[]","[]","","","","","",""
"","","","","","","","","","","","canvas-keyboard-response","405","581979","0.0-405.0","null","null","","","","","","","","","","","","","","fixation","","","2","43","","","","","","","","","",""
"","","","","","","","","","","","canvas-keyboard-response","406","582282","0.0-406.0","null","null","","","","","","","","","","","","","","stimulus","","","2","43","","","","","","","","","",""
"","","","","","","","","","","","canvas-button-response","407","582946","0.0-407.0","661","elephant","","","","","","","","","","","","","","perceptual","","","2","43","","","","","331","elephant","6","0","1",""
"","","","","","","","","","","","canvas-button-response","408","583558","0.0-408.0","606","10","","","","","","","","","","","","","","confidence","","","2","43","","","","","","","","","","32"
"","","","","","","","","","","","preload","409","583560","0.0-409.0","","","","","true","","","","","","","","","","","preload","","","2","44","false","[]","[]","[]","","","","","",""
"","","","","","","","","","","","canvas-keyboard-response","410","583866","0.0-410.0","null","null","","","","","","","","","","","","","","fixation","","","2","44","","","","","","","","","",""
"","","","","","","","","","","","canvas-keyboard-response","411","584170","0.0-411.0","null","null","","","","","","","","","","","","","","stimulus","","","2","44","","","","","","","","","",""
"","","","","","","","","","","","canvas-button-response","412","585287","0.0-412.0","1114","cat","","","","","","","","","","","","","","perceptual","","","2","44","","","","","24","house","10","0","0",""
"","","","","","","","","","","","canvas-button-response","413","586225","0.0-413.0","936","3","","","","","","","","","","","","","","confidence","","","2","44","","","","","","","","","","32"
"","","","","","","","","","","","preload","414","586227","0.0-414.0","","","","","true","","","","","","","","","","","preload","","","2","45","false","[]","[]","[]","","","","","",""
"","","","","","","","","","","","canvas-keyboard-response","415","586536","0.0-415.0","null","null","","","","","","","","","","","","","","fixation","","","2","45","","","","","","","","","",""
"","","","","","","","","","","","canvas-keyboard-response","416","586841","0.0-416.0","null","null","","","","","","","","","","","","","","stimulus","","","2","45","","","","","","","","","",""
"","","","","","","","","","","","canvas-button-response","417","587592","0.0-417.0","747","train","","","","","","","","","","","","","","perceptual","","","2","45","","","","","264","train","10","0","1",""
"","","","","","","","","","","","canvas-button-response","418","588419","0.0-418.0","824","10","","","","","","","","","","","","","","confidence","","","2","45","","","","","","","","","","33"
"","","","","","","","","","","","preload","419","588421","0.0-419.0","","","","","true","","","","","","","","","","","preload","","","2","46","false","[]","[]","[]","","","","","",""
"","","","","","","","","","","","canvas-keyboard-response","420","588736","0.0-420.0","null","null","","","","","","","","","","","","","","fixation","","","2","46","","","","","","","","","",""
"","","","","","","","","","","","canvas-keyboard-response","421","589043","0.0-421.0","null","null","","","","","","","","","","","","","","stimulus","","","2","46","","","","","","","","","",""
"","","","","","","","","","","","canvas-button-response","422","590969","0.0-422.0","1923","bridge","","","","","","","","","","","","","","perceptual","","","2","46","","","","","258","train","6","0","0",""
"","","","","","","","","","","","canvas-button-response","423","648285","0.0-423.0","57313","4","","","","","","","","","","","","","","confidence","","","2","46","","","","","","","","","","33"
"","","","","","","","","","","","preload","424","648287","0.0-424.0","","","","","true","","","","","","","","","","","preload","","","2","47","false","[]","[]","[]","","","","","",""
"","","","","","","","","","","","canvas-keyboard-response","425","648593","0.0-425.0","null","null","","","","","","","","","","","","","","fixation","","","2","47","","","","","","","","","",""
"","","","","","","","","","","","canvas-keyboard-response","426","648904","0.0-426.0","null","null","","","","","","","","","","","","","","stimulus","","","2","47","","","","","","","","","",""
"","","","","","","","","","","","canvas-button-response","427","649853","0.0-427.0","946","flower","","","","","","","","","","","","","","perceptual","","","2","47","","","","","200","flower","6","0","1",""
"","","","","","","","","","","","canvas-button-response","428","650653","0.0-428.0","797","8","","","","","","","","","","","","","","confidence","","","2","47","","","","","","","","","","34"
"","","","","","","","","","","","preload","429","650655","0.0-429.0","","","","","true","","","","","","","","","","","preload","","","2","48","false","[]","[]","[]","","","","","",""
"","","","","","","","","","","","canvas-keyboard-response","430","650969","0.0-430.0","null","null","","","","","","","","","","","","","","fixation","","","2","48","","","","","","","","","",""
"","","","","","","","","","","","canvas-keyboard-response","431","651273","0.0-431.0","null","null","","","","","","","","","","","","","","stimulus","","","2","48","","","","","","","","","",""
"","","","","","","","","","","","canvas-button-response","432","657765","0.0-432.0","6487","bed","","","","","","","","","","","","","","perceptual","","","2","48","","","","","159","bed","10","0","1",""
"","","","","","","","","","","","canvas-button-response","433","658486","0.0-433.0","718","2","","","","","","","","","","","","","","confidence","","","2","48","","","","","","","","","","35"
"","","","","","","","","","","","preload","434","658487","0.0-434.0","","","","","true","","","","","","","","","","","preload","","","2","49","false","[]","[]","[]","","","","","",""
"","","","","","","","","","","","canvas-keyboard-response","435","658803","0.0-435.0","null","null","","","","","","","","","","","","","","fixation","","","2","49","","","","","","","","","",""
"","","","","","","","","","","","canvas-keyboard-response","436","659106","0.0-436.0","null","null","","","","","","","","","","","","","","stimulus","","","2","49","","","","","","","","","",""
"","","","","","","","","","","","canvas-button-response","437","660698","0.0-437.0","1587","phone","","","","","","","","","","","","","","perceptual","","","2","49","","","","","142","bed","10","0","0",""
"","","","","","","","","","","","canvas-button-response","438","661534","0.0-438.0","832","2","","","","","","","","","","","","","","confidence","","","2","49","","","","","","","","","","35"
"","","","","","","","","","","","html-button-response","439","671886","0.0-439.0","10348","0","","","","","","","","","","","","","","<p style=""font-size:20px;color:#000000"">You got 35 out of 50 trials correct in this block.<br><br>You have completed 6% of the experiment.<br><br>Take a short break.<br><br>When you are ready, click Continue to proceed.","","","2","49","","","","","","","","","",""
"","","","","","","","","","","","html-keyboard-response","440","672899","0.0-440.0","null","null","","","","","","","","","","","","","","<p style=""font-size:32px;color:#000000""><br><br> RUN: &nbsp 1/4 <br><br> BLOCK: 2/4 ","","","2","49","","","","","","","","","",""
"","","","","","","","","","","","preload","441","672900","0.0-441.0","","","","","true","","","","","","","","","","","preload","","","2","50","false","[]","[]","[]","","","","","",""
"","","","","","","","","","","","canvas-keyboard-response","442","673205","0.0-442.0","null","null","","","","","","","","","","","","","","fixation","","","2","50","","","","","","","","","",""
"","","","","","","","","","","","canvas-keyboard-response","443","673512","0.0-443.0","null","null","","","","","","","","","","","","","","stimulus","","","2","50","","","","","","","","","",""
"","","","","","","","","","","","canvas-button-response","444","674119","0.0-444.0","604","knife","","","","","","","","","","","","","","perceptual","","","2","50","","","","","387","knife","10","0","1",""
"","","","","","","","","","","","canvas-button-response","445","675151","0.0-445.0","1029","10","","","","","","","","","","","","","","confidence","","","2","50","","","","","","","","","","1"
"","","","","","","","","","","","preload","446","675152","0.0-446.0","","","","","true","","","","","","","","","","","preload","","","2","51","false","[]","[]","[]","","","","","",""
"","","","","","","","","","","","canvas-keyboard-response","447","675459","0.0-447.0","null","null","","","","","","","","","","","","","","fixation","","","2","51","","","","","","","","","",""
"","","","","","","","","","","","canvas-keyboard-response","448","675772","0.0-448.0","null","null","","","","","","","","","","","","","","stimulus","","","2","51","","","","","","","","","",""
"","","","","","","","","","","","canvas-button-response","449","679868","0.0-449.0","4092","bed","","","","","","","","","","","","","","perceptual","","","2","51","","","","","34","house","10","0","0",""
"","","","","","","","","","","","canvas-button-response","450","680667","0.0-450.0","797","2","","","","","","","","","","","","","","confidence","","","2","51","","","","","","","","","","1"
"","","","","","","","","","","","preload","451","680669","0.0-451.0","","","","","true","","","","","","","","","","","preload","","","2","52","false","[]","[]","[]","","","","","",""
"","","","","","","","","","","","canvas-keyboard-response","452","680971","0.0-452.0","null","null","","","","","","","","","","","","","","fixation","","","2","52","","","","","","","","","",""
"","","","","","","","","","","","canvas-keyboard-response","453","681276","0.0-453.0","null","null","","","","","","","","","","","","","","stimulus","","","2","52","","","","","","","","","",""
"","","","","","","","","","","","canvas-button-response","454","682143","0.0-454.0","864","elephant","","","","","","","","","","","","","","perceptual","","","2","52","","","","","354","elephant","10","0","1",""
"","","","","","","","","","","","canvas-button-response","455","682978","0.0-455.0","832","5","","","","","","","","","","","","","","confidence","","","2","52","","","","","","","","","","2"
"","","","","","","","","","","","preload","456","682983","0.0-456.0","","","","","true","","","","","","","","","","","preload","","","2","53","false","[]","[]","[]","","","","","",""
"","","","","","","","","","","","canvas-keyboard-response","457","683292","0.0-457.0","null","null","","","","","","","","","","","","","","fixation","","","2","53","","","","","","","","","",""
"","","","","","","","","","","","canvas-keyboard-response","458","683605","0.0-458.0","null","null","","","","","","","","","","","","","","stimulus","","","2","53","","","","","","","","","",""
"","","","","","","","","","","","canvas-button-response","459","688668","0.0-459.0","5059","bed","","","","","","","","","","","","","","perceptual","","","2","53","","","","","231","flower","10","0","0",""
"","","","","","","","","","","","canvas-button-response","460","690298","0.0-460.0","1627","2","","","","","","","","","","","","","","confidence","","","2","53","","","","","","","","","","2"
"","","","","","","","","","","","preload","461","690299","0.0-461.0","","","","","true","","","","","","","","","","","preload","","","2","54","false","[]","[]","[]","","","","","",""
"","","","","","","","","","","","canvas-keyboard-response","462","690619","0.0-462.0","null","null","","","","","","","","","","","","","","fixation","","","2","54","","","","","","","","","",""
"","","","","","","","","","","","canvas-keyboard-response","463","690924","0.0-463.0","null","null","","","","","","","","","","","","","","stimulus","","","2","54","","","","","","","","","",""
"","","","","","","","","","","","canvas-button-response","464","693248","0.0-464.0","2320","bridge","","","","","","","","","","","","","","perceptual","","","2","54","","","","","388","knife","10","0","0",""
"","","","","","","","","","","","canvas-button-response","465","694617","0.0-465.0","1366","3","","","","","","","","","","","","","","confidence","","","2","54","","","","","","","","","","2"
"","","","","","","","","","","","preload","466","694618","0.0-466.0","","","","","true","","","","","","","","","","","preload","","","2","55","false","[]","[]","[]","","","","","",""
"","","","","","","","","","","","canvas-keyboard-response","467","694930","0.0-467.0","null","null","","","","","","","","","","","","","","fixation","","","2","55","","","","","","","","","",""
"","","","","","","","","","","","canvas-keyboard-response","468","695234","0.0-468.0","null","null","","","","","","","","","","","","","","stimulus","","","2","55","","","","","","","","","",""
"","","","","","","","","","","","canvas-button-response","469","697198","0.0-469.0","1958","car","","","","","","","","","","","","","","perceptual","","","2","55","","","","","36","house","10","0","0",""
"","","","","","","","","","","","canvas-button-response","470","698076","0.0-470.0","876","3","","","","","","","","","","","","","","confidence","","","2","55","","","","","","","","","","2"
"","","","","","","","","","","","preload","471","698077","0.0-471.0","","","","","true","","","","","","","","","","","preload","","","2","56","false","[]","[]","[]","","","","","",""
"","","","","","","","","","","","canvas-keyboard-response","472","698384","0.0-472.0","null","null","","","","","","","","","","","","","","fixation","","","2","56","","","","","","","","","",""
"","","","","","","","","","","","canvas-keyboard-response","473","698701","0.0-473.0","null","null","","","","","","","","","","","","","","stimulus","","","2","56","","","","","","","","","",""
"","","","","","","","","","","","canvas-button-response","474","700111","0.0-474.0","1407","cat","","","","","","","","","","","","","","perceptual","","","2","56","","","","","155","bed","10","0","0",""
"","","","","","","","","","","","canvas-button-response","475","700951","0.0-475.0","833","2","","","","","","","","","","","","","","confidence","","","2","56","","","","","","","","","","2"
"","","","","","","","","","","","preload","476","700952","0.0-476.0","","","","","true","","","","","","","","","","","preload","","","2","57","false","[]","[]","[]","","","","","",""
"","","","","","","","","","","","canvas-keyboard-response","477","701257","0.0-477.0","null","null","","","","","","","","","","","","","","fixation","","","2","57","","","","","","","","","",""
"","","","","","","","","","","","canvas-keyboard-response","478","701572","0.0-478.0","null","null","","","","","","","","","","","","","","stimulus","","","2","57","","","","","","","","","",""
"","","","","","","","","","","","canvas-button-response","479","702917","0.0-479.0","1340","phone","","","","","","","","","","","","","","perceptual","","","2","57","","","","","307","cat","10","0","0",""
"","","","","","","","","","","","canvas-button-response","480","703632","0.0-480.0","709","5","","","","","","","","","","","","","","confidence","","","2","57","","","","","","","","","","2"
"","","","","","","","","","","","preload","481","703635","0.0-481.0","","","","","true","","","","","","","","","","","preload","","","2","58","false","[]","[]","[]","","","","","",""
"","","","","","","","","","","","canvas-keyboard-response","482","703943","0.0-482.0","null","null","","","","","","","","","","","","","","fixation","","","2","58","","","","","","","","","",""
"","","","","","","","","","","","canvas-keyboard-response","483","704257","0.0-483.0","null","null","","","","","","","","","","","","","","stimulus","","","2","58","","","","","","","","","",""
"","","","","","","","","","","","canvas-button-response","484","705098","0.0-484.0","835","cat","","","","","","","","","","","","","","perceptual","","","2","58","","","","","299","cat","6","0","1",""
"","","","","","","","","","","","canvas-button-response","485","705860","0.0-485.0","759","10","","","","","","","","","","","","","","confidence","","","2","58","","","","","","","","","","3"
"","","","","","","","","","","","preload","486","705863","0.0-486.0","","","","","true","","","","","","","","","","","preload","","","2","59","false","[]","[]","[]","","","","","",""
"","","","","","","","","","","","canvas-keyboard-response","487","706170","0.0-487.0","null","null","","","","","","","","","","","","","","fixation","","","2","59","","","","","","","","","",""
"","","","","","","","","","","","canvas-keyboard-response","488","706474","0.0-488.0","null","null","","","","","","","","","","","","","","stimulus","","","2","59","","","","","","","","","",""
"","","","","","","","","","","","canvas-button-response","489","712025","0.0-489.0","5549","flower","","","","","","","","","","","","","","perceptual","","","2","59","","","","","146","bed","10","0","0",""
"","","","","","","","","","","","canvas-button-response","490","714268","0.0-490.0","2240","1","","","","","","","","","","","","","","confidence","","","2","59","","","","","","","","","","3"
"","","","","","","","","","","","preload","491","714269","0.0-491.0","","","","","true","","","","","","","","","","","preload","","","2","60","false","[]","[]","[]","","","","","",""
