"width","height","webaudio","browser","browser_version","mobile","os","fullscreen","vsync_rate","webcam","microphone","trial_type","trial_index","time_elapsed","internal_node_id","rt","response","accuracy","view_history","success","item_width_mm","item_height_mm","item_width_px","px2mm","view_dist_mm","item_width_deg","px2deg","scale_factor","win_width_deg","win_height_deg","stimulus","datetime","subjectID","curr_triallist","trial_no","timeout","failed_images","failed_audio","failed_video","image_index","category","blur","reps","correct","running_score"
"1335","852","true","firefox","142.0.0","false","Mac OS","true","60.54","true","true","browser-check","0","999","0.0-0.0","","","","","","","","","","","","","","","","","","","","","","","","","","","","","",""
"","","","","","","","","","","","survey","1","94241","0.0-1.0","93208","{""P0_Q0"":""903700769"",""P0_Q1"":""22"",""P1_Q0"":""Female"",""P1_Q1"":""Not Hispanic or Latino"",""P1_Q2"":""White"",""P1_Q3"":""Corrected-to-Normal (using glasses/contacts)"",""P1_Q4"":""Right-Handed""}","[]","","","","","","","","","","","","","","","","","","","","","","","","","","",""
"","","","","","","","","","","","instructions","2","217202","0.0-2.0","122959","","","[{""page_index"":0,""viewing_time"":54421},{""page_index"":1,""viewing_time"":8855},{""page_index"":2,""viewing_time"":23155},{""page_index"":3,""viewing_time"":36528}]","","","","","","","","","","","","","","","","","","","","","","","","","",""
"","","","","","","","","","","","fullscreen","3","220837","0.0-3.0","2613","","","","true","","","","","","","","","","","","","","","","","","","","","","","","",""
"","","","","","","","","","","","virtual-chinrest","4","369159","0.0-4.0","148319","","","","","85.6","53.98","337.535263480159","3.9405279596986","434.51","11.251175449338632","30","1.2739409671347606","49","30.666666666666668","","","","","","","","","","","","","","",""
"","","","","","","","","","","","instructions","5","402267","0.0-5.0","33104","","","[{""page_index"":0,""viewing_time"":8655},{""page_index"":1,""viewing_time"":2733},{""page_index"":2,""viewing_time"":3971},{""page_index"":3,""viewing_time"":1940},{""page_index"":4,""viewing_time"":2728},{""page_index"":5,""viewing_time"":11890},{""page_index"":6,""viewing_time"":1187}]","","","","","","","","","","","","","","","","","","","","","","","","","",""
"","","","","","","","","","","","html-button-response","6","405892","0.0-6.0","3621","0","","","","","","","","","","","","","","start_practice","Wed Oct 15 2025 20:40:24 GMT-0400 (Eastern Daylight Time)","19845","","","","","","","","","","","",""
"","","","","","","","","","","","preload","7","405893","0.0-7.0","","","","","true","","","","","","","","","","","preload","","","0","0","false","[]","[]","[]","","","","","",""
"","","","","","","","","","","","canvas-keyboard-response","8","406200","0.0-8.0","null","null","","","","","","","","","","","","","","fixation","","","0","0","","","","","","","","","",""
"","","","","","","","","","","","canvas-keyboard-response","9","406504","0.0-9.0","null","null","","","","","","","","","","","","","","stimulus","","","0","0","","","","","","","","","",""
"","","","","","","","","","","","canvas-button-response","10","409898","0.0-10.0","3390","house","","","","","","","","","","","","","","perceptual","","","0","0","","","","","52","flower","1","","0",""
"","","","","","","","","","","","canvas-button-response","11","412072","0.0-11.0","2170","6","","","","","","","","","","","","","","confidence","","","0","0","","","","","","","","","","0"
"","","","","","","","","","","","html-keyboard-response","12","413077","0.0-12.0","null","null","","","","","","","","","","","","","","feedback","Wed Oct 15 2025 20:40:34 GMT-0400 (Eastern Daylight Time)","19845","0","0","","","","","","","","","",""
"","","","","","","","","","","","preload","13","413079","0.0-13.0","","","","","true","","","","","","","","","","","preload","","","0","1","false","[]","[]","[]","","","","","",""
"","","","","","","","","","","","canvas-keyboard-response","14","413384","0.0-14.0","null","null","","","","","","","","","","","","","","fixation","","","0","1","","","","","","","","","",""
"","","","","","","","","","","","canvas-keyboard-response","15","413693","0.0-15.0","null","null","","","","","","","","","","","","","","stimulus","","","0","1","","","","","","","","","",""
"","","","","","","","","","","","canvas-button-response","16","414681","0.0-16.0","985","cat","","","","","","","","","","","","","","perceptual","","","0","1","","","","","72","cat","1","","1",""
"","","","","","","","","","","","canvas-button-response","17","415498","0.0-17.0","813","10","","","","","","","","","","","","","","confidence","","","0","1","","","","","","","","","","1"
"","","","","","","","","","","","html-keyboard-response","18","416515","0.0-18.0","null","null","","","","","","","","","","","","","","feedback","Wed Oct 15 2025 20:40:38 GMT-0400 (Eastern Daylight Time)","19845","0","1","","","","","","","","","",""
"","","","","","","","","","","","preload","19","416517","0.0-19.0","","","","","true","","","","","","","","","","","preload","","","0","2","false","[]","[]","[]","","","","","",""
"","","","","","","","","","","","canvas-keyboard-response","20","416823","0.0-20.0","null","null","","","","","","","","","","","","","","fixation","","","0","2","","","","","","","","","",""
"","","","","","","","","","","","canvas-keyboard-response","21","417130","0.0-21.0","null","null","","","","","","","","","","","","","","stimulus","","","0","2","","","","","","","","","",""
"","","","","","","","","","","","canvas-button-response","22","418445","0.0-22.0","1312","bed","","","","","","","","","","","","","","perceptual","","","0","2","","","","","32","bed","1","","1",""
"","","","","","","","","","","","canvas-button-response","23","420231","0.0-23.0","1784","10","","","","","","","","","","","","","","confidence","","","0","2","","","","","","","","","","2"
"","","","","","","","","","","","html-keyboard-response","24","421239","0.0-24.0","null","null","","","","","","","","","","","","","","feedback","Wed Oct 15 2025 20:40:42 GMT-0400 (Eastern Daylight Time)","19845","0","2","","","","","","","","","",""
"","","","","","","","","","","","preload","25","421240","0.0-25.0","","","","","true","","","","","","","","","","","preload","","","0","3","false","[]","[]","[]","","","","","",""
"","","","","","","","","","","","canvas-keyboard-response","26","421547","0.0-26.0","null","null","","","","","","","","","","","","","","fixation","","","0","3","","","","","","","","","",""
"","","","","","","","","","","","canvas-keyboard-response","27","421854","0.0-27.0","null","null","","","","","","","","","","","","","","stimulus","","","0","3","","","","","","","","","",""
"","","","","","","","","","","","canvas-button-response","28","430181","0.0-28.0","8324","train","","","","","","","","","","","","","","perceptual","","","0","3","","","","","82","elephant","1","","0",""
"","","","","","","","","","","","canvas-button-response","29","431713","0.0-29.0","1528","0","","","","","","","","","","","","","","confidence","","","0","3","","","","","","","","","","2"
"","","","","","","","","","","","html-keyboard-response","30","432715","0.0-30.0","null","null","","","","","","","","","","","","","","feedback","Wed Oct 15 2025 20:40:54 GMT-0400 (Eastern Daylight Time)","19845","0","3","","","","","","","","","",""
"","","","","","","","","","","","preload","31","432718","0.0-31.0","","","","","true","","","","","","","","","","","preload","","","0","4","false","[]","[]","[]","","","","","",""
"","","","","","","","","","","","canvas-keyboard-response","32","433024","0.0-32.0","null","null","","","","","","","","","","","","","","fixation","","","0","4","","","","","","","","","",""
"","","","","","","","","","","","canvas-keyboard-response","33","433334","0.0-33.0","null","null","","","","","","","","","","","","","","stimulus","","","0","4","","","","","","","","","",""
"","","","","","","","","","","","canvas-button-response","34","434564","0.0-34.0","1228","knife","","","","","","","","","","","","","","perceptual","","","0","4","","","","","92","knife","1","","1",""
"","","","","","","","","","","","canvas-button-response","35","435231","0.0-35.0","664","6","","","","","","","","","","","","","","confidence","","","0","4","","","","","","","","","","3"
"","","","","","","","","","","","html-keyboard-response","36","436237","0.0-36.0","null","null","","","","","","","","","","","","","","feedback","Wed Oct 15 2025 20:40:57 GMT-0400 (Eastern Daylight Time)","19845","0","4","","","","","","","","","",""
"","","","","","","","","","","","preload","37","436239","0.0-37.0","","","","","true","","","","","","","","","","","preload","","","0","5","false","[]","[]","[]","","","","","",""
"","","","","","","","","","","","canvas-keyboard-response","38","436543","0.0-38.0","null","null","","","","","","","","","","","","","","fixation","","","0","5","","","","","","","","","",""
"","","","","","","","","","","","canvas-keyboard-response","39","436850","0.0-39.0","null","null","","","","","","","","","","","","","","stimulus","","","0","5","","","","","","","","","",""
"","","","","","","","","","","","canvas-button-response","40","437999","0.0-40.0","1146","train","","","","","","","","","","","","","","perceptual","","","0","5","","","","","62","train","1","","1",""
"","","","","","","","","","","","canvas-button-response","41","438698","0.0-41.0","696","10","","","","","","","","","","","","","","confidence","","","0","5","","","","","","","","","","4"
"","","","","","","","","","","","html-keyboard-response","42","439749","0.0-42.0","null","null","","","","","","","","","","","","","","feedback","Wed Oct 15 2025 20:41:01 GMT-0400 (Eastern Daylight Time)","19845","0","5","","","","","","","","","",""
"","","","","","","","","","","","preload","43","439750","0.0-43.0","","","","","true","","","","","","","","","","","preload","","","0","6","false","[]","[]","[]","","","","","",""
"","","","","","","","","","","","canvas-keyboard-response","44","440056","0.0-44.0","null","null","","","","","","","","","","","","","","fixation","","","0","6","","","","","","","","","",""
"","","","","","","","","","","","canvas-keyboard-response","45","440364","0.0-45.0","null","null","","","","","","","","","","","","","","stimulus","","","0","6","","","","","","","","","",""
"","","","","","","","","","","","canvas-button-response","46","441647","0.0-46.0","1281","phone","","","","","","","","","","","","","","perceptual","","","0","6","","","","","22","phone","1","","1",""
"","","","","","","","","","","","canvas-button-response","47","442547","0.0-47.0","897","10","","","","","","","","","","","","","","confidence","","","0","6","","","","","","","","","","5"
"","","","","","","","","","","","html-keyboard-response","48","443556","0.0-48.0","null","null","","","","","","","","","","","","","","feedback","Wed Oct 15 2025 20:41:05 GMT-0400 (Eastern Daylight Time)","19845","0","6","","","","","","","","","",""
"","","","","","","","","","","","preload","49","443557","0.0-49.0","","","","","true","","","","","","","","","","","preload","","","0","7","false","[]","[]","[]","","","","","",""
"","","","","","","","","","","","canvas-keyboard-response","50","443865","0.0-50.0","null","null","","","","","","","","","","","","","","fixation","","","0","7","","","","","","","","","",""
"","","","","","","","","","","","canvas-keyboard-response","51","444172","0.0-51.0","null","null","","","","","","","","","","","","","","stimulus","","","0","7","","","","","","","","","",""
"","","","","","","","","","","","canvas-button-response","52","445531","0.0-52.0","1355","house","","","","","","","","","","","","","","perceptual","","","0","7","","","","","2","house","1","","1",""
"","","","","","","","","","","","canvas-button-response","53","446497","0.0-53.0","963","10","","","","","","","","","","","","","","confidence","","","0","7","","","","","","","","","","6"
"","","","","","","","","","","","html-keyboard-response","54","447514","0.0-54.0","null","null","","","","","","","","","","","","","","feedback","Wed Oct 15 2025 20:41:09 GMT-0400 (Eastern Daylight Time)","19845","0","7","","","","","","","","","",""
"","","","","","","","","","","","preload","55","447516","0.0-55.0","","","","","true","","","","","","","","","","","preload","","","0","8","false","[]","[]","[]","","","","","",""
"","","","","","","","","","","","canvas-keyboard-response","56","447822","0.0-56.0","null","null","","","","","","","","","","","","","","fixation","","","0","8","","","","","","","","","",""
"","","","","","","","","","","","canvas-keyboard-response","57","448127","0.0-57.0","null","null","","","","","","","","","","","","","","stimulus","","","0","8","","","","","","","","","",""
"","","","","","","","","","","","canvas-button-response","58","449161","0.0-58.0","1032","car","","","","","","","","","","","","","","perceptual","","","0","8","","","","","12","car","1","","1",""
"","","","","","","","","","","","canvas-button-response","59","449947","0.0-59.0","784","10","","","","","","","","","","","","","","confidence","","","0","8","","","","","","","","","","7"
"","","","","","","","","","","","html-keyboard-response","60","450954","0.0-60.0","null","null","","","","","","","","","","","","","","feedback","Wed Oct 15 2025 20:41:12 GMT-0400 (Eastern Daylight Time)","19845","0","8","","","","","","","","","",""
"","","","","","","","","","","","preload","61","450955","0.0-61.0","","","","","true","","","","","","","","","","","preload","","","0","9","false","[]","[]","[]","","","","","",""
"","","","","","","","","","","","canvas-keyboard-response","62","451258","0.0-62.0","null","null","","","","","","","","","","","","","","fixation","","","0","9","","","","","","","","","",""
"","","","","","","","","","","","canvas-keyboard-response","63","451560","0.0-63.0","null","null","","","","","","","","","","","","","","stimulus","","","0","9","","","","","","","","","",""
"","","","","","","","","","","","canvas-button-response","64","454614","0.0-64.0","3052","bridge","","","","","","","","","","","","","","perceptual","","","0","9","","","","","42","bridge","1","","1",""
"","","","","","","","","","","","canvas-button-response","65","455479","0.0-65.0","862","10","","","","","","","","","","","","","","confidence","","","0","9","","","","","","","","","","8"
"","","","","","","","","","","","html-keyboard-response","66","456481","0.0-66.0","null","null","","","","","","","","","","","","","","feedback","Wed Oct 15 2025 20:41:18 GMT-0400 (Eastern Daylight Time)","19845","0","9","","","","","","","","","",""
"","","","","","","","","","","","html-button-response","67","462746","0.0-67.0","6263","0","","","","","","","","","","","","","","start_practice","Wed Oct 15 2025 20:41:19 GMT-0400 (Eastern Daylight Time)","19845","0","9","","","","","","","","","",""
"","","","","","","","","","","","preload","68","462747","0.0-68.0","","","","","true","","","","","","","","","","","preload","","","1","0","false","[]","[]","[]","","","","","",""
"","","","","","","","","","","","canvas-keyboard-response","69","463053","0.0-69.0","null","null","","","","","","","","","","","","","","fixation","","","1","0","","","","","","","","","",""
"","","","","","","","","","","","canvas-keyboard-response","70","463357","0.0-70.0","null","null","","","","","","","","","","","","","","stimulus","","","1","0","","","","","","","","","",""
"","","","","","","","","","","","canvas-button-response","71","468547","0.0-71.0","5186","knife","","","","","","","","","","","","","","perceptual","","","1","0","","","","","67","train","10","","0",""
"","","","","","","","","","","","canvas-button-response","72","469297","0.0-72.0","747","0","","","","","","","","","","","","","","confidence","","","1","0","","","","","","","","","","0"
"","","","","","","","","","","","html-keyboard-response","73","470305","0.0-73.0","null","null","","","","","","","","","","","","","","feedback","Wed Oct 15 2025 20:41:31 GMT-0400 (Eastern Daylight Time)","19845","1","0","","","","","","","","","",""
"","","","","","","","","","","","preload","74","470307","0.0-74.0","","","","","true","","","","","","","","","","","preload","","","1","1","false","[]","[]","[]","","","","","",""
"","","","","","","","","","","","canvas-keyboard-response","75","470612","0.0-75.0","null","null","","","","","","","","","","","","","","fixation","","","1","1","","","","","","","","","",""
"","","","","","","","","","","","canvas-keyboard-response","76","470919","0.0-76.0","null","null","","","","","","","","","","","","","","stimulus","","","1","1","","","","","","","","","",""
"","","","","","","","","","","","canvas-button-response","77","472514","0.0-77.0","1592","house","","","","","","","","","","","","","","perceptual","","","1","1","","","","","57","flower","10","","0",""
"","","","","","","","","","","","canvas-button-response","78","473249","0.0-78.0","730","0","","","","","","","","","","","","","","confidence","","","1","1","","","","","","","","","","0"
"","","","","","","","","","","","html-keyboard-response","79","474255","0.0-79.0","null","null","","","","","","","","","","","","","","feedback","Wed Oct 15 2025 20:41:35 GMT-0400 (Eastern Daylight Time)","19845","1","1","","","","","","","","","",""
"","","","","","","","","","","","preload","80","474257","0.0-80.0","","","","","true","","","","","","","","","","","preload","","","1","2","false","[]","[]","[]","","","","","",""
"","","","","","","","","","","","canvas-keyboard-response","81","474563","0.0-81.0","null","null","","","","","","","","","","","","","","fixation","","","1","2","","","","","","","","","",""
"","","","","","","","","","","","canvas-keyboard-response","82","474871","0.0-82.0","null","null","","","","","","","","","","","","","","stimulus","","","1","2","","","","","","","","","",""
"","","","","","","","","","","","canvas-button-response","83","475947","0.0-83.0","1073","train","","","","","","","","","","","","","","perceptual","","","1","2","","","","","64","train","6","","1",""
"","","","","","","","","","","","canvas-button-response","84","477214","0.0-84.0","1263","9","","","","","","","","","","","","","","confidence","","","1","2","","","","","","","","","","1"
"","","","","","","","","","","","html-keyboard-response","85","478282","0.0-85.0","null","null","","","","","","","","","","","","","","feedback","Wed Oct 15 2025 20:41:39 GMT-0400 (Eastern Daylight Time)","19845","1","2","","","","","","","","","",""
"","","","","","","","","","","","preload","86","478283","0.0-86.0","","","","","true","","","","","","","","","","","preload","","","1","3","false","[]","[]","[]","","","","","",""
"","","","","","","","","","","","canvas-keyboard-response","87","478589","0.0-87.0","null","null","","","","","","","","","","","","","","fixation","","","1","3","","","","","","","","","",""
"","","","","","","","","","","","canvas-keyboard-response","88","478898","0.0-88.0","null","null","","","","","","","","","","","","","","stimulus","","","1","3","","","","","","","","","",""
"","","","","","","","","","","","canvas-button-response","89","480315","0.0-89.0","1410","cat","","","","","","","","","","","","","","perceptual","","","1","3","","","","","47","bridge","10","","0",""
"","","","","","","","","","","","canvas-button-response","90","481347","0.0-90.0","1029","4","","","","","","","","","","","","","","confidence","","","1","3","","","","","","","","","","1"
"","","","","","","","","","","","html-keyboard-response","91","482424","0.0-91.0","null","null","","","","","","","","","","","","","","feedback","Wed Oct 15 2025 20:41:43 GMT-0400 (Eastern Daylight Time)","19845","1","3","","","","","","","","","",""
"","","","","","","","","","","","preload","92","482426","0.0-92.0","","","","","true","","","","","","","","","","","preload","","","1","4","false","[]","[]","[]","","","","","",""
"","","","","","","","","","","","canvas-keyboard-response","93","482747","0.0-93.0","null","null","","","","","","","","","","","","","","fixation","","","1","4","","","","","","","","","",""
"","","","","","","","","","","","canvas-keyboard-response","94","483063","0.0-94.0","null","null","","","","","","","","","","","","","","stimulus","","","1","4","","","","","","","","","",""
"","","","","","","","","","","","canvas-button-response","95","484380","0.0-95.0","1315","car","","","","","","","","","","","","","","perceptual","","","1","4","","","","","14","car","6","","1",""
"","","","","","","","","","","","canvas-button-response","96","485148","0.0-96.0","766","0","","","","","","","","","","","","","","confidence","","","1","4","","","","","","","","","","2"
"","","","","","","","","","","","html-keyboard-response","97","486151","0.0-97.0","null","null","","","","","","","","","","","","","","feedback","Wed Oct 15 2025 20:41:47 GMT-0400 (Eastern Daylight Time)","19845","1","4","","","","","","","","","",""
"","","","","","","","","","","","preload","98","486153","0.0-98.0","","","","","true","","","","","","","","","","","preload","","","1","5","false","[]","[]","[]","","","","","",""
"","","","","","","","","","","","canvas-keyboard-response","99","486456","0.0-99.0","null","null","","","","","","","","","","","","","","fixation","","","1","5","","","","","","","","","",""
"","","","","","","","","","","","canvas-keyboard-response","100","486768","0.0-100.0","null","null","","","","","","","","","","","","","","stimulus","","","1","5","","","","","","","","","",""
"","","","","","","","","","","","canvas-button-response","101","487662","0.0-101.0","891","knife","","","","","","","","","","","","","","perceptual","","","1","5","","","","","17","car","10","","0",""
"","","","","","","","","","","","canvas-button-response","102","488514","0.0-102.0","851","0","","","","","","","","","","","","","","confidence","","","1","5","","","","","","","","","","2"
"","","","","","","","","","","","html-keyboard-response","103","489521","0.0-103.0","null","null","","","","","","","","","","","","","","feedback","Wed Oct 15 2025 20:41:51 GMT-0400 (Eastern Daylight Time)","19845","1","5","","","","","","","","","",""
"","","","","","","","","","","","preload","104","489523","0.0-104.0","","","","","true","","","","","","","","","","","preload","","","1","6","false","[]","[]","[]","","","","","",""
"","","","","","","","","","","","canvas-keyboard-response","105","489832","0.0-105.0","null","null","","","","","","","","","","","","","","fixation","","","1","6","","","","","","","","","",""
"","","","","","","","","","","","canvas-keyboard-response","106","490140","0.0-106.0","null","null","","","","","","","","","","","","","","stimulus","","","1","6","","","","","","","","","",""
"","","","","","","","","","","","canvas-button-response","107","491131","0.0-107.0","988","bed","","","","","","","","","","","","","","perceptual","","","1","6","","","","","34","bed","6","","1",""
"","","","","","","","","","","","canvas-button-response","108","491947","0.0-108.0","814","9","","","","","","","","","","","","","","confidence","","","1","6","","","","","","","","","","3"
"","","","","","","","","","","","html-keyboard-response","109","492965","0.0-109.0","null","null","","","","","","","","","","","","","","feedback","Wed Oct 15 2025 20:41:54 GMT-0400 (Eastern Daylight Time)","19845","1","6","","","","","","","","","",""
"","","","","","","","","","","","preload","110","492967","0.0-110.0","","","","","true","","","","","","","","","","","preload","","","1","7","false","[]","[]","[]","","","","","",""
"","","","","","","","","","","","canvas-keyboard-response","111","493274","0.0-111.0","null","null","","","","","","","","","","","","","","fixation","","","1","7","","","","","","","","","",""
"","","","","","","","","","","","canvas-keyboard-response","112","493580","0.0-112.0","null","null","","","","","","","","","","","","","","stimulus","","","1","7","","","","","","","","","",""
"","","","","","","","","","","","canvas-button-response","113","494916","0.0-113.0","1332","house","","","","","","","","","","","","","","perceptual","","","1","7","","","","","4","house","6","","1",""
"","","","","","","","","","","","canvas-button-response","114","495698","0.0-114.0","779","10","","","","","","","","","","","","","","confidence","","","1","7","","","","","","","","","","4"
"","","","","","","","","","","","html-keyboard-response","115","496707","0.0-115.0","null","null","","","","","","","","","","","","","","feedback","Wed Oct 15 2025 20:41:58 GMT-0400 (Eastern Daylight Time)","19845","1","7","","","","","","","","","",""
"","","","","","","","","","","","preload","116","496709","0.0-116.0","","","","","true","","","","","","","","","","","preload","","","1","8","false","[]","[]","[]","","","","","",""
"","","","","","","","","","","","canvas-keyboard-response","117","497016","0.0-117.0","null","null","","","","","","","","","","","","","","fixation","","","1","8","","","","","","","","","",""
"","","","","","","","","","","","canvas-keyboard-response","118","497318","0.0-118.0","null","null","","","","","","","","","","","","","","stimulus","","","1","8","","","","","","","","","",""
"","","","","","","","","","","","canvas-button-response","119","498815","0.0-119.0","1494","cat","","","","","","","","","","","","","","perceptual","","","1","8","","","","","74","cat","6","","1",""
"","","","","","","","","","","","canvas-button-response","120","499947","0.0-120.0","1130","8","","","","","","","","","","","","","","confidence","","","1","8","","","","","","","","","","5"
"","","","","","","","","","","","html-keyboard-response","121","500954","0.0-121.0","null","null","","","","","","","","","","","","","","feedback","Wed Oct 15 2025 20:42:02 GMT-0400 (Eastern Daylight Time)","19845","1","8","","","","","","","","","",""
"","","","","","","","","","","","preload","122","500956","0.0-122.0","","","","","true","","","","","","","","","","","preload","","","1","9","false","[]","[]","[]","","","","","",""
"","","","","","","","","","","","canvas-keyboard-response","123","501265","0.0-123.0","null","null","","","","","","","","","","","","","","fixation","","","1","9","","","","","","","","","",""
"","","","","","","","","","","","canvas-keyboard-response","124","501571","0.0-124.0","null","null","","","","","","","","","","","","","","stimulus","","","1","9","","","","","","","","","",""
"","","","","","","","","","","","canvas-button-response","125","502631","0.0-125.0","1058","bridge","","","","","","","","","","","","","","perceptual","","","1","9","","","","","44","bridge","6","","1",""
"","","","","","","","","","","","canvas-button-response","126","503814","0.0-126.0","1180","3","","","","","","","","","","","","","","confidence","","","1","9","","","","","","","","","","6"
"","","","","","","","","","","","html-keyboard-response","127","504819","0.0-127.0","null","null","","","","","","","","","","","","","","feedback","Wed Oct 15 2025 20:42:06 GMT-0400 (Eastern Daylight Time)","19845","1","9","","","","","","","","","",""
"","","","","","","","","","","","preload","128","504820","0.0-128.0","","","","","true","","","","","","","","","","","preload","","","1","10","false","[]","[]","[]","","","","","",""
"","","","","","","","","","","","canvas-keyboard-response","129","505126","0.0-129.0","null","null","","","","","","","","","","","","","","fixation","","","1","10","","","","","","","","","",""
"","","","","","","","","","","","canvas-keyboard-response","130","505444","0.0-130.0","null","null","","","","","","","","","","","","","","stimulus","","","1","10","","","","","","","","","",""
"","","","","","","","","","","","canvas-button-response","131","509481","0.0-131.0","4033","house","","","","","","","","","","","","","","perceptual","","","1","10","","","","","94","knife","6","","0",""
"","","","","","","","","","","","canvas-button-response","132","510446","0.0-132.0","963","1","","","","","","","","","","","","","","confidence","","","1","10","","","","","","","","","","6"
"","","","","","","","","","","","html-keyboard-response","133","511452","0.0-133.0","null","null","","","","","","","","","","","","","","feedback","Wed Oct 15 2025 20:42:13 GMT-0400 (Eastern Daylight Time)","19845","1","10","","","","","","","","","",""
"","","","","","","","","","","","preload","134","511453","0.0-134.0","","","","","true","","","","","","","","","","","preload","","","1","11","false","[]","[]","[]","","","","","",""
"","","","","","","","","","","","canvas-keyboard-response","135","511755","0.0-135.0","null","null","","","","","","","","","","","","","","fixation","","","1","11","","","","","","","","","",""
"","","","","","","","","","","","canvas-keyboard-response","136","512084","0.0-136.0","null","null","","","","","","","","","","","","","","stimulus","","","1","11","","","","","","","","","",""
"","","","","","","","","","","","canvas-button-response","137","538130","0.0-137.0","26043","flower","","","","","","","","","","","","","","perceptual","","","1","11","","","","","27","phone","10","","0",""
"","","","","","","","","","","","canvas-button-response","138","539875","0.0-138.0","1740","0","","","","","","","","","","","","","","confidence","","","1","11","","","","","","","","","","6"
"","","","","","","","","","","","html-keyboard-response","139","540884","0.0-139.0","null","null","","","","","","","","","","","","","","feedback","Wed Oct 15 2025 20:42:42 GMT-0400 (Eastern Daylight Time)","19845","1","11","","","","","","","","","",""
"","","","","","","","","","","","preload","140","540886","0.0-140.0","","","","","true","","","","","","","","","","","preload","","","1","12","false","[]","[]","[]","","","","","",""
"","","","","","","","","","","","canvas-keyboard-response","141","541189","0.0-141.0","null","null","","","","","","","","","","","","","","fixation","","","1","12","","","","","","","","","",""
"","","","","","","","","","","","canvas-keyboard-response","142","541499","0.0-142.0","null","null","","","","","","","","","","","","","","stimulus","","","1","12","","","","","","","","","",""
"","","","","","","","","","","","canvas-button-response","143","542547","0.0-143.0","1043","bridge","","","","","","","","","","","","","","perceptual","","","1","12","","","","","7","house","10","","0",""
"","","","","","","","","","","","canvas-button-response","144","543696","0.0-144.0","1145","0","","","","","","","","","","","","","","confidence","","","1","12","","","","","","","","","","6"
"","","","","","","","","","","","html-keyboard-response","145","544703","0.0-145.0","null","null","","","","","","","","","","","","","","feedback","Wed Oct 15 2025 20:42:46 GMT-0400 (Eastern Daylight Time)","19845","1","12","","","","","","","","","",""
"","","","","","","","","","","","preload","146","544705","0.0-146.0","","","","","true","","","","","","","","","","","preload","","","1","13","false","[]","[]","[]","","","","","",""
"","","","","","","","","","","","canvas-keyboard-response","147","545007","0.0-147.0","null","null","","","","","","","","","","","","","","fixation","","","1","13","","","","","","","","","",""
"","","","","","","","","","","","canvas-keyboard-response","148","545314","0.0-148.0","null","null","","","","","","","","","","","","","","stimulus","","","1","13","","","","","","","","","",""
"","","","","","","","","","","","canvas-button-response","149","546298","0.0-149.0","980","elephant","","","","","","","","","","","","","","perceptual","","","1","13","","","","","84","elephant","6","","1",""
"","","","","","","","","","","","canvas-button-response","150","547434","0.0-150.0","1134","3","","","","","","","","","","","","","","confidence","","","1","13","","","","","","","","","","7"
"","","","","","","","","","","","html-keyboard-response","151","548442","0.0-151.0","null","null","","","","","","","","","","","","","","feedback","Wed Oct 15 2025 20:42:50 GMT-0400 (Eastern Daylight Time)","19845","1","13","","","","","","","","","",""
"","","","","","","","","","","","preload","152","548444","0.0-152.0","","","","","true","","","","","","","","","","","preload","","","1","14","false","[]","[]","[]","","","","","",""
"","","","","","","","","","","","canvas-keyboard-response","153","548751","0.0-153.0","null","null","","","","","","","","","","","","","","fixation","","","1","14","","","","","","","","","",""
"","","","","","","","","","","","canvas-keyboard-response","154","549058","0.0-154.0","null","null","","","","","","","","","","","","","","stimulus","","","1","14","","","","","","","","","",""
"","","","","","","","","","","","canvas-button-response","155","576329","0.0-155.0","27268","bed","","","","","","","","","","","","","","perceptual","","","1","14","","","","","37","bed","10","","1",""
"","","","","","","","","","","","canvas-button-response","156","577514","0.0-156.0","1183","0","","","","","","","","","","","","","","confidence","","","1","14","","","","","","","","","","8"
"","","","","","","","","","","","html-keyboard-response","157","578521","0.0-157.0","null","null","","","","","","","","","","","","","","feedback","Wed Oct 15 2025 20:43:20 GMT-0400 (Eastern Daylight Time)","19845","1","14","","","","","","","","","",""
"","","","","","","","","","","","preload","158","578521","0.0-158.0","","","","","true","","","","","","","","","","","preload","","","1","15","false","[]","[]","[]","","","","","",""
"","","","","","","","","","","","canvas-keyboard-response","159","578827","0.0-159.0","null","null","","","","","","","","","","","","","","fixation","","","1","15","","","","","","","","","",""
"","","","","","","","","","","","canvas-keyboard-response","160","579131","0.0-160.0","null","null","","","","","","","","","","","","","","stimulus","","","1","15","","","","","","","","","",""
"","","","","","","","","","","","canvas-button-response","161","580162","0.0-161.0","1029","phone","","","","","","","","","","","","","","perceptual","","","1","15","","","","","24","phone","6","","1",""
"","","","","","","","","","","","canvas-button-response","162","581197","0.0-162.0","1031","9","","","","","","","","","","","","","","confidence","","","1","15","","","","","","","","","","9"
"","","","","","","","","","","","html-keyboard-response","163","582201","0.0-163.0","null","null","","","","","","","","","","","","","","feedback","Wed Oct 15 2025 20:43:23 GMT-0400 (Eastern Daylight Time)","19845","1","15","","","","","","","","","",""
"","","","","","","","","","","","preload","164","582202","0.0-164.0","","","","","true","","","","","","","","","","","preload","","","1","16","false","[]","[]","[]","","","","","",""
"","","","","","","","","","","","canvas-keyboard-response","165","582512","0.0-165.0","null","null","","","","","","","","","","","","","","fixation","","","1","16","","","","","","","","","",""
"","","","","","","","","","","","canvas-keyboard-response","166","582820","0.0-166.0","null","null","","","","","","","","","","","","","","stimulus","","","1","16","","","","","","","","","",""
"","","","","","","","","","","","canvas-button-response","167","583714","0.0-167.0","890","knife","","","","","","","","","","","","","","perceptual","","","1","16","","","","","97","knife","10","","1",""
"","","","","","","","","","","","canvas-button-response","168","584864","0.0-168.0","1147","10","","","","","","","","","","","","","","confidence","","","1","16","","","","","","","","","","10"
"","","","","","","","","","","","html-keyboard-response","169","585872","0.0-169.0","null","null","","","","","","","","","","","","","","feedback","Wed Oct 15 2025 20:43:27 GMT-0400 (Eastern Daylight Time)","19845","1","16","","","","","","","","","",""
"","","","","","","","","","","","preload","170","585873","0.0-170.0","","","","","true","","","","","","","","","","","preload","","","1","17","false","[]","[]","[]","","","","","",""
"","","","","","","","","","","","canvas-keyboard-response","171","586181","0.0-171.0","null","null","","","","","","","","","","","","","","fixation","","","1","17","","","","","","","","","",""
"","","","","","","","","","","","canvas-keyboard-response","172","586487","0.0-172.0","null","null","","","","","","","","","","","","","","stimulus","","","1","17","","","","","","","","","",""
"","","","","","","","","","","","canvas-button-response","173","588446","0.0-173.0","1958","cat","","","","","","","","","","","","","","perceptual","","","1","17","","","","","87","elephant","10","","0",""
"","","","","","","","","","","","canvas-button-response","174","589412","0.0-174.0","962","1","","","","","","","","","","","","","","confidence","","","1","17","","","","","","","","","","10"
"","","","","","","","","","","","html-keyboard-response","175","590449","0.0-175.0","null","null","","","","","","","","","","","","","","feedback","Wed Oct 15 2025 20:43:32 GMT-0400 (Eastern Daylight Time)","19845","1","17","","","","","","","","","",""
"","","","","","","","","","","","preload","176","590451","0.0-176.0","","","","","true","","","","","","","","","","","preload","","","1","18","false","[]","[]","[]","","","","","",""
"","","","","","","","","","","","canvas-keyboard-response","177","590754","0.0-177.0","null","null","","","","","","","","","","","","","","fixation","","","1","18","","","","","","","","","",""
"","","","","","","","","","","","canvas-keyboard-response","178","591059","0.0-178.0","null","null","","","","","","","","","","","","","","stimulus","","","1","18","","","","","","","","","",""
"","","","","","","","","","","","canvas-button-response","179","592729","0.0-179.0","1668","cat","","","","","","","","","","","","","","perceptual","","","1","18","","","","","77","cat","10","","1",""
"","","","","","","","","","","","canvas-button-response","180","593763","0.0-180.0","1031","5","","","","","","","","","","","","","","confidence","","","1","18","","","","","","","","","","11"
"","","","","","","","","","","","html-keyboard-response","181","594830","0.0-181.0","null","null","","","","","","","","","","","","","","feedback","Wed Oct 15 2025 20:43:36 GMT-0400 (Eastern Daylight Time)","19845","1","18","","","","","","","","","",""
"","","","","","","","","","","","preload","182","594831","0.0-182.0","","","","","true","","","","","","","","","","","preload","","","1","19","false","[]","[]","[]","","","","","",""
"","","","","","","","","","","","canvas-keyboard-response","183","595155","0.0-183.0","null","null","","","","","","","","","","","","","","fixation","","","1","19","","","","","","","","","",""
"","","","","","","","","","","","canvas-keyboard-response","184","595463","0.0-184.0","null","null","","","","","","","","","","","","","","stimulus","","","1","19","","","","","","","","","",""
"","","","","","","","","","","","canvas-button-response","185","596580","0.0-185.0","1116","flower","","","","","","","","","","","","","","perceptual","","","1","19","","","","","54","flower","6","","1",""
"","","","","","","","","","","","canvas-button-response","186","597464","0.0-186.0","880","9","","","","","","","","","","","","","","confidence","","","1","19","","","","","","","","","","12"
"","","","","","","","","","","","html-keyboard-response","187","598471","0.0-187.0","null","null","","","","","","","","","","","","","","feedback","Wed Oct 15 2025 20:43:40 GMT-0400 (Eastern Daylight Time)","19845","1","19","","","","","","","","","",""
"","","","","","","","","","","","html-button-response","188","633382","0.0-188.0","34908","0","","","","","","","","","","","","","","start experiment","Wed Oct 15 2025 20:43:41 GMT-0400 (Eastern Daylight Time)","19845","1","19","","","","","","","","","",""
"","","","","","","","","","","","preload","189","633384","0.0-189.0","","","","","true","","","","","","","","","","","preload","","","2","0","false","[]","[]","[]","","","","","",""
"","","","","","","","","","","","canvas-keyboard-response","190","633687","0.0-190.0","null","null","","","","","","","","","","","","","","fixation","","","2","0","","","","","","","","","",""
"","","","","","","","","","","","canvas-keyboard-response","191","633997","0.0-191.0","null","null","","","","","","","","","","","","","","stimulus","","","2","0","","","","","","","","","",""
"","","","","","","","","","","","canvas-button-response","192","635479","0.0-192.0","1479","house","","","","","","","","","","","","","","perceptual","","","2","0","","","","","162","bridge","6","0","0",""
"","","","","","","","","","","","canvas-button-response","193","636297","0.0-193.0","815","8","","","","","","","","","","","","","","confidence","","","2","0","","","","","","","","","","0"
"","","","","","","","","","","","preload","194","636298","0.0-194.0","","","","","true","","","","","","","","","","","preload","","","2","1","false","[]","[]","[]","","","","","",""
"","","","","","","","","","","","canvas-keyboard-response","195","636605","0.0-195.0","null","null","","","","","","","","","","","","","","fixation","","","2","1","","","","","","","","","",""
"","","","","","","","","","","","canvas-keyboard-response","196","636920","0.0-196.0","null","null","","","","","","","","","","","","","","stimulus","","","2","1","","","","","","","","","",""
"","","","","","","","","","","","canvas-button-response","197","640731","0.0-197.0","3809","house","","","","","","","","","","","","","","perceptual","","","2","1","","","","","168","bridge","6","0","0",""
"","","","","","","","","","","","canvas-button-response","198","641664","0.0-198.0","930","4","","","","","","","","","","","","","","confidence","","","2","1","","","","","","","","","","0"
"","","","","","","","","","","","preload","199","641666","0.0-199.0","","","","","true","","","","","","","","","","","preload","","","2","2","false","[]","[]","[]","","","","","",""
"","","","","","","","","","","","canvas-keyboard-response","200","641971","0.0-200.0","null","null","","","","","","","","","","","","","","fixation","","","2","2","","","","","","","","","",""
"","","","","","","","","","","","canvas-keyboard-response","201","642277","0.0-201.0","null","null","","","","","","","","","","","","","","stimulus","","","2","2","","","","","","","","","",""
"","","","","","","","","","","","canvas-button-response","202","643396","0.0-202.0","1117","car","","","","","","","","","","","","","","perceptual","","","2","2","","","","","46","car","6","0","1",""
"","","","","","","","","","","","canvas-button-response","203","644195","0.0-203.0","796","9","","","","","","","","","","","","","","confidence","","","2","2","","","","","","","","","","1"
"","","","","","","","","","","","preload","204","644196","0.0-204.0","","","","","true","","","","","","","","","","","preload","","","2","3","false","[]","[]","[]","","","","","",""
"","","","","","","","","","","","canvas-keyboard-response","205","644499","0.0-205.0","null","null","","","","","","","","","","","","","","fixation","","","2","3","","","","","","","","","",""
"","","","","","","","","","","","canvas-keyboard-response","206","644806","0.0-206.0","null","null","","","","","","","","","","","","","","stimulus","","","2","3","","","","","","","","","",""
"","","","","","","","","","","","canvas-button-response","207","646063","0.0-207.0","1254","flower","","","","","","","","","","","","","","perceptual","","","2","3","","","","","224","flower","10","0","1",""
"","","","","","","","","","","","canvas-button-response","208","646999","0.0-208.0","931","6","","","","","","","","","","","","","","confidence","","","2","3","","","","","","","","","","2"
"","","","","","","","","","","","preload","209","647003","0.0-209.0","","","","","true","","","","","","","","","","","preload","","","2","4","false","[]","[]","[]","","","","","",""
"","","","","","","","","","","","canvas-keyboard-response","210","647308","0.0-210.0","null","null","","","","","","","","","","","","","","fixation","","","2","4","","","","","","","","","",""
"","","","","","","","","","","","canvas-keyboard-response","211","647616","0.0-211.0","null","null","","","","","","","","","","","","","","stimulus","","","2","4","","","","","","","","","",""
"","","","","","","","","","","","canvas-button-response","212","649015","0.0-212.0","1397","knife","","","","","","","","","","","","","","perceptual","","","2","4","","","","","373","knife","6","0","1",""
"","","","","","","","","","","","canvas-button-response","213","649963","0.0-213.0","945","2","","","","","","","","","","","","","","confidence","","","2","4","","","","","","","","","","3"
"","","","","","","","","","","","preload","214","649965","0.0-214.0","","","","","true","","","","","","","","","","","preload","","","2","5","false","[]","[]","[]","","","","","",""
"","","","","","","","","","","","canvas-keyboard-response","215","650271","0.0-215.0","null","null","","","","","","","","","","","","","","fixation","","","2","5","","","","","","","","","",""
"","","","","","","","","","","","canvas-keyboard-response","216","650578","0.0-216.0","null","null","","","","","","","","","","","","","","stimulus","","","2","5","","","","","","","","","",""
"","","","","","","","","","","","canvas-button-response","217","651579","0.0-217.0","998","cat","","","","","","","","","","","","","","perceptual","","","2","5","","","","","85","phone","6","0","0",""
"","","","","","","","","","","","canvas-button-response","218","651730","0.0-218.0","148","7","","","","","","","","","","","","","","confidence","","","2","5","","","","","","","","","","3"
"","","","","","","","","","","","preload","219","651733","0.0-219.0","","","","","true","","","","","","","","","","","preload","","","2","6","false","[]","[]","[]","","","","","",""
"","","","","","","","","","","","canvas-keyboard-response","220","652040","0.0-220.0","null","null","","","","","","","","","","","","","","fixation","","","2","6","","","","","","","","","",""
"","","","","","","","","","","","canvas-keyboard-response","221","652343","0.0-221.0","null","null","","","","","","","","","","","","","","stimulus","","","2","6","","","","","","","","","",""
"","","","","","","","","","","","canvas-button-response","222","654748","0.0-222.0","2401","house","","","","","","","","","","","","","","perceptual","","","2","6","","","","","261","train","10","0","0",""
"","","","","","","","","","","","canvas-button-response","223","655464","0.0-223.0","713","3","","","","","","","","","","","","","","confidence","","","2","6","","","","","","","","","","3"
"","","","","","","","","","","","preload","224","655466","0.0-224.0","","","","","true","","","","","","","","","","","preload","","","2","7","false","[]","[]","[]","","","","","",""
"","","","","","","","","","","","canvas-keyboard-response","225","655772","0.0-225.0","null","null","","","","","","","","","","","","","","fixation","","","2","7","","","","","","","","","",""
"","","","","","","","","","","","canvas-keyboard-response","226","656078","0.0-226.0","null","null","","","","","","","","","","","","","","stimulus","","","2","7","","","","","","","","","",""
"","","","","","","","","","","","canvas-button-response","227","659781","0.0-227.0","3699","bridge","","","","","","","","","","","","","","perceptual","","","2","7","","","","","249","train","6","0","0",""
"","","","","","","","","","","","canvas-button-response","228","660496","0.0-228.0","712","0","","","","","","","","","","","","","","confidence","","","2","7","","","","","","","","","","3"
"","","","","","","","","","","","preload","229","660498","0.0-229.0","","","","","true","","","","","","","","","","","preload","","","2","8","false","[]","[]","[]","","","","","",""
"","","","","","","","","","","","canvas-keyboard-response","230","660804","0.0-230.0","null","null","","","","","","","","","","","","","","fixation","","","2","8","","","","","","","","","",""
"","","","","","","","","","","","canvas-keyboard-response","231","661115","0.0-231.0","null","null","","","","","","","","","","","","","","stimulus","","","2","8","","","","","","","","","",""
"","","","","","","","","","","","canvas-button-response","232","662613","0.0-232.0","1494","bridge","","","","","","","","","","","","","","perceptual","","","2","8","","","","","163","bridge","6","0","1",""
"","","","","","","","","","","","canvas-button-response","233","664213","0.0-233.0","1598","10","","","","","","","","","","","","","","confidence","","","2","8","","","","","","","","","","4"
"","","","","","","","","","","","preload","234","664214","0.0-234.0","","","","","true","","","","","","","","","","","preload","","","2","9","false","[]","[]","[]","","","","","",""
"","","","","","","","","","","","canvas-keyboard-response","235","664520","0.0-235.0","null","null","","","","","","","","","","","","","","fixation","","","2","9","","","","","","","","","",""
"","","","","","","","","","","","canvas-keyboard-response","236","664826","0.0-236.0","null","null","","","","","","","","","","","","","","stimulus","","","2","9","","","","","","","","","",""
"","","","","","","","","","","","canvas-button-response","237","671863","0.0-237.0","7035","elephant","","","","","","","","","","","","","","perceptual","","","2","9","","","","","107","phone","10","0","0",""
"","","","","","","","","","","","canvas-button-response","238","672896","0.0-238.0","1028","1","","","","","","","","","","","","","","confidence","","","2","9","","","","","","","","","","4"
"","","","","","","","","","","","preload","239","672898","0.0-239.0","","","","","true","","","","","","","","","","","preload","","","2","10","false","[]","[]","[]","","","","","",""
"","","","","","","","","","","","canvas-keyboard-response","240","673203","0.0-240.0","null","null","","","","","","","","","","","","","","fixation","","","2","10","","","","","","","","","",""
"","","","","","","","","","","","canvas-keyboard-response","241","673509","0.0-241.0","null","null","","","","","","","","","","","","","","stimulus","","","2","10","","","","","","","","","",""
"","","","","","","","","","","","canvas-button-response","242","676013","0.0-242.0","2501","bridge","","","","","","","","","","","","","","perceptual","","","2","10","","","","","293","cat","6","0","0",""
"","","","","","","","","","","","canvas-button-response","243","676829","0.0-243.0","813","0","","","","","","","","","","","","","","confidence","","","2","10","","","","","","","","","","4"
"","","","","","","","","","","","preload","244","676830","0.0-244.0","","","","","true","","","","","","","","","","","preload","","","2","11","false","[]","[]","[]","","","","","",""
"","","","","","","","","","","","canvas-keyboard-response","245","677134","0.0-245.0","null","null","","","","","","","","","","","","","","fixation","","","2","11","","","","","","","","","",""
"","","","","","","","","","","","canvas-keyboard-response","246","677440","0.0-246.0","null","null","","","","","","","","","","","","","","stimulus","","","2","11","","","","","","","","","",""
"","","","","","","","","","","","canvas-button-response","247","678496","0.0-247.0","1052","knife","","","","","","","","","","","","","","perceptual","","","2","11","","","","","392","knife","10","0","1",""
"","","","","","","","","","","","canvas-button-response","248","679264","0.0-248.0","764","1","","","","","","","","","","","","","","confidence","","","2","11","","","","","","","","","","5"
"","","","","","","","","","","","preload","249","679265","0.0-249.0","","","","","true","","","","","","","","","","","preload","","","2","12","false","[]","[]","[]","","","","","",""
"","","","","","","","","","","","canvas-keyboard-response","250","679571","0.0-250.0","null","null","","","","","","","","","","","","","","fixation","","","2","12","","","","","","","","","",""
"","","","","","","","","","","","canvas-keyboard-response","251","679876","0.0-251.0","null","null","","","","","","","","","","","","","","stimulus","","","2","12","","","","","","","","","",""
"","","","","","","","","","","","canvas-button-response","252","680612","0.0-252.0","733","knife","","","","","","","","","","","","","","perceptual","","","2","12","","","","","361","knife","6","0","1",""
"","","","","","","","","","","","canvas-button-response","253","681396","0.0-253.0","780","9","","","","","","","","","","","","","","confidence","","","2","12","","","","","","","","","","6"
"","","","","","","","","","","","preload","254","681398","0.0-254.0","","","","","true","","","","","","","","","","","preload","","","2","13","false","[]","[]","[]","","","","","",""
"","","","","","","","","","","","canvas-keyboard-response","255","681701","0.0-255.0","null","null","","","","","","","","","","","","","","fixation","","","2","13","","","","","","","","","",""
"","","","","","","","","","","","canvas-keyboard-response","256","682007","0.0-256.0","null","null","","","","","","","","","","","","","","stimulus","","","2","13","","","","","","","","","",""
"","","","","","","","","","","","canvas-button-response","257","684094","0.0-257.0","2084","house","","","","","","","","","","","","","","perceptual","","","2","13","","","","","22","house","10","0","1",""
"","","","","","","","","","","","canvas-button-response","258","684844","0.0-258.0","749","1","","","","","","","","","","","","","","confidence","","","2","13","","","","","","","","","","7"
"","","","","","","","","","","","preload","259","684845","0.0-259.0","","","","","true","","","","","","","","","","","preload","","","2","14","false","[]","[]","[]","","","","","",""
"","","","","","","","","","","","canvas-keyboard-response","260","685151","0.0-260.0","null","null","","","","","","","","","","","","","","fixation","","","2","14","","","","","","","","","",""
"","","","","","","","","","","","canvas-keyboard-response","261","685456","0.0-261.0","null","null","","","","","","","","","","","","","","stimulus","","","2","14","","","","","","","","","",""
"","","","","","","","","","","","canvas-button-response","262","686313","0.0-262.0","854","knife","","","","","","","","","","","","","","perceptual","","","2","14","","","","","393","knife","10","0","1",""
"","","","","","","","","","","","canvas-button-response","263","687046","0.0-263.0","731","7","","","","","","","","","","","","","","confidence","","","2","14","","","","","","","","","","8"
"","","","","","","","","","","","preload","264","687048","0.0-264.0","","","","","true","","","","","","","","","","","preload","","","2","15","false","[]","[]","[]","","","","","",""
"","","","","","","","","","","","canvas-keyboard-response","265","687352","0.0-265.0","null","null","","","","","","","","","","","","","","fixation","","","2","15","","","","","","","","","",""
"","","","","","","","","","","","canvas-keyboard-response","266","687667","0.0-266.0","null","null","","","","","","","","","","","","","","stimulus","","","2","15","","","","","","","","","",""
"","","","","","","","","","","","canvas-button-response","267","689111","0.0-267.0","1441","house","","","","","","","","","","","","","","perceptual","","","2","15","","","","","258","train","6","0","0",""
"","","","","","","","","","","","canvas-button-response","268","690111","0.0-268.0","999","6","","","","","","","","","","","","","","confidence","","","2","15","","","","","","","","","","8"
"","","","","","","","","","","","preload","269","690112","0.0-269.0","","","","","true","","","","","","","","","","","preload","","","2","16","false","[]","[]","[]","","","","","",""
"","","","","","","","","","","","canvas-keyboard-response","270","690416","0.0-270.0","null","null","","","","","","","","","","","","","","fixation","","","2","16","","","","","","","","","",""
"","","","","","","","","","","","canvas-keyboard-response","271","690722","0.0-271.0","null","null","","","","","","","","","","","","","","stimulus","","","2","16","","","","","","","","","",""
"","","","","","","","","","","","canvas-button-response","272","691979","0.0-272.0","1253","bridge","","","","","","","","","","","","","","perceptual","","","2","16","","","","","150","bed","10","0","0",""
"","","","","","","","","","","","canvas-button-response","273","692779","0.0-273.0","797","0","","","","","","","","","","","","","","confidence","","","2","16","","","","","","","","","","8"
"","","","","","","","","","","","preload","274","692781","0.0-274.0","","","","","true","","","","","","","","","","","preload","","","2","17","false","[]","[]","[]","","","","","",""
"","","","","","","","","","","","canvas-keyboard-response","275","693088","0.0-275.0","null","null","","","","","","","","","","","","","","fixation","","","2","17","","","","","","","","","",""
"","","","","","","","","","","","canvas-keyboard-response","276","693402","0.0-276.0","null","null","","","","","","","","","","","","","","stimulus","","","2","17","","","","","","","","","",""
"","","","","","","","","","","","canvas-button-response","277","705476","0.0-277.0","12072","car","","","","","","","","","","","","","","perceptual","","","2","17","","","","","301","cat","10","0","0",""
"","","","","","","","","","","","canvas-button-response","278","706379","0.0-278.0","899","0","","","","","","","","","","","","","","confidence","","","2","17","","","","","","","","","","8"
"","","","","","","","","","","","preload","279","706382","0.0-279.0","","","","","true","","","","","","","","","","","preload","","","2","18","false","[]","[]","[]","","","","","",""
"","","","","","","","","","","","canvas-keyboard-response","280","706689","0.0-280.0","null","null","","","","","","","","","","","","","","fixation","","","2","18","","","","","","","","","",""
"","","","","","","","","","","","canvas-keyboard-response","281","706992","0.0-281.0","null","null","","","","","","","","","","","","","","stimulus","","","2","18","","","","","","","","","",""
"","","","","","","","","","","","canvas-button-response","282","708162","0.0-282.0","1166","elephant","","","","","","","","","","","","","","perceptual","","","2","18","","","","","287","cat","6","0","0",""
"","","","","","","","","","","","canvas-button-response","283","709130","0.0-283.0","966","4","","","","","","","","","","","","","","confidence","","","2","18","","","","","","","","","","8"
"","","","","","","","","","","","preload","284","709131","0.0-284.0","","","","","true","","","","","","","","","","","preload","","","2","19","false","[]","[]","[]","","","","","",""
"","","","","","","","","","","","canvas-keyboard-response","285","709436","0.0-285.0","null","null","","","","","","","","","","","","","","fixation","","","2","19","","","","","","","","","",""
"","","","","","","","","","","","canvas-keyboard-response","286","709740","0.0-286.0","null","null","","","","","","","","","","","","","","stimulus","","","2","19","","","","","","","","","",""
"","","","","","","","","","","","canvas-button-response","287","710729","0.0-287.0","986","house","","","","","","","","","","","","","","perceptual","","","2","19","","","","","18","house","6","0","1",""
"","","","","","","","","","","","canvas-button-response","288","711496","0.0-288.0","763","9","","","","","","","","","","","","","","confidence","","","2","19","","","","","","","","","","9"
"","","","","","","","","","","","preload","289","711498","0.0-289.0","","","","","true","","","","","","","","","","","preload","","","2","20","false","[]","[]","[]","","","","","",""
"","","","","","","","","","","","canvas-keyboard-response","290","711804","0.0-290.0","null","null","","","","","","","","","","","","","","fixation","","","2","20","","","","","","","","","",""
"","","","","","","","","","","","canvas-keyboard-response","291","712111","0.0-291.0","null","null","","","","","","","","","","","","","","stimulus","","","2","20","","","","","","","","","",""
"","","","","","","","","","","","canvas-button-response","292","713046","0.0-292.0","932","house","","","","","","","","","","","","","","perceptual","","","2","20","","","","","12","house","6","0","1",""
"","","","","","","","","","","","canvas-button-response","293","713863","0.0-293.0","814","9","","","","","","","","","","","","","","confidence","","","2","20","","","","","","","","","","10"
"","","","","","","","","","","","preload","294","713865","0.0-294.0","","","","","true","","","","","","","","","","","preload","","","2","21","false","[]","[]","[]","","","","","",""
"","","","","","","","","","","","canvas-keyboard-response","295","714167","0.0-295.0","null","null","","","","","","","","","","","","","","fixation","","","2","21","","","","","","","","","",""
"","","","","","","","","","","","canvas-keyboard-response","296","714474","0.0-296.0","null","null","","","","","","","","","","","","","","stimulus","","","2","21","","","","","","","","","",""
"","","","","","","","","","","","canvas-button-response","297","716945","0.0-297.0","2467","cat","","","","","","","","","","","","","","perceptual","","","2","21","","","","","195","bridge","10","0","0",""
"","","","","","","","","","","","canvas-button-response","298","717853","0.0-298.0","905","1","","","","","","","","","","","","","","confidence","","","2","21","","","","","","","","","","10"
"","","","","","","","","","","","preload","299","717853","0.0-299.0","","","","","true","","","","","","","","","","","preload","","","2","22","false","[]","[]","[]","","","","","",""
"","","","","","","","","","","","canvas-keyboard-response","300","718158","0.0-300.0","null","null","","","","","","","","","","","","","","fixation","","","2","22","","","","","","","","","",""
"","","","","","","","","","","","canvas-keyboard-response","301","718474","0.0-301.0","null","null","","","","","","","","","","","","","","stimulus","","","2","22","","","","","","","","","",""
"","","","","","","","","","","","canvas-button-response","302","719480","0.0-302.0","1002","bridge","","","","","","","","","","","","","","perceptual","","","2","22","","","","","166","bridge","6","0","1",""
"","","","","","","","","","","","canvas-button-response","303","720380","0.0-303.0","896","7","","","","","","","","","","","","","","confidence","","","2","22","","","","","","","","","","11"
"","","","","","","","","","","","preload","304","720382","0.0-304.0","","","","","true","","","","","","","","","","","preload","","","2","23","false","[]","[]","[]","","","","","",""
"","","","","","","","","","","","canvas-keyboard-response","305","720688","0.0-305.0","null","null","","","","","","","","","","","","","","fixation","","","2","23","","","","","","","","","",""
"","","","","","","","","","","","canvas-keyboard-response","306","720995","0.0-306.0","null","null","","","","","","","","","","","","","","stimulus","","","2","23","","","","","","","","","",""
"","","","","","","","","","","","canvas-button-response","307","721827","0.0-307.0","830","knife","","","","","","","","","","","","","","perceptual","","","2","23","","","","","374","knife","6","0","1",""
"","","","","","","","","","","","canvas-button-response","308","722510","0.0-308.0","681","7","","","","","","","","","","","","","","confidence","","","2","23","","","","","","","","","","12"
"","","","","","","","","","","","preload","309","722511","0.0-309.0","","","","","true","","","","","","","","","","","preload","","","2","24","false","[]","[]","[]","","","","","",""
"","","","","","","","","","","","canvas-keyboard-response","310","722816","0.0-310.0","null","null","","","","","","","","","","","","","","fixation","","","2","24","","","","","","","","","",""
"","","","","","","","","","","","canvas-keyboard-response","311","723121","0.0-311.0","null","null","","","","","","","","","","","","","","stimulus","","","2","24","","","","","","","","","",""
"","","","","","","","","","","","canvas-button-response","312","723963","0.0-312.0","838","cat","","","","","","","","","","","","","","perceptual","","","2","24","","","","","304","cat","10","0","1",""
"","","","","","","","","","","","canvas-button-response","313","724630","0.0-313.0","664","9","","","","","","","","","","","","","","confidence","","","2","24","","","","","","","","","","13"
"","","","","","","","","","","","preload","314","724631","0.0-314.0","","","","","true","","","","","","","","","","","preload","","","2","25","false","[]","[]","[]","","","","","",""
"","","","","","","","","","","","canvas-keyboard-response","315","724949","0.0-315.0","null","null","","","","","","","","","","","","","","fixation","","","2","25","","","","","","","","","",""
"","","","","","","","","","","","canvas-keyboard-response","316","725256","0.0-316.0","null","null","","","","","","","","","","","","","","stimulus","","","2","25","","","","","","","","","",""
"","","","","","","","","","","","canvas-button-response","317","726263","0.0-317.0","1003","train","","","","","","","","","","","","","","perceptual","","","2","25","","","","","273","train","10","0","1",""
"","","","","","","","","","","","canvas-button-response","318","726813","0.0-318.0","547","10","","","","","","","","","","","","","","confidence","","","2","25","","","","","","","","","","14"
"","","","","","","","","","","","preload","319","726815","0.0-319.0","","","","","true","","","","","","","","","","","preload","","","2","26","false","[]","[]","[]","","","","","",""
"","","","","","","","","","","","canvas-keyboard-response","320","727123","0.0-320.0","null","null","","","","","","","","","","","","","","fixation","","","2","26","","","","","","","","","",""
"","","","","","","","","","","","canvas-keyboard-response","321","727430","0.0-321.0","null","null","","","","","","","","","","","","","","stimulus","","","2","26","","","","","","","","","",""
"","","","","","","","","","","","canvas-button-response","322","728297","0.0-322.0","863","house","","","","","","","","","","","","","","perceptual","","","2","26","","","","","17","house","6","0","1",""
"","","","","","","","","","","","canvas-button-response","323","729246","0.0-323.0","947","10","","","","","","","","","","","","","","confidence","","","2","26","","","","","","","","","","15"
"","","","","","","","","","","","preload","324","729248","0.0-324.0","","","","","true","","","","","","","","","","","preload","","","2","27","false","[]","[]","[]","","","","","",""
"","","","","","","","","","","","canvas-keyboard-response","325","729555","0.0-325.0","null","null","","","","","","","","","","","","","","fixation","","","2","27","","","","","","","","","",""
"","","","","","","","","","","","canvas-keyboard-response","326","729858","0.0-326.0","null","null","","","","","","","","","","","","","","stimulus","","","2","27","","","","","","","","","",""
"","","","","","","","","","","","canvas-button-response","327","730963","0.0-327.0","1101","bridge","","","","","","","","","","","","","","perceptual","","","2","27","","","","","170","bridge","6","0","1",""
"","","","","","","","","","","","canvas-button-response","328","731730","0.0-328.0","764","5","","","","","","","","","","","","","","confidence","","","2","27","","","","","","","","","","16"
"","","","","","","","","","","","preload","329","731732","0.0-329.0","","","","","true","","","","","","","","","","","preload","","","2","28","false","[]","[]","[]","","","","","",""
"","","","","","","","","","","","canvas-keyboard-response","330","732037","0.0-330.0","null","null","","","","","","","","","","","","","","fixation","","","2","28","","","","","","","","","",""
"","","","","","","","","","","","canvas-keyboard-response","331","732344","0.0-331.0","null","null","","","","","","","","","","","","","","stimulus","","","2","28","","","","","","","","","",""
"","","","","","","","","","","","canvas-button-response","332","736046","0.0-332.0","3698","flower","","","","","","","","","","","","","","perceptual","","","2","28","","","","","277","train","10","0","0",""
"","","","","","","","","","","","canvas-button-response","333","736897","0.0-333.0","849","0","","","","","","","","","","","","","","confidence","","","2","28","","","","","","","","","","16"
"","","","","","","","","","","","preload","334","736898","0.0-334.0","","","","","true","","","","","","","","","","","preload","","","2","29","false","[]","[]","[]","","","","","",""
"","","","","","","","","","","","canvas-keyboard-response","335","737207","0.0-335.0","null","null","","","","","","","","","","","","","","fixation","","","2","29","","","","","","","","","",""
"","","","","","","","","","","","canvas-keyboard-response","336","737516","0.0-336.0","null","null","","","","","","","","","","","","","","stimulus","","","2","29","","","","","","","","","",""
"","","","","","","","","","","","canvas-button-response","337","739487","0.0-337.0","1967","cat","","","","","","","","","","","","","","perceptual","","","2","29","","","","","313","cat","10","0","1",""
"","","","","","","","","","","","canvas-button-response","338","740196","0.0-338.0","707","1","","","","","","","","","","","","","","confidence","","","2","29","","","","","","","","","","17"
"","","","","","","","","","","","preload","339","740198","0.0-339.0","","","","","true","","","","","","","","","","","preload","","","2","30","false","[]","[]","[]","","","","","",""
"","","","","","","","","","","","canvas-keyboard-response","340","740502","0.0-340.0","null","null","","","","","","","","","","","","","","fixation","","","2","30","","","","","","","","","",""
"","","","","","","","","","","","canvas-keyboard-response","341","740809","0.0-341.0","null","null","","","","","","","","","","","","","","stimulus","","","2","30","","","","","","","","","",""
"","","","","","","","","","","","canvas-button-response","342","742062","0.0-342.0","1250","cat","","","","","","","","","","","","","","perceptual","","","2","30","","","","","281","cat","6","0","1",""
"","","","","","","","","","","","canvas-button-response","343","743079","0.0-343.0","1014","3","","","","","","","","","","","","","","confidence","","","2","30","","","","","","","","","","18"
"","","","","","","","","","","","preload","344","743080","0.0-344.0","","","","","true","","","","","","","","","","","preload","","","2","31","false","[]","[]","[]","","","","","",""
"","","","","","","","","","","","canvas-keyboard-response","345","743387","0.0-345.0","null","null","","","","","","","","","","","","","","fixation","","","2","31","","","","","","","","","",""
"","","","","","","","","","","","canvas-keyboard-response","346","743693","0.0-346.0","null","null","","","","","","","","","","","","","","stimulus","","","2","31","","","","","","","","","",""
"","","","","","","","","","","","canvas-button-response","347","746545","0.0-347.0","2849","flower","","","","","","","","","","","","","","perceptual","","","2","31","","","","","372","knife","6","0","0",""
"","","","","","","","","","","","canvas-button-response","348","747544","0.0-348.0","997","3","","","","","","","","","","","","","","confidence","","","2","31","","","","","","","","","","18"
"","","","","","","","","","","","preload","349","747545","0.0-349.0","","","","","true","","","","","","","","","","","preload","","","2","32","false","[]","[]","[]","","","","","",""
"","","","","","","","","","","","canvas-keyboard-response","350","747850","0.0-350.0","null","null","","","","","","","","","","","","","","fixation","","","2","32","","","","","","","","","",""
"","","","","","","","","","","","canvas-keyboard-response","351","748159","0.0-351.0","null","null","","","","","","","","","","","","","","stimulus","","","2","32","","","","","","","","","",""
"","","","","","","","","","","","canvas-button-response","352","749863","0.0-352.0","1701","car","","","","","","","","","","","","","","perceptual","","","2","32","","","","","327","elephant","6","0","0",""
"","","","","","","","","","","","canvas-button-response","353","750646","0.0-353.0","780","1","","","","","","","","","","","","","","confidence","","","2","32","","","","","","","","","","18"
"","","","","","","","","","","","preload","354","750648","0.0-354.0","","","","","true","","","","","","","","","","","preload","","","2","33","false","[]","[]","[]","","","","","",""
"","","","","","","","","","","","canvas-keyboard-response","355","750954","0.0-355.0","null","null","","","","","","","","","","","","","","fixation","","","2","33","","","","","","","","","",""
"","","","","","","","","","","","canvas-keyboard-response","356","751261","0.0-356.0","null","null","","","","","","","","","","","","","","stimulus","","","2","33","","","","","","","","","",""
"","","","","","","","","","","","canvas-button-response","357","752695","0.0-357.0","1430","elephant","","","","","","","","","","","","","","perceptual","","","2","33","","","","","348","elephant","10","0","1",""
"","","","","","","","","","","","canvas-button-response","358","753461","0.0-358.0","763","4","","","","","","","","","","","","","","confidence","","","2","33","","","","","","","","","","19"
"","","","","","","","","","","","preload","359","753462","0.0-359.0","","","","","true","","","","","","","","","","","preload","","","2","34","false","[]","[]","[]","","","","","",""
"","","","","","","","","","","","canvas-keyboard-response","360","753769","0.0-360.0","null","null","","","","","","","","","","","","","","fixation","","","2","34","","","","","","","","","",""
"","","","","","","","","","","","canvas-keyboard-response","361","754075","0.0-361.0","null","null","","","","","","","","","","","","","","stimulus","","","2","34","","","","","","","","","",""
"","","","","","","","","","","","canvas-button-response","362","755096","0.0-362.0","1017","house","","","","","","","","","","","","","","perceptual","","","2","34","","","","","16","house","6","0","1",""
"","","","","","","","","","","","canvas-button-response","363","755913","0.0-363.0","814","10","","","","","","","","","","","","","","confidence","","","2","34","","","","","","","","","","20"
"","","","","","","","","","","","preload","364","755914","0.0-364.0","","","","","true","","","","","","","","","","","preload","","","2","35","false","[]","[]","[]","","","","","",""
"","","","","","","","","","","","canvas-keyboard-response","365","756221","0.0-365.0","null","null","","","","","","","","","","","","","","fixation","","","2","35","","","","","","","","","",""
"","","","","","","","","","","","canvas-keyboard-response","366","756529","0.0-366.0","null","null","","","","","","","","","","","","","","stimulus","","","2","35","","","","","","","","","",""
"","","","","","","","","","","","canvas-button-response","367","757629","0.0-367.0","1097","car","","","","","","","","","","","","","","perceptual","","","2","35","","","","","70","car","10","0","1",""
"","","","","","","","","","","","canvas-button-response","368","758246","0.0-368.0","613","10","","","","","","","","","","","","","","confidence","","","2","35","","","","","","","","","","21"
"","","","","","","","","","","","preload","369","758248","0.0-369.0","","","","","true","","","","","","","","","","","preload","","","2","36","false","[]","[]","[]","","","","","",""
"","","","","","","","","","","","canvas-keyboard-response","370","758555","0.0-370.0","null","null","","","","","","","","","","","","","","fixation","","","2","36","","","","","","","","","",""
"","","","","","","","","","","","canvas-keyboard-response","371","758859","0.0-371.0","null","null","","","","","","","","","","","","","","stimulus","","","2","36","","","","","","","","","",""
"","","","","","","","","","","","canvas-button-response","372","760196","0.0-372.0","1334","house","","","","","","","","","","","","","","perceptual","","","2","36","","","","","20","house","10","0","1",""
"","","","","","","","","","","","canvas-button-response","373","760763","0.0-373.0","563","4","","","","","","","","","","","","","","confidence","","","2","36","","","","","","","","","","22"
"","","","","","","","","","","","preload","374","760764","0.0-374.0","","","","","true","","","","","","","","","","","preload","","","2","37","false","[]","[]","[]","","","","","",""
"","","","","","","","","","","","canvas-keyboard-response","375","761073","0.0-375.0","null","null","","","","","","","","","","","","","","fixation","","","2","37","","","","","","","","","",""
"","","","","","","","","","","","canvas-keyboard-response","376","761376","0.0-376.0","null","null","","","","","","","","","","","","","","stimulus","","","2","37","","","","","","","","","",""
"","","","","","","","","","","","canvas-button-response","377","762278","0.0-377.0","900","cat","","","","","","","","","","","","","","perceptual","","","2","37","","","","","299","cat","6","0","1",""
"","","","","","","","","","","","canvas-button-response","378","763062","0.0-378.0","780","10","","","","","","","","","","","","","","confidence","","","2","37","","","","","","","","","","23"
"","","","","","","","","","","","preload","379","763063","0.0-379.0","","","","","true","","","","","","","","","","","preload","","","2","38","false","[]","[]","[]","","","","","",""
"","","","","","","","","","","","canvas-keyboard-response","380","763372","0.0-380.0","null","null","","","","","","","","","","","","","","fixation","","","2","38","","","","","","","","","",""
"","","","","","","","","","","","canvas-keyboard-response","381","763679","0.0-381.0","null","null","","","","","","","","","","","","","","stimulus","","","2","38","","","","","","","","","",""
"","","","","","","","","","","","canvas-button-response","382","764662","0.0-382.0","980","bed","","","","","","","","","","","","","","perceptual","","","2","38","","","","","156","bed","10","0","1",""
"","","","","","","","","","","","canvas-button-response","383","765594","0.0-383.0","929","10","","","","","","","","","","","","","","confidence","","","2","38","","","","","","","","","","24"
"","","","","","","","","","","","preload","384","765594","0.0-384.0","","","","","true","","","","","","","","","","","preload","","","2","39","false","[]","[]","[]","","","","","",""
"","","","","","","","","","","","canvas-keyboard-response","385","765900","0.0-385.0","null","null","","","","","","","","","","","","","","fixation","","","2","39","","","","","","","","","",""
"","","","","","","","","","","","canvas-keyboard-response","386","766217","0.0-386.0","null","null","","","","","","","","","","","","","","stimulus","","","2","39","","","","","","","","","",""
"","","","","","","","","","","","canvas-button-response","387","767161","0.0-387.0","942","phone","","","","","","","","","","","","","","perceptual","","","2","39","","","","","82","phone","6","0","1",""
"","","","","","","","","","","","canvas-button-response","388","767827","0.0-388.0","663","10","","","","","","","","","","","","","","confidence","","","2","39","","","","","","","","","","25"
"","","","","","","","","","","","preload","389","767829","0.0-389.0","","","","","true","","","","","","","","","","","preload","","","2","40","false","[]","[]","[]","","","","","",""
"","","","","","","","","","","","canvas-keyboard-response","390","768133","0.0-390.0","null","null","","","","","","","","","","","","","","fixation","","","2","40","","","","","","","","","",""
"","","","","","","","","","","","canvas-keyboard-response","391","768437","0.0-391.0","null","null","","","","","","","","","","","","","","stimulus","","","2","40","","","","","","","","","",""
"","","","","","","","","","","","canvas-button-response","392","770245","0.0-392.0","1809","cat","","","","","","","","","","","","","","perceptual","","","2","40","","","","","353","elephant","10","0","0",""
"","","","","","","","","","","","canvas-button-response","393","770995","0.0-393.0","746","2","","","","","","","","","","","","","","confidence","","","2","40","","","","","","","","","","25"
"","","","","","","","","","","","preload","394","770997","0.0-394.0","","","","","true","","","","","","","","","","","preload","","","2","41","false","[]","[]","[]","","","","","",""
"","","","","","","","","","","","canvas-keyboard-response","395","771300","0.0-395.0","null","null","","","","","","","","","","","","","","fixation","","","2","41","","","","","","","","","",""
"","","","","","","","","","","","canvas-keyboard-response","396","771606","0.0-396.0","null","null","","","","","","","","","","","","","","stimulus","","","2","41","","","","","","","","","",""
"","","","","","","","","","","","canvas-button-response","397","772977","0.0-397.0","1369","knife","","","","","","","","","","","","","","perceptual","","","2","41","","","","","367","knife","6","0","1",""
"","","","","","","","","","","","canvas-button-response","398","773828","0.0-398.0","848","4","","","","","","","","","","","","","","confidence","","","2","41","","","","","","","","","","26"
"","","","","","","","","","","","preload","399","773830","0.0-399.0","","","","","true","","","","","","","","","","","preload","","","2","42","false","[]","[]","[]","","","","","",""
"","","","","","","","","","","","canvas-keyboard-response","400","774136","0.0-400.0","null","null","","","","","","","","","","","","","","fixation","","","2","42","","","","","","","","","",""
"","","","","","","","","","","","canvas-keyboard-response","401","774455","0.0-401.0","null","null","","","","","","","","","","","","","","stimulus","","","2","42","","","","","","","","","",""
"","","","","","","","","","","","canvas-button-response","402","776145","0.0-402.0","1687","house","","","","","","","","","","","","","","perceptual","","","2","42","","","","","26","house","10","0","1",""
"","","","","","","","","","","","canvas-button-response","403","776780","0.0-403.0","632","3","","","","","","","","","","","","","","confidence","","","2","42","","","","","","","","","","27"
"","","","","","","","","","","","preload","404","776782","0.0-404.0","","","","","true","","","","","","","","","","","preload","","","2","43","false","[]","[]","[]","","","","","",""
"","","","","","","","","","","","canvas-keyboard-response","405","777084","0.0-405.0","null","null","","","","","","","","","","","","","","fixation","","","2","43","","","","","","","","","",""
"","","","","","","","","","","","canvas-keyboard-response","406","777392","0.0-406.0","null","null","","","","","","","","","","","","","","stimulus","","","2","43","","","","","","","","","",""
"","","","","","","","","","","","canvas-button-response","407","786695","0.0-407.0","9301","bridge","","","","","","","","","","","","","","perceptual","","","2","43","","","","","125","bed","6","0","0",""
"","","","","","","","","","","","canvas-button-response","408","787446","0.0-408.0","748","1","","","","","","","","","","","","","","confidence","","","2","43","","","","","","","","","","27"
"","","","","","","","","","","","preload","409","787448","0.0-409.0","","","","","true","","","","","","","","","","","preload","","","2","44","false","[]","[]","[]","","","","","",""
"","","","","","","","","","","","canvas-keyboard-response","410","787750","0.0-410.0","null","null","","","","","","","","","","","","","","fixation","","","2","44","","","","","","","","","",""
"","","","","","","","","","","","canvas-keyboard-response","411","788053","0.0-411.0","null","null","","","","","","","","","","","","","","stimulus","","","2","44","","","","","","","","","",""
"","","","","","","","","","","","canvas-button-response","412","791112","0.0-412.0","3056","house","","","","","","","","","","","","","","perceptual","","","2","44","","","","","140","bed","10","0","0",""
"","","","","","","","","","","","canvas-button-response","413","791896","0.0-413.0","780","2","","","","","","","","","","","","","","confidence","","","2","44","","","","","","","","","","27"
"","","","","","","","","","","","preload","414","791898","0.0-414.0","","","","","true","","","","","","","","","","","preload","","","2","45","false","[]","[]","[]","","","","","",""
"","","","","","","","","","","","canvas-keyboard-response","415","792204","0.0-415.0","null","null","","","","","","","","","","","","","","fixation","","","2","45","","","","","","","","","",""
"","","","","","","","","","","","canvas-keyboard-response","416","792511","0.0-416.0","null","null","","","","","","","","","","","","","","stimulus","","","2","45","","","","","","","","","",""
"","","","","","","","","","","","canvas-button-response","417","793879","0.0-417.0","1366","bridge","","","","","","","","","","","","","","perceptual","","","2","45","","","","","175","bridge","6","0","1",""
"","","","","","","","","","","","canvas-button-response","418","794495","0.0-418.0","613","2","","","","","","","","","","","","","","confidence","","","2","45","","","","","","","","","","28"
"","","","","","","","","","","","preload","419","794496","0.0-419.0","","","","","true","","","","","","","","","","","preload","","","2","46","false","[]","[]","[]","","","","","",""
"","","","","","","","","","","","canvas-keyboard-response","420","794802","0.0-420.0","null","null","","","","","","","","","","","","","","fixation","","","2","46","","","","","","","","","",""
"","","","","","","","","","","","canvas-keyboard-response","421","795109","0.0-421.0","null","null","","","","","","","","","","","","","","stimulus","","","2","46","","","","","","","","","",""
"","","","","","","","","","","","canvas-button-response","422","795945","0.0-422.0","834","train","","","","","","","","","","","","","","perceptual","","","2","46","","","","","264","train","10","0","1",""
"","","","","","","","","","","","canvas-button-response","423","797229","0.0-423.0","1279","8","","","","","","","","","","","","","","confidence","","","2","46","","","","","","","","","","29"
"","","","","","","","","","","","preload","424","797230","0.0-424.0","","","","","true","","","","","","","","","","","preload","","","2","47","false","[]","[]","[]","","","","","",""
"","","","","","","","","","","","canvas-keyboard-response","425","797536","0.0-425.0","null","null","","","","","","","","","","","","","","fixation","","","2","47","","","","","","","","","",""
"","","","","","","","","","","","canvas-keyboard-response","426","797843","0.0-426.0","null","null","","","","","","","","","","","","","","stimulus","","","2","47","","","","","","","","","",""
"","","","","","","","","","","","canvas-button-response","427","798863","0.0-427.0","1016","car","","","","","","","","","","","","","","perceptual","","","2","47","","","","","45","car","6","0","1",""
"","","","","","","","","","","","canvas-button-response","428","799559","0.0-428.0","696","10","","","","","","","","","","","","","","confidence","","","2","47","","","","","","","","","","30"
"","","","","","","","","","","","preload","429","799560","0.0-429.0","","","","","true","","","","","","","","","","","preload","","","2","48","false","[]","[]","[]","","","","","",""
"","","","","","","","","","","","canvas-keyboard-response","430","799866","0.0-430.0","null","null","","","","","","","","","","","","","","fixation","","","2","48","","","","","","","","","",""
"","","","","","","","","","","","canvas-keyboard-response","431","800173","0.0-431.0","null","null","","","","","","","","","","","","","","stimulus","","","2","48","","","","","","","","","",""
"","","","","","","","","","","","canvas-button-response","432","801298","0.0-432.0","1120","cat","","","","","","","","","","","","","","perceptual","","","2","48","","","","","336","elephant","6","0","0",""
"","","","","","","","","","","","canvas-button-response","433","802045","0.0-433.0","742","2","","","","","","","","","","","","","","confidence","","","2","48","","","","","","","","","","30"
"","","","","","","","","","","","preload","434","802048","0.0-434.0","","","","","true","","","","","","","","","","","preload","","","2","49","false","[]","[]","[]","","","","","",""
"","","","","","","","","","","","canvas-keyboard-response","435","802355","0.0-435.0","null","null","","","","","","","","","","","","","","fixation","","","2","49","","","","","","","","","",""
"","","","","","","","","","","","canvas-keyboard-response","436","802661","0.0-436.0","null","null","","","","","","","","","","","","","","stimulus","","","2","49","","","","","","","","","",""
"","","","","","","","","","","","canvas-button-response","437","806312","0.0-437.0","3649","bridge","","","","","","","","","","","","","","perceptual","","","2","49","","","","","342","elephant","10","0","0",""
"","","","","","","","","","","","canvas-button-response","438","807029","0.0-438.0","713","1","","","","","","","","","","","","","","confidence","","","2","49","","","","","","","","","","30"
"","","","","","","","","","","","html-button-response","439","1046485","0.0-439.0","239407","0","","","","","","","","","","","","","","<p style=""font-size:20px;color:#000000"">You got 30 out of 50 trials correct in this block.<br><br>You have completed 6% of the experiment.<br><br>Take a short break.<br><br>When you are ready, click Continue to proceed.","","","2","49","","","","","","","","","",""
"","","","","","","","","","","","html-keyboard-response","440","1047492","0.0-440.0","null","null","","","","","","","","","","","","","","<p style=""font-size:32px;color:#000000""><br><br> RUN: &nbsp 1/4 <br><br> BLOCK: 2/4 ","","","2","49","","","","","","","","","",""
"","","","","","","","","","","","preload","441","1047495","0.0-441.0","","","","","true","","","","","","","","","","","preload","","","2","50","false","[]","[]","[]","","","","","",""
"","","","","","","","","","","","canvas-keyboard-response","442","1047799","0.0-442.0","null","null","","","","","","","","","","","","","","fixation","","","2","50","","","","","","","","","",""
"","","","","","","","","","","","canvas-keyboard-response","443","1048106","0.0-443.0","null","null","","","","","","","","","","","","","","stimulus","","","2","50","","","","","","","","","",""
"","","","","","","","","","","","canvas-button-response","444","1050516","0.0-444.0","2405","bridge","","","","","","","","","","","","","","perceptual","","","2","50","","","","","114","phone","10","0","0",""
"","","","","","","","","","","","canvas-button-response","445","1051350","0.0-445.0","832","0","","","","","","","","","","","","","","confidence","","","2","50","","","","","","","","","","0"
"","","","","","","","","","","","preload","446","1051352","0.0-446.0","","","","","true","","","","","","","","","","","preload","","","2","51","false","[]","[]","[]","","","","","",""
"","","","","","","","","","","","canvas-keyboard-response","447","1051654","0.0-447.0","null","null","","","","","","","","","","","","","","fixation","","","2","51","","","","","","","","","",""
"","","","","","","","","","","","canvas-keyboard-response","448","1051961","0.0-448.0","null","null","","","","","","","","","","","","","","stimulus","","","2","51","","","","","","","","","",""
"","","","","","","","","","","","canvas-button-response","449","1052983","0.0-449.0","1021","flower","","","","","","","","","","","","","","perceptual","","","2","51","","","","","228","flower","10","0","1",""
"","","","","","","","","","","","canvas-button-response","450","1053683","0.0-450.0","694","5","","","","","","","","","","","","","","confidence","","","2","51","","","","","","","","","","1"
"","","","","","","","","","","","preload","451","1053685","0.0-451.0","","","","","true","","","","","","","","","","","preload","","","2","52","false","[]","[]","[]","","","","","",""
"","","","","","","","","","","","canvas-keyboard-response","452","1053989","0.0-452.0","null","null","","","","","","","","","","","","","","fixation","","","2","52","","","","","","","","","",""
"","","","","","","","","","","","canvas-keyboard-response","453","1054290","0.0-453.0","null","null","","","","","","","","","","","","","","stimulus","","","2","52","","","","","","","","","",""
"","","","","","","","","","","","canvas-button-response","454","1055465","0.0-454.0","1172","cat","","","","","","","","","","","","","","perceptual","","","2","52","","","","","192","bridge","10","0","0",""
"","","","","","","","","","","","canvas-button-response","455","1056266","0.0-455.0","798","1","","","","","","","","","","","","","","confidence","","","2","52","","","","","","","","","","1"
"","","","","","","","","","","","preload","456","1056268","0.0-456.0","","","","","true","","","","","","","","","","","preload","","","2","53","false","[]","[]","[]","","","","","",""
"","","","","","","","","","","","canvas-keyboard-response","457","1056574","0.0-457.0","null","null","","","","","","","","","","","","","","fixation","","","2","53","","","","","","","","","",""
"","","","","","","","","","","","canvas-keyboard-response","458","1056882","0.0-458.0","null","null","","","","","","","","","","","","","","stimulus","","","2","53","","","","","","","","","",""
"","","","","","","","","","","","canvas-button-response","459","1057683","0.0-459.0","798","flower","","","","","","","","","","","","","","perceptual","","","2","53","","","","","203","flower","6","0","1",""
"","","","","","","","","","","","canvas-button-response","460","1058633","0.0-460.0","946","7","","","","","","","","","","","","","","confidence","","","2","53","","","","","","","","","","2"
"","","","","","","","","","","","preload","461","1058635","0.0-461.0","","","","","true","","","","","","","","","","","preload","","","2","54","false","[]","[]","[]","","","","","",""
"","","","","","","","","","","","canvas-keyboard-response","462","1058941","0.0-462.0","null","null","","","","","","","","","","","","","","fixation","","","2","54","","","","","","","","","",""
"","","","","","","","","","","","canvas-keyboard-response","463","1059249","0.0-463.0","null","null","","","","","","","","","","","","","","stimulus","","","2","54","","","","","","","","","",""
"","","","","","","","","","","","canvas-button-response","464","1060733","0.0-464.0","1481","flower","","","","","","","","","","","","","","perceptual","","","2","54","","","","","229","flower","10","0","1",""
"","","","","","","","","","","","canvas-button-response","465","1061297","0.0-465.0","561","2","","","","","","","","","","","","","","confidence","","","2","54","","","","","","","","","","3"
"","","","","","","","","","","","preload","466","1061297","0.0-466.0","","","","","true","","","","","","","","","","","preload","","","2","55","false","[]","[]","[]","","","","","",""
"","","","","","","","","","","","canvas-keyboard-response","467","1061607","0.0-467.0","null","null","","","","","","","","","","","","","","fixation","","","2","55","","","","","","","","","",""
"","","","","","","","","","","","canvas-keyboard-response","468","1061914","0.0-468.0","null","null","","","","","","","","","","","","","","stimulus","","","2","55","","","","","","","","","",""
"","","","","","","","","","","","canvas-button-response","469","1064667","0.0-469.0","2750","cat","","","","","","","","","","","","","","perceptual","","","2","55","","","","","9","house","6","0","0",""
"","","","","","","","","","","","canvas-button-response","470","1065332","0.0-470.0","662","1","","","","","","","","","","","","","","confidence","","","2","55","","","","","","","","","","3"
"","","","","","","","","","","","preload","471","1065332","0.0-471.0","","","","","true","","","","","","","","","","","preload","","","2","56","false","[]","[]","[]","","","","","",""
"","","","","","","","","","","","canvas-keyboard-response","472","1065642","0.0-472.0","null","null","","","","","","","","","","","","","","fixation","","","2","56","","","","","","","","","",""
"","","","","","","","","","","","canvas-keyboard-response","473","1065948","0.0-473.0","null","null","","","","","","","","","","","","","","stimulus","","","2","56","","","","","","","","","",""
"","","","","","","","","","","","canvas-button-response","474","1067083","0.0-474.0","1132","elephant","","","","","","","","","","","","","","perceptual","","","2","56","","","","","331","elephant","6","0","1",""
"","","","","","","","","","","","canvas-button-response","475","1069166","0.0-475.0","2079","10","","","","","","","","","","","","","","confidence","","","2","56","","","","","","","","","","4"
"","","","","","","","","","","","preload","476","1069167","0.0-476.0","","","","","true","","","","","","","","","","","preload","","","2","57","false","[]","[]","[]","","","","","",""
"","","","","","","","","","","","canvas-keyboard-response","477","1069469","0.0-477.0","null","null","","","","","","","","","","","","","","fixation","","","2","57","","","","","","","","","",""
"","","","","","","","","","","","canvas-keyboard-response","478","1069774","0.0-478.0","null","null","","","","","","","","","","","","","","stimulus","","","2","57","","","","","","","","","",""
"","","","","","","","","","","","canvas-button-response","479","1071066","0.0-479.0","1288","flower","","","","","","","","","","","","","","perceptual","","","2","57","","","","","217","flower","6","0","1",""
"","","","","","","","","","","","canvas-button-response","480","1183484","0.0-480.0","112414","10","","","","","","","","","","","","","","confidence","","","2","57","","","","","","","","","","5"
"","","","","","","","","","","","preload","481","1183487","0.0-481.0","","","","","true","","","","","","","","","","","preload","","","2","58","false","[]","[]","[]","","","","","",""
"","","","","","","","","","","","canvas-keyboard-response","482","1183791","0.0-482.0","null","null","","","","","","","","","","","","","","fixation","","","2","58","","","","","","","","","",""
"","","","","","","","","","","","canvas-keyboard-response","483","1184098","0.0-483.0","null","null","","","","","","","","","","","","","","stimulus","","","2","58","","","","","","","","","",""
"","","","","","","","","","","","canvas-button-response","484","1254667","0.0-484.0","70566","bed","","","","","","","","","","","","","","perceptual","","","2","58","","","","","77","car","10","0","0",""
"","","","","","","","","","","","canvas-button-response","485","1255649","0.0-485.0","977","0","","","","","","","","","","","","","","confidence","","","2","58","","","","","","","","","","5"
"","","","","","","","","","","","preload","486","1255651","0.0-486.0","","","","","true","","","","","","","","","","","preload","","","2","59","false","[]","[]","[]","","","","","",""
"","","","","","","","","","","","canvas-keyboard-response","487","1255957","0.0-487.0","null","null","","","","","","","","","","","","","","fixation","","","2","59","","","","","","","","","",""
"","","","","","","","","","","","canvas-keyboard-response","488","1256264","0.0-488.0","null","null","","","","","","","","","","","","","","stimulus","","","2","59","","","","","","","","","",""
"","","","","","","","","","","","canvas-button-response","489","1257516","0.0-489.0","1249","house","","","","","","","","","","","","","","perceptual","","","2","59","","","","","109","phone","10","0","0",""
"","","","","","","","","","","","canvas-button-response","490","1258783","0.0-490.0","1263","5","","","","","","","","","","","","","","confidence","","","2","59","","","","","","","","","","5"
"","","","","","","","","","","","preload","491","1258784","0.0-491.0","","","","","true","","","","","","","","","","","preload","","","2","60","false","[]","[]","[]","","","","","",""
