"width","height","webaudio","browser","browser_version","mobile","os","fullscreen","vsync_rate","webcam","microphone","trial_type","trial_index","time_elapsed","internal_node_id","rt","response","accuracy","view_history","success","item_width_mm","item_height_mm","item_width_px","px2mm","view_dist_mm","item_width_deg","px2deg","scale_factor","win_width_deg","win_height_deg","stimulus","datetime","subjectID","curr_triallist","trial_no","timeout","failed_images","failed_audio","failed_video","image_index","category","blur","reps","correct","running_score"
"1382","732","true","firefox","144.0.0","false","Windows 10","true","60.91","true","true","browser-check","0","1002","0.0-0.0","","","","","","","","","","","","","","","","","","","","","","","","","","","","","",""
"","","","","","","","","","","","survey","1","46217","0.0-1.0","45155","{""P0_Q0"":""903974721"",""P0_Q1"":""19"",""P1_Q0"":""Female"",""P1_Q1"":""Not Hispanic or Latino"",""P1_Q2"":""White"",""P1_Q3"":""Normal"",""P1_Q4"":""Right-Handed""}","[]","","","","","","","","","","","","","","","","","","","","","","","","","","",""
"","","","","","","","","","","","instructions","2","77307","0.0-2.0","31086","","","[{""page_index"":0,""viewing_time"":5784},{""page_index"":1,""viewing_time"":5561},{""page_index"":2,""viewing_time"":16644},{""page_index"":3,""viewing_time"":3097}]","","","","","","","","","","","","","","","","","","","","","","","","","",""
"","","","","","","","","","","","fullscreen","3","80540","0.0-3.0","2213","","","","true","","","","","","","","","","","","","","","","","","","","","","","","",""
"","","","","","","","","","","","virtual-chinrest","4","205995","0.0-4.0","125453","","","","","85.6","53.98","232.2566624411366","2.7154043027242674","632.54","7.741888748037886","30","1.450980981376195","46.06666666666667","28.8","","","","","","","","","","","","","","",""
"","","","","","","","","","","","instructions","5","333866","0.0-5.0","127867","","","[{""page_index"":0,""viewing_time"":52153},{""page_index"":1,""viewing_time"":3960},{""page_index"":2,""viewing_time"":8958},{""page_index"":3,""viewing_time"":4083},{""page_index"":4,""viewing_time"":9048},{""page_index"":5,""viewing_time"":47828},{""page_index"":6,""viewing_time"":1837}]","","","","","","","","","","","","","","","","","","","","","","","","","",""
"","","","","","","","","","","","html-button-response","6","339391","0.0-6.0","5521","0","","","","","","","","","","","","","","start_practice","Tue Oct 14 2025 21:22:17 GMT-0400 (Eastern Daylight Time)","25082","","","","","","","","","","","",""
"","","","","","","","","","","","preload","7","339395","0.0-7.0","","","","","true","","","","","","","","","","","preload","","","0","0","false","[]","[]","[]","","","","","",""
"","","","","","","","","","","","canvas-keyboard-response","8","339706","0.0-8.0","null","null","","","","","","","","","","","","","","fixation","","","0","0","","","","","","","","","",""
"","","","","","","","","","","","canvas-keyboard-response","9","340017","0.0-9.0","null","null","","","","","","","","","","","","","","stimulus","","","0","0","","","","","","","","","",""
"","","","","","","","","","","","canvas-button-response","10","340951","0.0-10.0","930","cat","","","","","","","","","","","","","","perceptual","","","0","0","","","","","72","cat","1","","1",""
"","","","","","","","","","","","canvas-button-response","11","342267","0.0-11.0","1311","10","","","","","","","","","","","","","","confidence","","","0","0","","","","","","","","","","1"
"","","","","","","","","","","","html-keyboard-response","12","343276","0.0-12.0","null","null","","","","","","","","","","","","","","feedback","Tue Oct 14 2025 21:22:26 GMT-0400 (Eastern Daylight Time)","25082","0","0","","","","","","","","","",""
"","","","","","","","","","","","preload","13","343277","0.0-13.0","","","","","true","","","","","","","","","","","preload","","","0","1","false","[]","[]","[]","","","","","",""
"","","","","","","","","","","","canvas-keyboard-response","14","343602","0.0-14.0","null","null","","","","","","","","","","","","","","fixation","","","0","1","","","","","","","","","",""
"","","","","","","","","","","","canvas-keyboard-response","15","343928","0.0-15.0","null","null","","","","","","","","","","","","","","stimulus","","","0","1","","","","","","","","","",""
"","","","","","","","","","","","canvas-button-response","16","347190","0.0-16.0","3261","knife","","","","","","","","","","","","","","perceptual","","","0","1","","","","","92","knife","1","","1",""
"","","","","","","","","","","","canvas-button-response","17","348326","0.0-17.0","1131","7","","","","","","","","","","","","","","confidence","","","0","1","","","","","","","","","","2"
"","","","","","","","","","","","html-keyboard-response","18","349340","0.0-18.0","null","null","","","","","","","","","","","","","","feedback","Tue Oct 14 2025 21:22:32 GMT-0400 (Eastern Daylight Time)","25082","0","1","","","","","","","","","",""
"","","","","","","","","","","","preload","19","349340","0.0-19.0","","","","","true","","","","","","","","","","","preload","","","0","2","false","[]","[]","[]","","","","","",""
"","","","","","","","","","","","canvas-keyboard-response","20","349668","0.0-20.0","null","null","","","","","","","","","","","","","","fixation","","","0","2","","","","","","","","","",""
"","","","","","","","","","","","canvas-keyboard-response","21","349977","0.0-21.0","null","null","","","","","","","","","","","","","","stimulus","","","0","2","","","","","","","","","",""
"","","","","","","","","","","","canvas-button-response","22","354148","0.0-22.0","4169","flower","","","","","","","","","","","","","","perceptual","","","0","2","","","","","52","flower","1","","1",""
"","","","","","","","","","","","canvas-button-response","23","355398","0.0-23.0","1245","5","","","","","","","","","","","","","","confidence","","","0","2","","","","","","","","","","3"
"","","","","","","","","","","","html-keyboard-response","24","356405","0.0-24.0","null","null","","","","","","","","","","","","","","feedback","Tue Oct 14 2025 21:22:39 GMT-0400 (Eastern Daylight Time)","25082","0","2","","","","","","","","","",""
"","","","","","","","","","","","preload","25","356406","0.0-25.0","","","","","true","","","","","","","","","","","preload","","","0","3","false","[]","[]","[]","","","","","",""
"","","","","","","","","","","","canvas-keyboard-response","26","356731","0.0-26.0","null","null","","","","","","","","","","","","","","fixation","","","0","3","","","","","","","","","",""
"","","","","","","","","","","","canvas-keyboard-response","27","357043","0.0-27.0","null","null","","","","","","","","","","","","","","stimulus","","","0","3","","","","","","","","","",""
"","","","","","","","","","","","canvas-button-response","28","358022","0.0-28.0","979","train","","","","","","","","","","","","","","perceptual","","","0","3","","","","","62","train","1","","1",""
"","","","","","","","","","","","canvas-button-response","29","359706","0.0-29.0","1680","10","","","","","","","","","","","","","","confidence","","","0","3","","","","","","","","","","4"
"","","","","","","","","","","","html-keyboard-response","30","360713","0.0-30.0","null","null","","","","","","","","","","","","","","feedback","Tue Oct 14 2025 21:22:43 GMT-0400 (Eastern Daylight Time)","25082","0","3","","","","","","","","","",""
"","","","","","","","","","","","preload","31","360713","0.0-31.0","","","","","true","","","","","","","","","","","preload","","","0","4","false","[]","[]","[]","","","","","",""
"","","","","","","","","","","","canvas-keyboard-response","32","361023","0.0-32.0","null","null","","","","","","","","","","","","","","fixation","","","0","4","","","","","","","","","",""
"","","","","","","","","","","","canvas-keyboard-response","33","361336","0.0-33.0","null","null","","","","","","","","","","","","","","stimulus","","","0","4","","","","","","","","","",""
"","","","","","","","","","","","canvas-button-response","34","362468","0.0-34.0","1129","bed","","","","","","","","","","","","","","perceptual","","","0","4","","","","","32","bed","1","","1",""
"","","","","","","","","","","","canvas-button-response","35","363241","0.0-35.0","770","10","","","","","","","","","","","","","","confidence","","","0","4","","","","","","","","","","5"
"","","","","","","","","","","","html-keyboard-response","36","364243","0.0-36.0","null","null","","","","","","","","","","","","","","feedback","Tue Oct 14 2025 21:22:47 GMT-0400 (Eastern Daylight Time)","25082","0","4","","","","","","","","","",""
"","","","","","","","","","","","preload","37","364244","0.0-37.0","","","","","true","","","","","","","","","","","preload","","","0","5","false","[]","[]","[]","","","","","",""
"","","","","","","","","","","","canvas-keyboard-response","38","364552","0.0-38.0","null","null","","","","","","","","","","","","","","fixation","","","0","5","","","","","","","","","",""
"","","","","","","","","","","","canvas-keyboard-response","39","364862","0.0-39.0","null","null","","","","","","","","","","","","","","stimulus","","","0","5","","","","","","","","","",""
"","","","","","","","","","","","canvas-button-response","40","366928","0.0-40.0","2065","phone","","","","","","","","","","","","","","perceptual","","","0","5","","","","","22","phone","1","","1",""
"","","","","","","","","","","","canvas-button-response","41","367807","0.0-41.0","875","10","","","","","","","","","","","","","","confidence","","","0","5","","","","","","","","","","6"
"","","","","","","","","","","","html-keyboard-response","42","368818","0.0-42.0","null","null","","","","","","","","","","","","","","feedback","Tue Oct 14 2025 21:22:51 GMT-0400 (Eastern Daylight Time)","25082","0","5","","","","","","","","","",""
"","","","","","","","","","","","preload","43","368819","0.0-43.0","","","","","true","","","","","","","","","","","preload","","","0","6","false","[]","[]","[]","","","","","",""
"","","","","","","","","","","","canvas-keyboard-response","44","369133","0.0-44.0","null","null","","","","","","","","","","","","","","fixation","","","0","6","","","","","","","","","",""
"","","","","","","","","","","","canvas-keyboard-response","45","369470","0.0-45.0","null","null","","","","","","","","","","","","","","stimulus","","","0","6","","","","","","","","","",""
"","","","","","","","","","","","canvas-button-response","46","378515","0.0-46.0","9044","bridge","","","","","","","","","","","","","","perceptual","","","0","6","","","","","82","elephant","1","","0",""
"","","","","","","","","","","","canvas-button-response","47","380853","0.0-47.0","2335","0","","","","","","","","","","","","","","confidence","","","0","6","","","","","","","","","","6"
"","","","","","","","","","","","html-keyboard-response","48","381859","0.0-48.0","null","null","","","","","","","","","","","","","","feedback","Tue Oct 14 2025 21:23:04 GMT-0400 (Eastern Daylight Time)","25082","0","6","","","","","","","","","",""
"","","","","","","","","","","","preload","49","381859","0.0-49.0","","","","","true","","","","","","","","","","","preload","","","0","7","false","[]","[]","[]","","","","","",""
"","","","","","","","","","","","canvas-keyboard-response","50","382181","0.0-50.0","null","null","","","","","","","","","","","","","","fixation","","","0","7","","","","","","","","","",""
"","","","","","","","","","","","canvas-keyboard-response","51","382487","0.0-51.0","null","null","","","","","","","","","","","","","","stimulus","","","0","7","","","","","","","","","",""
"","","","","","","","","","","","canvas-button-response","52","383506","0.0-52.0","1018","car","","","","","","","","","","","","","","perceptual","","","0","7","","","","","12","car","1","","1",""
"","","","","","","","","","","","canvas-button-response","53","384324","0.0-53.0","815","10","","","","","","","","","","","","","","confidence","","","0","7","","","","","","","","","","7"
"","","","","","","","","","","","html-keyboard-response","54","385331","0.0-54.0","null","null","","","","","","","","","","","","","","feedback","Tue Oct 14 2025 21:23:08 GMT-0400 (Eastern Daylight Time)","25082","0","7","","","","","","","","","",""
"","","","","","","","","","","","preload","55","385332","0.0-55.0","","","","","true","","","","","","","","","","","preload","","","0","8","false","[]","[]","[]","","","","","",""
"","","","","","","","","","","","canvas-keyboard-response","56","385654","0.0-56.0","null","null","","","","","","","","","","","","","","fixation","","","0","8","","","","","","","","","",""
"","","","","","","","","","","","canvas-keyboard-response","57","385967","0.0-57.0","null","null","","","","","","","","","","","","","","stimulus","","","0","8","","","","","","","","","",""
"","","","","","","","","","","","canvas-button-response","58","387262","0.0-58.0","1293","house","","","","","","","","","","","","","","perceptual","","","0","8","","","","","2","house","1","","1",""
"","","","","","","","","","","","canvas-button-response","59","387998","0.0-59.0","733","10","","","","","","","","","","","","","","confidence","","","0","8","","","","","","","","","","8"
"","","","","","","","","","","","html-keyboard-response","60","389012","0.0-60.0","null","null","","","","","","","","","","","","","","feedback","Tue Oct 14 2025 21:23:11 GMT-0400 (Eastern Daylight Time)","25082","0","8","","","","","","","","","",""
"","","","","","","","","","","","preload","61","389013","0.0-61.0","","","","","true","","","","","","","","","","","preload","","","0","9","false","[]","[]","[]","","","","","",""
"","","","","","","","","","","","canvas-keyboard-response","62","389321","0.0-62.0","null","null","","","","","","","","","","","","","","fixation","","","0","9","","","","","","","","","",""
"","","","","","","","","","","","canvas-keyboard-response","63","389630","0.0-63.0","null","null","","","","","","","","","","","","","","stimulus","","","0","9","","","","","","","","","",""
"","","","","","","","","","","","canvas-button-response","64","390608","0.0-64.0","975","bridge","","","","","","","","","","","","","","perceptual","","","0","9","","","","","42","bridge","1","","1",""
"","","","","","","","","","","","canvas-button-response","65","391367","0.0-65.0","757","10","","","","","","","","","","","","","","confidence","","","0","9","","","","","","","","","","9"
"","","","","","","","","","","","html-keyboard-response","66","392430","0.0-66.0","null","null","","","","","","","","","","","","","","feedback","Tue Oct 14 2025 21:23:15 GMT-0400 (Eastern Daylight Time)","25082","0","9","","","","","","","","","",""
"","","","","","","","","","","","html-button-response","67","404823","0.0-67.0","12391","0","","","","","","","","","","","","","","start_practice","Tue Oct 14 2025 21:23:16 GMT-0400 (Eastern Daylight Time)","25082","0","9","","","","","","","","","",""
"","","","","","","","","","","","preload","68","404825","0.0-68.0","","","","","true","","","","","","","","","","","preload","","","1","0","false","[]","[]","[]","","","","","",""
"","","","","","","","","","","","canvas-keyboard-response","69","405129","0.0-69.0","null","null","","","","","","","","","","","","","","fixation","","","1","0","","","","","","","","","",""
"","","","","","","","","","","","canvas-keyboard-response","70","405452","0.0-70.0","null","null","","","","","","","","","","","","","","stimulus","","","1","0","","","","","","","","","",""
"","","","","","","","","","","","canvas-button-response","71","406827","0.0-71.0","1371","train","","","","","","","","","","","","","","perceptual","","","1","0","","","","","67","train","10","","1",""
"","","","","","","","","","","","canvas-button-response","72","407759","0.0-72.0","928","10","","","","","","","","","","","","","","confidence","","","1","0","","","","","","","","","","1"
"","","","","","","","","","","","html-keyboard-response","73","408776","0.0-73.0","null","null","","","","","","","","","","","","","","feedback","Tue Oct 14 2025 21:23:31 GMT-0400 (Eastern Daylight Time)","25082","1","0","","","","","","","","","",""
"","","","","","","","","","","","preload","74","408778","0.0-74.0","","","","","true","","","","","","","","","","","preload","","","1","1","false","[]","[]","[]","","","","","",""
"","","","","","","","","","","","canvas-keyboard-response","75","409088","0.0-75.0","null","null","","","","","","","","","","","","","","fixation","","","1","1","","","","","","","","","",""
"","","","","","","","","","","","canvas-keyboard-response","76","409397","0.0-76.0","null","null","","","","","","","","","","","","","","stimulus","","","1","1","","","","","","","","","",""
"","","","","","","","","","","","canvas-button-response","77","410385","0.0-77.0","987","house","","","","","","","","","","","","","","perceptual","","","1","1","","","","","4","house","6","","1",""
"","","","","","","","","","","","canvas-button-response","78","411411","0.0-78.0","1025","10","","","","","","","","","","","","","","confidence","","","1","1","","","","","","","","","","2"
"","","","","","","","","","","","html-keyboard-response","79","412417","0.0-79.0","null","null","","","","","","","","","","","","","","feedback","Tue Oct 14 2025 21:23:35 GMT-0400 (Eastern Daylight Time)","25082","1","1","","","","","","","","","",""
"","","","","","","","","","","","preload","80","412418","0.0-80.0","","","","","true","","","","","","","","","","","preload","","","1","2","false","[]","[]","[]","","","","","",""
"","","","","","","","","","","","canvas-keyboard-response","81","412730","0.0-81.0","null","null","","","","","","","","","","","","","","fixation","","","1","2","","","","","","","","","",""
"","","","","","","","","","","","canvas-keyboard-response","82","413035","0.0-82.0","null","null","","","","","","","","","","","","","","stimulus","","","1","2","","","","","","","","","",""
"","","","","","","","","","","","canvas-button-response","83","415909","0.0-83.0","2872","knife","","","","","","","","","","","","","","perceptual","","","1","2","","","","","27","phone","10","","0",""
"","","","","","","","","","","","canvas-button-response","84","417515","0.0-84.0","1603","4","","","","","","","","","","","","","","confidence","","","1","2","","","","","","","","","","2"
"","","","","","","","","","","","html-keyboard-response","85","418532","0.0-85.0","null","null","","","","","","","","","","","","","","feedback","Tue Oct 14 2025 21:23:41 GMT-0400 (Eastern Daylight Time)","25082","1","2","","","","","","","","","",""
"","","","","","","","","","","","preload","86","418533","0.0-86.0","","","","","true","","","","","","","","","","","preload","","","1","3","false","[]","[]","[]","","","","","",""
"","","","","","","","","","","","canvas-keyboard-response","87","418844","0.0-87.0","null","null","","","","","","","","","","","","","","fixation","","","1","3","","","","","","","","","",""
"","","","","","","","","","","","canvas-keyboard-response","88","419157","0.0-88.0","null","null","","","","","","","","","","","","","","stimulus","","","1","3","","","","","","","","","",""
"","","","","","","","","","","","canvas-button-response","89","421675","0.0-89.0","2511","knife","","","","","","","","","","","","","","perceptual","","","1","3","","","","","77","cat","10","","0",""
"","","","","","","","","","","","canvas-button-response","90","423351","0.0-90.0","1671","1","","","","","","","","","","","","","","confidence","","","1","3","","","","","","","","","","2"
"","","","","","","","","","","","html-keyboard-response","91","424359","0.0-91.0","null","null","","","","","","","","","","","","","","feedback","Tue Oct 14 2025 21:23:47 GMT-0400 (Eastern Daylight Time)","25082","1","3","","","","","","","","","",""
"","","","","","","","","","","","preload","92","424361","0.0-92.0","","","","","true","","","","","","","","","","","preload","","","1","4","false","[]","[]","[]","","","","","",""
"","","","","","","","","","","","canvas-keyboard-response","93","424674","0.0-93.0","null","null","","","","","","","","","","","","","","fixation","","","1","4","","","","","","","","","",""
"","","","","","","","","","","","canvas-keyboard-response","94","425017","0.0-94.0","null","null","","","","","","","","","","","","","","stimulus","","","1","4","","","","","","","","","",""
"","","","","","","","","","","","canvas-button-response","95","429010","0.0-95.0","3990","car","","","","","","","","","","","","","","perceptual","","","1","4","","","","","14","car","6","","1",""
"","","","","","","","","","","","canvas-button-response","96","430698","0.0-96.0","1685","1","","","","","","","","","","","","","","confidence","","","1","4","","","","","","","","","","3"
"","","","","","","","","","","","html-keyboard-response","97","431704","0.0-97.0","null","null","","","","","","","","","","","","","","feedback","Tue Oct 14 2025 21:23:54 GMT-0400 (Eastern Daylight Time)","25082","1","4","","","","","","","","","",""
"","","","","","","","","","","","preload","98","431704","0.0-98.0","","","","","true","","","","","","","","","","","preload","","","1","5","false","[]","[]","[]","","","","","",""
"","","","","","","","","","","","canvas-keyboard-response","99","432007","0.0-99.0","null","null","","","","","","","","","","","","","","fixation","","","1","5","","","","","","","","","",""
"","","","","","","","","","","","canvas-keyboard-response","100","432318","0.0-100.0","null","null","","","","","","","","","","","","","","stimulus","","","1","5","","","","","","","","","",""
"","","","","","","","","","","","canvas-button-response","101","441276","0.0-101.0","8955","car","","","","","","","","","","","","","","perceptual","","","1","5","","","","","87","elephant","10","","0",""
"","","","","","","","","","","","canvas-button-response","102","442532","0.0-102.0","1252","0","","","","","","","","","","","","","","confidence","","","1","5","","","","","","","","","","3"
"","","","","","","","","","","","html-keyboard-response","103","443546","0.0-103.0","null","null","","","","","","","","","","","","","","feedback","Tue Oct 14 2025 21:24:06 GMT-0400 (Eastern Daylight Time)","25082","1","5","","","","","","","","","",""
"","","","","","","","","","","","preload","104","443547","0.0-104.0","","","","","true","","","","","","","","","","","preload","","","1","6","false","[]","[]","[]","","","","","",""
"","","","","","","","","","","","canvas-keyboard-response","105","443889","0.0-105.0","null","null","","","","","","","","","","","","","","fixation","","","1","6","","","","","","","","","",""
"","","","","","","","","","","","canvas-keyboard-response","106","444201","0.0-106.0","null","null","","","","","","","","","","","","","","stimulus","","","1","6","","","","","","","","","",""
"","","","","","","","","","","","canvas-button-response","107","445872","0.0-107.0","1669","cat","","","","","","","","","","","","","","perceptual","","","1","6","","","","","74","cat","6","","1",""
"","","","","","","","","","","","canvas-button-response","108","447041","0.0-108.0","1168","0","","","","","","","","","","","","","","confidence","","","1","6","","","","","","","","","","4"
"","","","","","","","","","","","html-keyboard-response","109","448075","0.0-109.0","null","null","","","","","","","","","","","","","","feedback","Tue Oct 14 2025 21:24:10 GMT-0400 (Eastern Daylight Time)","25082","1","6","","","","","","","","","",""
"","","","","","","","","","","","preload","110","448076","0.0-110.0","","","","","true","","","","","","","","","","","preload","","","1","7","false","[]","[]","[]","","","","","",""
"","","","","","","","","","","","canvas-keyboard-response","111","448384","0.0-111.0","null","null","","","","","","","","","","","","","","fixation","","","1","7","","","","","","","","","",""
"","","","","","","","","","","","canvas-keyboard-response","112","448694","0.0-112.0","null","null","","","","","","","","","","","","","","stimulus","","","1","7","","","","","","","","","",""
"","","","","","","","","","","","canvas-button-response","113","450788","0.0-113.0","2093","cat","","","","","","","","","","","","","","perceptual","","","1","7","","","","","37","bed","10","","0",""
"","","","","","","","","","","","canvas-button-response","114","452042","0.0-114.0","1252","0","","","","","","","","","","","","","","confidence","","","1","7","","","","","","","","","","4"
"","","","","","","","","","","","html-keyboard-response","115","453049","0.0-115.0","null","null","","","","","","","","","","","","","","feedback","Tue Oct 14 2025 21:24:16 GMT-0400 (Eastern Daylight Time)","25082","1","7","","","","","","","","","",""
"","","","","","","","","","","","preload","116","453051","0.0-116.0","","","","","true","","","","","","","","","","","preload","","","1","8","false","[]","[]","[]","","","","","",""
"","","","","","","","","","","","canvas-keyboard-response","117","453360","0.0-117.0","null","null","","","","","","","","","","","","","","fixation","","","1","8","","","","","","","","","",""
"","","","","","","","","","","","canvas-keyboard-response","118","453670","0.0-118.0","null","null","","","","","","","","","","","","","","stimulus","","","1","8","","","","","","","","","",""
"","","","","","","","","","","","canvas-button-response","119","454588","0.0-119.0","914","bridge","","","","","","","","","","","","","","perceptual","","","1","8","","","","","44","bridge","6","","1",""
"","","","","","","","","","","","canvas-button-response","120","455515","0.0-120.0","924","10","","","","","","","","","","","","","","confidence","","","1","8","","","","","","","","","","5"
"","","","","","","","","","","","html-keyboard-response","121","456529","0.0-121.0","null","null","","","","","","","","","","","","","","feedback","Tue Oct 14 2025 21:24:19 GMT-0400 (Eastern Daylight Time)","25082","1","8","","","","","","","","","",""
"","","","","","","","","","","","preload","122","456530","0.0-122.0","","","","","true","","","","","","","","","","","preload","","","1","9","false","[]","[]","[]","","","","","",""
"","","","","","","","","","","","canvas-keyboard-response","123","456841","0.0-123.0","null","null","","","","","","","","","","","","","","fixation","","","1","9","","","","","","","","","",""
"","","","","","","","","","","","canvas-keyboard-response","124","457151","0.0-124.0","null","null","","","","","","","","","","","","","","stimulus","","","1","9","","","","","","","","","",""
"","","","","","","","","","","","canvas-button-response","125","459316","0.0-125.0","2164","flower","","","","","","","","","","","","","","perceptual","","","1","9","","","","","57","flower","10","","1",""
"","","","","","","","","","","","canvas-button-response","126","460194","0.0-126.0","876","5","","","","","","","","","","","","","","confidence","","","1","9","","","","","","","","","","6"
"","","","","","","","","","","","html-keyboard-response","127","461208","0.0-127.0","null","null","","","","","","","","","","","","","","feedback","Tue Oct 14 2025 21:24:24 GMT-0400 (Eastern Daylight Time)","25082","1","9","","","","","","","","","",""
"","","","","","","","","","","","preload","128","461209","0.0-128.0","","","","","true","","","","","","","","","","","preload","","","1","10","false","[]","[]","[]","","","","","",""
"","","","","","","","","","","","canvas-keyboard-response","129","461519","0.0-129.0","null","null","","","","","","","","","","","","","","fixation","","","1","10","","","","","","","","","",""
"","","","","","","","","","","","canvas-keyboard-response","130","461827","0.0-130.0","null","null","","","","","","","","","","","","","","stimulus","","","1","10","","","","","","","","","",""
"","","","","","","","","","","","canvas-button-response","131","463222","0.0-131.0","1393","flower","","","","","","","","","","","","","","perceptual","","","1","10","","","","","54","flower","6","","1",""
"","","","","","","","","","","","canvas-button-response","132","464017","0.0-132.0","791","10","","","","","","","","","","","","","","confidence","","","1","10","","","","","","","","","","7"
"","","","","","","","","","","","html-keyboard-response","133","465133","0.0-133.0","null","null","","","","","","","","","","","","","","feedback","Tue Oct 14 2025 21:24:27 GMT-0400 (Eastern Daylight Time)","25082","1","10","","","","","","","","","",""
"","","","","","","","","","","","preload","134","465135","0.0-134.0","","","","","true","","","","","","","","","","","preload","","","1","11","false","[]","[]","[]","","","","","",""
"","","","","","","","","","","","canvas-keyboard-response","135","465442","0.0-135.0","null","null","","","","","","","","","","","","","","fixation","","","1","11","","","","","","","","","",""
"","","","","","","","","","","","canvas-keyboard-response","136","465752","0.0-136.0","null","null","","","","","","","","","","","","","","stimulus","","","1","11","","","","","","","","","",""
"","","","","","","","","","","","canvas-button-response","137","469897","0.0-137.0","4143","phone","","","","","","","","","","","","","","perceptual","","","1","11","","","","","94","knife","6","","0",""
"","","","","","","","","","","","canvas-button-response","138","471027","0.0-138.0","1126","2","","","","","","","","","","","","","","confidence","","","1","11","","","","","","","","","","7"
"","","","","","","","","","","","html-keyboard-response","139","472037","0.0-139.0","null","null","","","","","","","","","","","","","","feedback","Tue Oct 14 2025 21:24:34 GMT-0400 (Eastern Daylight Time)","25082","1","11","","","","","","","","","",""
"","","","","","","","","","","","preload","140","472038","0.0-140.0","","","","","true","","","","","","","","","","","preload","","","1","12","false","[]","[]","[]","","","","","",""
"","","","","","","","","","","","canvas-keyboard-response","141","472351","0.0-141.0","null","null","","","","","","","","","","","","","","fixation","","","1","12","","","","","","","","","",""
"","","","","","","","","","","","canvas-keyboard-response","142","472694","0.0-142.0","null","null","","","","","","","","","","","","","","stimulus","","","1","12","","","","","","","","","",""
"","","","","","","","","","","","canvas-button-response","143","473675","0.0-143.0","978","house","","","","","","","","","","","","","","perceptual","","","1","12","","","","","7","house","10","","1",""
"","","","","","","","","","","","canvas-button-response","144","474445","0.0-144.0","769","10","","","","","","","","","","","","","","confidence","","","1","12","","","","","","","","","","8"
"","","","","","","","","","","","html-keyboard-response","145","475542","0.0-145.0","null","null","","","","","","","","","","","","","","feedback","Tue Oct 14 2025 21:24:38 GMT-0400 (Eastern Daylight Time)","25082","1","12","","","","","","","","","",""
"","","","","","","","","","","","preload","146","475543","0.0-146.0","","","","","true","","","","","","","","","","","preload","","","1","13","false","[]","[]","[]","","","","","",""
"","","","","","","","","","","","canvas-keyboard-response","147","475857","0.0-147.0","null","null","","","","","","","","","","","","","","fixation","","","1","13","","","","","","","","","",""
"","","","","","","","","","","","canvas-keyboard-response","148","476197","0.0-148.0","null","null","","","","","","","","","","","","","","stimulus","","","1","13","","","","","","","","","",""
"","","","","","","","","","","","canvas-button-response","149","477247","0.0-149.0","1049","car","","","","","","","","","","","","","","perceptual","","","1","13","","","","","17","car","10","","1",""
"","","","","","","","","","","","canvas-button-response","150","478069","0.0-150.0","817","4","","","","","","","","","","","","","","confidence","","","1","13","","","","","","","","","","9"
"","","","","","","","","","","","html-keyboard-response","151","479169","0.0-151.0","null","null","","","","","","","","","","","","","","feedback","Tue Oct 14 2025 21:24:42 GMT-0400 (Eastern Daylight Time)","25082","1","13","","","","","","","","","",""
"","","","","","","","","","","","preload","152","479170","0.0-152.0","","","","","true","","","","","","","","","","","preload","","","1","14","false","[]","[]","[]","","","","","",""
"","","","","","","","","","","","canvas-keyboard-response","153","479481","0.0-153.0","null","null","","","","","","","","","","","","","","fixation","","","1","14","","","","","","","","","",""
"","","","","","","","","","","","canvas-keyboard-response","154","479790","0.0-154.0","null","null","","","","","","","","","","","","","","stimulus","","","1","14","","","","","","","","","",""
"","","","","","","","","","","","canvas-button-response","155","481132","0.0-155.0","1335","bed","","","","","","","","","","","","","","perceptual","","","1","14","","","","","34","bed","6","","1",""
"","","","","","","","","","","","canvas-button-response","156","481795","0.0-156.0","660","8","","","","","","","","","","","","","","confidence","","","1","14","","","","","","","","","","10"
"","","","","","","","","","","","html-keyboard-response","157","482810","0.0-157.0","null","null","","","","","","","","","","","","","","feedback","Tue Oct 14 2025 21:24:45 GMT-0400 (Eastern Daylight Time)","25082","1","14","","","","","","","","","",""
"","","","","","","","","","","","preload","158","482812","0.0-158.0","","","","","true","","","","","","","","","","","preload","","","1","15","false","[]","[]","[]","","","","","",""
"","","","","","","","","","","","canvas-keyboard-response","159","483137","0.0-159.0","null","null","","","","","","","","","","","","","","fixation","","","1","15","","","","","","","","","",""
"","","","","","","","","","","","canvas-keyboard-response","160","483463","0.0-160.0","null","null","","","","","","","","","","","","","","stimulus","","","1","15","","","","","","","","","",""
"","","","","","","","","","","","canvas-button-response","161","484859","0.0-161.0","1391","car","","","","","","","","","","","","","","perceptual","","","1","15","","","","","47","bridge","10","","0",""
"","","","","","","","","","","","canvas-button-response","162","486180","0.0-162.0","1318","0","","","","","","","","","","","","","","confidence","","","1","15","","","","","","","","","","10"
"","","","","","","","","","","","html-keyboard-response","163","487227","0.0-163.0","null","null","","","","","","","","","","","","","","feedback","Tue Oct 14 2025 21:24:50 GMT-0400 (Eastern Daylight Time)","25082","1","15","","","","","","","","","",""
"","","","","","","","","","","","preload","164","487229","0.0-164.0","","","","","true","","","","","","","","","","","preload","","","1","16","false","[]","[]","[]","","","","","",""
"","","","","","","","","","","","canvas-keyboard-response","165","487552","0.0-165.0","null","null","","","","","","","","","","","","","","fixation","","","1","16","","","","","","","","","",""
"","","","","","","","","","","","canvas-keyboard-response","166","487864","0.0-166.0","null","null","","","","","","","","","","","","","","stimulus","","","1","16","","","","","","","","","",""
"","","","","","","","","","","","canvas-button-response","167","489004","0.0-167.0","1137","train","","","","","","","","","","","","","","perceptual","","","1","16","","","","","64","train","6","","1",""
"","","","","","","","","","","","canvas-button-response","168","489792","0.0-168.0","785","10","","","","","","","","","","","","","","confidence","","","1","16","","","","","","","","","","11"
"","","","","","","","","","","","html-keyboard-response","169","490798","0.0-169.0","null","null","","","","","","","","","","","","","","feedback","Tue Oct 14 2025 21:24:53 GMT-0400 (Eastern Daylight Time)","25082","1","16","","","","","","","","","",""
"","","","","","","","","","","","preload","170","490799","0.0-170.0","","","","","true","","","","","","","","","","","preload","","","1","17","false","[]","[]","[]","","","","","",""
"","","","","","","","","","","","canvas-keyboard-response","171","491126","0.0-171.0","null","null","","","","","","","","","","","","","","fixation","","","1","17","","","","","","","","","",""
"","","","","","","","","","","","canvas-keyboard-response","172","491436","0.0-172.0","null","null","","","","","","","","","","","","","","stimulus","","","1","17","","","","","","","","","",""
"","","","","","","","","","","","canvas-button-response","173","492955","0.0-173.0","1518","knife","","","","","","","","","","","","","","perceptual","","","1","17","","","","","97","knife","10","","1",""
"","","","","","","","","","","","canvas-button-response","174","493809","0.0-174.0","850","10","","","","","","","","","","","","","","confidence","","","1","17","","","","","","","","","","12"
"","","","","","","","","","","","html-keyboard-response","175","494823","0.0-175.0","null","null","","","","","","","","","","","","","","feedback","Tue Oct 14 2025 21:24:57 GMT-0400 (Eastern Daylight Time)","25082","1","17","","","","","","","","","",""
"","","","","","","","","","","","preload","176","494824","0.0-176.0","","","","","true","","","","","","","","","","","preload","","","1","18","false","[]","[]","[]","","","","","",""
"","","","","","","","","","","","canvas-keyboard-response","177","495136","0.0-177.0","null","null","","","","","","","","","","","","","","fixation","","","1","18","","","","","","","","","",""
"","","","","","","","","","","","canvas-keyboard-response","178","495447","0.0-178.0","null","null","","","","","","","","","","","","","","stimulus","","","1","18","","","","","","","","","",""
"","","","","","","","","","","","canvas-button-response","179","496479","0.0-179.0","1027","phone","","","","","","","","","","","","","","perceptual","","","1","18","","","","","24","phone","6","","1",""
"","","","","","","","","","","","canvas-button-response","180","497207","0.0-180.0","724","8","","","","","","","","","","","","","","confidence","","","1","18","","","","","","","","","","13"
"","","","","","","","","","","","html-keyboard-response","181","498305","0.0-181.0","null","null","","","","","","","","","","","","","","feedback","Tue Oct 14 2025 21:25:01 GMT-0400 (Eastern Daylight Time)","25082","1","18","","","","","","","","","",""
"","","","","","","","","","","","preload","182","498306","0.0-182.0","","","","","true","","","","","","","","","","","preload","","","1","19","false","[]","[]","[]","","","","","",""
"","","","","","","","","","","","canvas-keyboard-response","183","498632","0.0-183.0","null","null","","","","","","","","","","","","","","fixation","","","1","19","","","","","","","","","",""
"","","","","","","","","","","","canvas-keyboard-response","184","498956","0.0-184.0","null","null","","","","","","","","","","","","","","stimulus","","","1","19","","","","","","","","","",""
"","","","","","","","","","","","canvas-button-response","185","501687","0.0-185.0","2728","elephant","","","","","","","","","","","","","","perceptual","","","1","19","","","","","84","elephant","6","","1",""
"","","","","","","","","","","","canvas-button-response","186","502305","0.0-186.0","614","9","","","","","","","","","","","","","","confidence","","","1","19","","","","","","","","","","14"
"","","","","","","","","","","","html-keyboard-response","187","503314","0.0-187.0","null","null","","","","","","","","","","","","","","feedback","Tue Oct 14 2025 21:25:06 GMT-0400 (Eastern Daylight Time)","25082","1","19","","","","","","","","","",""
"","","","","","","","","","","","html-button-response","188","524176","0.0-188.0","20860","0","","","","","","","","","","","","","","start experiment","Tue Oct 14 2025 21:25:07 GMT-0400 (Eastern Daylight Time)","25082","1","19","","","","","","","","","",""
"","","","","","","","","","","","preload","189","524177","0.0-189.0","","","","","true","","","","","","","","","","","preload","","","2","0","false","[]","[]","[]","","","","","",""
"","","","","","","","","","","","canvas-keyboard-response","190","524494","0.0-190.0","null","null","","","","","","","","","","","","","","fixation","","","2","0","","","","","","","","","",""
"","","","","","","","","","","","canvas-keyboard-response","191","524820","0.0-191.0","null","null","","","","","","","","","","","","","","stimulus","","","2","0","","","","","","","","","",""
"","","","","","","","","","","","canvas-button-response","192","526825","0.0-192.0","2003","house","","","","","","","","","","","","","","perceptual","","","2","0","","","","","225","flower","10","0","0",""
"","","","","","","","","","","","canvas-button-response","193","527819","0.0-193.0","990","0","","","","","","","","","","","","","","confidence","","","2","0","","","","","","","","","","0"
"","","","","","","","","","","","preload","194","527820","0.0-194.0","","","","","true","","","","","","","","","","","preload","","","2","1","false","[]","[]","[]","","","","","",""
"","","","","","","","","","","","canvas-keyboard-response","195","528133","0.0-195.0","null","null","","","","","","","","","","","","","","fixation","","","2","1","","","","","","","","","",""
"","","","","","","","","","","","canvas-keyboard-response","196","528445","0.0-196.0","null","null","","","","","","","","","","","","","","stimulus","","","2","1","","","","","","","","","",""
"","","","","","","","","","","","canvas-button-response","197","530273","0.0-197.0","1826","bridge","","","","","","","","","","","","","","perceptual","","","2","1","","","","","157","bed","10","0","0",""
"","","","","","","","","","","","canvas-button-response","198","531378","0.0-198.0","1100","0","","","","","","","","","","","","","","confidence","","","2","1","","","","","","","","","","0"
"","","","","","","","","","","","preload","199","531380","0.0-199.0","","","","","true","","","","","","","","","","","preload","","","2","2","false","[]","[]","[]","","","","","",""
"","","","","","","","","","","","canvas-keyboard-response","200","531688","0.0-200.0","null","null","","","","","","","","","","","","","","fixation","","","2","2","","","","","","","","","",""
"","","","","","","","","","","","canvas-keyboard-response","201","531997","0.0-201.0","null","null","","","","","","","","","","","","","","stimulus","","","2","2","","","","","","","","","",""
"","","","","","","","","","","","canvas-button-response","202","534682","0.0-202.0","2682","flower","","","","","","","","","","","","","","perceptual","","","2","2","","","","","239","flower","10","0","1",""
"","","","","","","","","","","","canvas-button-response","203","536579","0.0-203.0","1893","7","","","","","","","","","","","","","","confidence","","","2","2","","","","","","","","","","1"
"","","","","","","","","","","","preload","204","536580","0.0-204.0","","","","","true","","","","","","","","","","","preload","","","2","3","false","[]","[]","[]","","","","","",""
"","","","","","","","","","","","canvas-keyboard-response","205","536885","0.0-205.0","null","null","","","","","","","","","","","","","","fixation","","","2","3","","","","","","","","","",""
"","","","","","","","","","","","canvas-keyboard-response","206","537196","0.0-206.0","null","null","","","","","","","","","","","","","","stimulus","","","2","3","","","","","","","","","",""
"","","","","","","","","","","","canvas-button-response","207","538310","0.0-207.0","1112","car","","","","","","","","","","","","","","perceptual","","","2","3","","","","","49","car","6","0","1",""
"","","","","","","","","","","","canvas-button-response","208","538968","0.0-208.0","656","10","","","","","","","","","","","","","","confidence","","","2","3","","","","","","","","","","2"
"","","","","","","","","","","","preload","209","538971","0.0-209.0","","","","","true","","","","","","","","","","","preload","","","2","4","false","[]","[]","[]","","","","","",""
"","","","","","","","","","","","canvas-keyboard-response","210","539278","0.0-210.0","null","null","","","","","","","","","","","","","","fixation","","","2","4","","","","","","","","","",""
"","","","","","","","","","","","canvas-keyboard-response","211","539591","0.0-211.0","null","null","","","","","","","","","","","","","","stimulus","","","2","4","","","","","","","","","",""
"","","","","","","","","","","","canvas-button-response","212","540923","0.0-212.0","1329","phone","","","","","","","","","","","","","","perceptual","","","2","4","","","","","108","phone","10","0","1",""
"","","","","","","","","","","","canvas-button-response","213","541597","0.0-213.0","669","5","","","","","","","","","","","","","","confidence","","","2","4","","","","","","","","","","3"
"","","","","","","","","","","","preload","214","541600","0.0-214.0","","","","","true","","","","","","","","","","","preload","","","2","5","false","[]","[]","[]","","","","","",""
"","","","","","","","","","","","canvas-keyboard-response","215","541905","0.0-215.0","null","null","","","","","","","","","","","","","","fixation","","","2","5","","","","","","","","","",""
"","","","","","","","","","","","canvas-keyboard-response","216","542214","0.0-216.0","null","null","","","","","","","","","","","","","","stimulus","","","2","5","","","","","","","","","",""
"","","","","","","","","","","","canvas-button-response","217","543588","0.0-217.0","1371","house","","","","","","","","","","","","","","perceptual","","","2","5","","","","","177","bridge","6","0","0",""
"","","","","","","","","","","","canvas-button-response","218","544284","0.0-218.0","688","2","","","","","","","","","","","","","","confidence","","","2","5","","","","","","","","","","3"
"","","","","","","","","","","","preload","219","544287","0.0-219.0","","","","","true","","","","","","","","","","","preload","","","2","6","false","[]","[]","[]","","","","","",""
"","","","","","","","","","","","canvas-keyboard-response","220","544589","0.0-220.0","null","null","","","","","","","","","","","","","","fixation","","","2","6","","","","","","","","","",""
"","","","","","","","","","","","canvas-keyboard-response","221","544902","0.0-221.0","null","null","","","","","","","","","","","","","","stimulus","","","2","6","","","","","","","","","",""
"","","","","","","","","","","","canvas-button-response","222","547225","0.0-222.0","2322","house","","","","","","","","","","","","","","perceptual","","","2","6","","","","","193","bridge","10","0","0",""
"","","","","","","","","","","","canvas-button-response","223","548057","0.0-223.0","829","2","","","","","","","","","","","","","","confidence","","","2","6","","","","","","","","","","3"
"","","","","","","","","","","","preload","224","548060","0.0-224.0","","","","","true","","","","","","","","","","","preload","","","2","7","false","[]","[]","[]","","","","","",""
"","","","","","","","","","","","canvas-keyboard-response","225","548372","0.0-225.0","null","null","","","","","","","","","","","","","","fixation","","","2","7","","","","","","","","","",""
"","","","","","","","","","","","canvas-keyboard-response","226","548679","0.0-226.0","null","null","","","","","","","","","","","","","","stimulus","","","2","7","","","","","","","","","",""
"","","","","","","","","","","","canvas-button-response","227","550387","0.0-227.0","1705","bridge","","","","","","","","","","","","","","perceptual","","","2","7","","","","","102","phone","10","0","0",""
"","","","","","","","","","","","canvas-button-response","228","551043","0.0-228.0","651","2","","","","","","","","","","","","","","confidence","","","2","7","","","","","","","","","","3"
"","","","","","","","","","","","preload","229","551045","0.0-229.0","","","","","true","","","","","","","","","","","preload","","","2","8","false","[]","[]","[]","","","","","",""
"","","","","","","","","","","","canvas-keyboard-response","230","551346","0.0-230.0","null","null","","","","","","","","","","","","","","fixation","","","2","8","","","","","","","","","",""
"","","","","","","","","","","","canvas-keyboard-response","231","551657","0.0-231.0","null","null","","","","","","","","","","","","","","stimulus","","","2","8","","","","","","","","","",""
"","","","","","","","","","","","canvas-button-response","232","557024","0.0-232.0","5365","flower","","","","","","","","","","","","","","perceptual","","","2","8","","","","","81","phone","6","0","0",""
"","","","","","","","","","","","canvas-button-response","233","558470","0.0-233.0","1443","0","","","","","","","","","","","","","","confidence","","","2","8","","","","","","","","","","3"
"","","","","","","","","","","","preload","234","558473","0.0-234.0","","","","","true","","","","","","","","","","","preload","","","2","9","false","[]","[]","[]","","","","","",""
"","","","","","","","","","","","canvas-keyboard-response","235","558785","0.0-235.0","null","null","","","","","","","","","","","","","","fixation","","","2","9","","","","","","","","","",""
"","","","","","","","","","","","canvas-keyboard-response","236","559095","0.0-236.0","null","null","","","","","","","","","","","","","","stimulus","","","2","9","","","","","","","","","",""
"","","","","","","","","","","","canvas-button-response","237","560618","0.0-237.0","1521","bed","","","","","","","","","","","","","","perceptual","","","2","9","","","","","310","cat","10","0","0",""
"","","","","","","","","","","","canvas-button-response","238","561430","0.0-238.0","809","1","","","","","","","","","","","","","","confidence","","","2","9","","","","","","","","","","3"
"","","","","","","","","","","","preload","239","561432","0.0-239.0","","","","","true","","","","","","","","","","","preload","","","2","10","false","[]","[]","[]","","","","","",""
"","","","","","","","","","","","canvas-keyboard-response","240","561744","0.0-240.0","null","null","","","","","","","","","","","","","","fixation","","","2","10","","","","","","","","","",""
"","","","","","","","","","","","canvas-keyboard-response","241","562051","0.0-241.0","null","null","","","","","","","","","","","","","","stimulus","","","2","10","","","","","","","","","",""
"","","","","","","","","","","","canvas-button-response","242","563278","0.0-242.0","1226","car","","","","","","","","","","","","","","perceptual","","","2","10","","","","","290","cat","6","0","0",""
"","","","","","","","","","","","canvas-button-response","243","564139","0.0-243.0","858","1","","","","","","","","","","","","","","confidence","","","2","10","","","","","","","","","","3"
"","","","","","","","","","","","preload","244","564141","0.0-244.0","","","","","true","","","","","","","","","","","preload","","","2","11","false","[]","[]","[]","","","","","",""
"","","","","","","","","","","","canvas-keyboard-response","245","564443","0.0-245.0","null","null","","","","","","","","","","","","","","fixation","","","2","11","","","","","","","","","",""
"","","","","","","","","","","","canvas-keyboard-response","246","564752","0.0-246.0","null","null","","","","","","","","","","","","","","stimulus","","","2","11","","","","","","","","","",""
"","","","","","","","","","","","canvas-button-response","247","566126","0.0-247.0","1373","bridge","","","","","","","","","","","","","","perceptual","","","2","11","","","","","198","bridge","10","0","1",""
"","","","","","","","","","","","canvas-button-response","248","566826","0.0-248.0","698","8","","","","","","","","","","","","","","confidence","","","2","11","","","","","","","","","","4"
"","","","","","","","","","","","preload","249","566829","0.0-249.0","","","","","true","","","","","","","","","","","preload","","","2","12","false","[]","[]","[]","","","","","",""
"","","","","","","","","","","","canvas-keyboard-response","250","567143","0.0-250.0","null","null","","","","","","","","","","","","","","fixation","","","2","12","","","","","","","","","",""
"","","","","","","","","","","","canvas-keyboard-response","251","567453","0.0-251.0","null","null","","","","","","","","","","","","","","stimulus","","","2","12","","","","","","","","","",""
"","","","","","","","","","","","canvas-button-response","252","569647","0.0-252.0","2191","bed","","","","","","","","","","","","","","perceptual","","","2","12","","","","","112","phone","10","0","0",""
"","","","","","","","","","","","canvas-button-response","253","570871","0.0-253.0","1221","0","","","","","","","","","","","","","","confidence","","","2","12","","","","","","","","","","4"
"","","","","","","","","","","","preload","254","570873","0.0-254.0","","","","","true","","","","","","","","","","","preload","","","2","13","false","[]","[]","[]","","","","","",""
"","","","","","","","","","","","canvas-keyboard-response","255","571183","0.0-255.0","null","null","","","","","","","","","","","","","","fixation","","","2","13","","","","","","","","","",""
"","","","","","","","","","","","canvas-keyboard-response","256","571491","0.0-256.0","null","null","","","","","","","","","","","","","","stimulus","","","2","13","","","","","","","","","",""
"","","","","","","","","","","","canvas-button-response","257","572489","0.0-257.0","996","house","","","","","","","","","","","","","","perceptual","","","2","13","","","","","16","house","6","0","1",""
"","","","","","","","","","","","canvas-button-response","258","573482","0.0-258.0","989","10","","","","","","","","","","","","","","confidence","","","2","13","","","","","","","","","","5"
"","","","","","","","","","","","preload","259","573485","0.0-259.0","","","","","true","","","","","","","","","","","preload","","","2","14","false","[]","[]","[]","","","","","",""
"","","","","","","","","","","","canvas-keyboard-response","260","573792","0.0-260.0","null","null","","","","","","","","","","","","","","fixation","","","2","14","","","","","","","","","",""
"","","","","","","","","","","","canvas-keyboard-response","261","574101","0.0-261.0","null","null","","","","","","","","","","","","","","stimulus","","","2","14","","","","","","","","","",""
"","","","","","","","","","","","canvas-button-response","262","575677","0.0-262.0","1574","bridge","","","","","","","","","","","","","","perceptual","","","2","14","","","","","266","train","10","0","0",""
"","","","","","","","","","","","canvas-button-response","263","576513","0.0-263.0","832","3","","","","","","","","","","","","","","confidence","","","2","14","","","","","","","","","","5"
"","","","","","","","","","","","preload","264","576515","0.0-264.0","","","","","true","","","","","","","","","","","preload","","","2","15","false","[]","[]","[]","","","","","",""
"","","","","","","","","","","","canvas-keyboard-response","265","576822","0.0-265.0","null","null","","","","","","","","","","","","","","fixation","","","2","15","","","","","","","","","",""
"","","","","","","","","","","","canvas-keyboard-response","266","577130","0.0-266.0","null","null","","","","","","","","","","","","","","stimulus","","","2","15","","","","","","","","","",""
"","","","","","","","","","","","canvas-button-response","267","578981","0.0-267.0","1849","phone","","","","","","","","","","","","","","perceptual","","","2","15","","","","","80","phone","6","0","1",""
"","","","","","","","","","","","canvas-button-response","268","579980","0.0-268.0","996","2","","","","","","","","","","","","","","confidence","","","2","15","","","","","","","","","","6"
"","","","","","","","","","","","preload","269","579982","0.0-269.0","","","","","true","","","","","","","","","","","preload","","","2","16","false","[]","[]","[]","","","","","",""
"","","","","","","","","","","","canvas-keyboard-response","270","580288","0.0-270.0","null","null","","","","","","","","","","","","","","fixation","","","2","16","","","","","","","","","",""
"","","","","","","","","","","","canvas-keyboard-response","271","580597","0.0-271.0","null","null","","","","","","","","","","","","","","stimulus","","","2","16","","","","","","","","","",""
"","","","","","","","","","","","canvas-button-response","272","581578","0.0-272.0","980","bridge","","","","","","","","","","","","","","perceptual","","","2","16","","","","","296","cat","6","0","0",""
"","","","","","","","","","","","canvas-button-response","273","582182","0.0-273.0","601","2","","","","","","","","","","","","","","confidence","","","2","16","","","","","","","","","","6"
"","","","","","","","","","","","preload","274","582184","0.0-274.0","","","","","true","","","","","","","","","","","preload","","","2","17","false","[]","[]","[]","","","","","",""
"","","","","","","","","","","","canvas-keyboard-response","275","582501","0.0-275.0","null","null","","","","","","","","","","","","","","fixation","","","2","17","","","","","","","","","",""
"","","","","","","","","","","","canvas-keyboard-response","276","582826","0.0-276.0","null","null","","","","","","","","","","","","","","stimulus","","","2","17","","","","","","","","","",""
"","","","","","","","","","","","canvas-button-response","277","583801","0.0-277.0","972","bridge","","","","","","","","","","","","","","perceptual","","","2","17","","","","","158","bed","10","0","0",""
"","","","","","","","","","","","canvas-button-response","278","584415","0.0-278.0","611","1","","","","","","","","","","","","","","confidence","","","2","17","","","","","","","","","","6"
"","","","","","","","","","","","preload","279","584417","0.0-279.0","","","","","true","","","","","","","","","","","preload","","","2","18","false","[]","[]","[]","","","","","",""
"","","","","","","","","","","","canvas-keyboard-response","280","584721","0.0-280.0","null","null","","","","","","","","","","","","","","fixation","","","2","18","","","","","","","","","",""
"","","","","","","","","","","","canvas-keyboard-response","281","585032","0.0-281.0","null","null","","","","","","","","","","","","","","stimulus","","","2","18","","","","","","","","","",""
"","","","","","","","","","","","canvas-button-response","282","585806","0.0-282.0","773","bed","","","","","","","","","","","","","","perceptual","","","2","18","","","","","154","bed","10","0","1",""
"","","","","","","","","","","","canvas-button-response","283","586642","0.0-283.0","834","10","","","","","","","","","","","","","","confidence","","","2","18","","","","","","","","","","7"
"","","","","","","","","","","","preload","284","586644","0.0-284.0","","","","","true","","","","","","","","","","","preload","","","2","19","false","[]","[]","[]","","","","","",""
"","","","","","","","","","","","canvas-keyboard-response","285","586958","0.0-285.0","null","null","","","","","","","","","","","","","","fixation","","","2","19","","","","","","","","","",""
"","","","","","","","","","","","canvas-keyboard-response","286","587271","0.0-286.0","null","null","","","","","","","","","","","","","","stimulus","","","2","19","","","","","","","","","",""
"","","","","","","","","","","","canvas-button-response","287","588489","0.0-287.0","1216","cat","","","","","","","","","","","","","","perceptual","","","2","19","","","","","232","flower","10","0","0",""
"","","","","","","","","","","","canvas-button-response","288","589344","0.0-288.0","852","5","","","","","","","","","","","","","","confidence","","","2","19","","","","","","","","","","7"
"","","","","","","","","","","","preload","289","589347","0.0-289.0","","","","","true","","","","","","","","","","","preload","","","2","20","false","[]","[]","[]","","","","","",""
"","","","","","","","","","","","canvas-keyboard-response","290","589648","0.0-290.0","null","null","","","","","","","","","","","","","","fixation","","","2","20","","","","","","","","","",""
"","","","","","","","","","","","canvas-keyboard-response","291","589958","0.0-291.0","null","null","","","","","","","","","","","","","","stimulus","","","2","20","","","","","","","","","",""
"","","","","","","","","","","","canvas-button-response","292","590978","0.0-292.0","1017","flower","","","","","","","","","","","","","","perceptual","","","2","20","","","","","217","flower","6","0","1",""
"","","","","","","","","","","","canvas-button-response","293","591870","0.0-293.0","887","10","","","","","","","","","","","","","","confidence","","","2","20","","","","","","","","","","8"
"","","","","","","","","","","","preload","294","591872","0.0-294.0","","","","","true","","","","","","","","","","","preload","","","2","21","false","[]","[]","[]","","","","","",""
"","","","","","","","","","","","canvas-keyboard-response","295","592187","0.0-295.0","null","null","","","","","","","","","","","","","","fixation","","","2","21","","","","","","","","","",""
"","","","","","","","","","","","canvas-keyboard-response","296","592509","0.0-296.0","null","null","","","","","","","","","","","","","","stimulus","","","2","21","","","","","","","","","",""
"","","","","","","","","","","","canvas-button-response","297","593401","0.0-297.0","890","flower","","","","","","","","","","","","","","perceptual","","","2","21","","","","","209","flower","6","0","1",""
"","","","","","","","","","","","canvas-button-response","298","594132","0.0-298.0","727","10","","","","","","","","","","","","","","confidence","","","2","21","","","","","","","","","","9"
"","","","","","","","","","","","preload","299","594134","0.0-299.0","","","","","true","","","","","","","","","","","preload","","","2","22","false","[]","[]","[]","","","","","",""
"","","","","","","","","","","","canvas-keyboard-response","300","594437","0.0-300.0","null","null","","","","","","","","","","","","","","fixation","","","2","22","","","","","","","","","",""
"","","","","","","","","","","","canvas-keyboard-response","301","594748","0.0-301.0","null","null","","","","","","","","","","","","","","stimulus","","","2","22","","","","","","","","","",""
"","","","","","","","","","","","canvas-button-response","302","601442","0.0-302.0","6692","house","","","","","","","","","","","","","","perceptual","","","2","22","","","","","136","bed","6","0","0",""
"","","","","","","","","","","","canvas-button-response","303","602491","0.0-303.0","1044","1","","","","","","","","","","","","","","confidence","","","2","22","","","","","","","","","","9"
"","","","","","","","","","","","preload","304","602498","0.0-304.0","","","","","true","","","","","","","","","","","preload","","","2","23","false","[]","[]","[]","","","","","",""
"","","","","","","","","","","","canvas-keyboard-response","305","602802","0.0-305.0","null","null","","","","","","","","","","","","","","fixation","","","2","23","","","","","","","","","",""
"","","","","","","","","","","","canvas-keyboard-response","306","603112","0.0-306.0","null","null","","","","","","","","","","","","","","stimulus","","","2","23","","","","","","","","","",""
"","","","","","","","","","","","canvas-button-response","307","604183","0.0-307.0","1069","flower","","","","","","","","","","","","","","perceptual","","","2","23","","","","","226","flower","10","0","1",""
"","","","","","","","","","","","canvas-button-response","308","604970","0.0-308.0","784","10","","","","","","","","","","","","","","confidence","","","2","23","","","","","","","","","","10"
"","","","","","","","","","","","preload","309","604973","0.0-309.0","","","","","true","","","","","","","","","","","preload","","","2","24","false","[]","[]","[]","","","","","",""
"","","","","","","","","","","","canvas-keyboard-response","310","605285","0.0-310.0","null","null","","","","","","","","","","","","","","fixation","","","2","24","","","","","","","","","",""
"","","","","","","","","","","","canvas-keyboard-response","311","605596","0.0-311.0","null","null","","","","","","","","","","","","","","stimulus","","","2","24","","","","","","","","","",""
"","","","","","","","","","","","canvas-button-response","312","606674","0.0-312.0","1076","car","","","","","","","","","","","","","","perceptual","","","2","24","","","","","98","phone","6","0","0",""
"","","","","","","","","","","","canvas-button-response","313","607877","0.0-313.0","1198","2","","","","","","","","","","","","","","confidence","","","2","24","","","","","","","","","","10"
"","","","","","","","","","","","preload","314","607879","0.0-314.0","","","","","true","","","","","","","","","","","preload","","","2","25","false","[]","[]","[]","","","","","",""
"","","","","","","","","","","","canvas-keyboard-response","315","608182","0.0-315.0","null","null","","","","","","","","","","","","","","fixation","","","2","25","","","","","","","","","",""
"","","","","","","","","","","","canvas-keyboard-response","316","608492","0.0-316.0","null","null","","","","","","","","","","","","","","stimulus","","","2","25","","","","","","","","","",""
"","","","","","","","","","","","canvas-button-response","317","609684","0.0-317.0","1188","bridge","","","","","","","","","","","","","","perceptual","","","2","25","","","","","12","house","6","0","0",""
"","","","","","","","","","","","canvas-button-response","318","610262","0.0-318.0","575","2","","","","","","","","","","","","","","confidence","","","2","25","","","","","","","","","","10"
"","","","","","","","","","","","preload","319","610264","0.0-319.0","","","","","true","","","","","","","","","","","preload","","","2","26","false","[]","[]","[]","","","","","",""
"","","","","","","","","","","","canvas-keyboard-response","320","610575","0.0-320.0","null","null","","","","","","","","","","","","","","fixation","","","2","26","","","","","","","","","",""
"","","","","","","","","","","","canvas-keyboard-response","321","610887","0.0-321.0","null","null","","","","","","","","","","","","","","stimulus","","","2","26","","","","","","","","","",""
"","","","","","","","","","","","canvas-button-response","322","611937","0.0-322.0","1047","bridge","","","","","","","","","","","","","","perceptual","","","2","26","","","","","186","bridge","10","0","1",""
"","","","","","","","","","","","canvas-button-response","323","613076","0.0-323.0","1136","3","","","","","","","","","","","","","","confidence","","","2","26","","","","","","","","","","11"
"","","","","","","","","","","","preload","324","613080","0.0-324.0","","","","","true","","","","","","","","","","","preload","","","2","27","false","[]","[]","[]","","","","","",""
"","","","","","","","","","","","canvas-keyboard-response","325","613383","0.0-325.0","null","null","","","","","","","","","","","","","","fixation","","","2","27","","","","","","","","","",""
"","","","","","","","","","","","canvas-keyboard-response","326","613698","0.0-326.0","null","null","","","","","","","","","","","","","","stimulus","","","2","27","","","","","","","","","",""
"","","","","","","","","","","","canvas-button-response","327","614993","0.0-327.0","1291","house","","","","","","","","","","","","","","perceptual","","","2","27","","","","","11","house","6","0","1",""
"","","","","","","","","","","","canvas-button-response","328","615740","0.0-328.0","746","7","","","","","","","","","","","","","","confidence","","","2","27","","","","","","","","","","12"
"","","","","","","","","","","","preload","329","615743","0.0-329.0","","","","","true","","","","","","","","","","","preload","","","2","28","false","[]","[]","[]","","","","","",""
"","","","","","","","","","","","canvas-keyboard-response","330","616055","0.0-330.0","null","null","","","","","","","","","","","","","","fixation","","","2","28","","","","","","","","","",""
"","","","","","","","","","","","canvas-keyboard-response","331","616366","0.0-331.0","null","null","","","","","","","","","","","","","","stimulus","","","2","28","","","","","","","","","",""
"","","","","","","","","","","","canvas-button-response","332","617511","0.0-332.0","1143","bridge","","","","","","","","","","","","","","perceptual","","","2","28","","","","","114","phone","10","0","0",""
"","","","","","","","","","","","canvas-button-response","333","618110","0.0-333.0","596","3","","","","","","","","","","","","","","confidence","","","2","28","","","","","","","","","","12"
"","","","","","","","","","","","preload","334","618113","0.0-334.0","","","","","true","","","","","","","","","","","preload","","","2","29","false","[]","[]","[]","","","","","",""
"","","","","","","","","","","","canvas-keyboard-response","335","618417","0.0-335.0","null","null","","","","","","","","","","","","","","fixation","","","2","29","","","","","","","","","",""
"","","","","","","","","","","","canvas-keyboard-response","336","618726","0.0-336.0","null","null","","","","","","","","","","","","","","stimulus","","","2","29","","","","","","","","","",""
"","","","","","","","","","","","canvas-button-response","337","620048","0.0-337.0","1318","car","","","","","","","","","","","","","","perceptual","","","2","29","","","","","51","car","6","0","1",""
"","","","","","","","","","","","canvas-button-response","338","621119","0.0-338.0","1067","10","","","","","","","","","","","","","","confidence","","","2","29","","","","","","","","","","13"
"","","","","","","","","","","","preload","339","621122","0.0-339.0","","","","","true","","","","","","","","","","","preload","","","2","30","false","[]","[]","[]","","","","","",""
"","","","","","","","","","","","canvas-keyboard-response","340","621431","0.0-340.0","null","null","","","","","","","","","","","","","","fixation","","","2","30","","","","","","","","","",""
"","","","","","","","","","","","canvas-keyboard-response","341","621739","0.0-341.0","null","null","","","","","","","","","","","","","","stimulus","","","2","30","","","","","","","","","",""
"","","","","","","","","","","","canvas-button-response","342","623543","0.0-342.0","1803","car","","","","","","","","","","","","","","perceptual","","","2","30","","","","","40","car","6","0","1",""
"","","","","","","","","","","","canvas-button-response","343","624283","0.0-343.0","736","10","","","","","","","","","","","","","","confidence","","","2","30","","","","","","","","","","14"
"","","","","","","","","","","","preload","344","624285","0.0-344.0","","","","","true","","","","","","","","","","","preload","","","2","31","false","[]","[]","[]","","","","","",""
"","","","","","","","","","","","canvas-keyboard-response","345","624597","0.0-345.0","null","null","","","","","","","","","","","","","","fixation","","","2","31","","","","","","","","","",""
"","","","","","","","","","","","canvas-keyboard-response","346","624904","0.0-346.0","null","null","","","","","","","","","","","","","","stimulus","","","2","31","","","","","","","","","",""
"","","","","","","","","","","","canvas-button-response","347","626459","0.0-347.0","1552","house","","","","","","","","","","","","","","perceptual","","","2","31","","","","","18","house","6","0","1",""
"","","","","","","","","","","","canvas-button-response","348","627721","0.0-348.0","1258","5","","","","","","","","","","","","","","confidence","","","2","31","","","","","","","","","","15"
"","","","","","","","","","","","preload","349","627723","0.0-349.0","","","","","true","","","","","","","","","","","preload","","","2","32","false","[]","[]","[]","","","","","",""
"","","","","","","","","","","","canvas-keyboard-response","350","628039","0.0-350.0","null","null","","","","","","","","","","","","","","fixation","","","2","32","","","","","","","","","",""
"","","","","","","","","","","","canvas-keyboard-response","351","628348","0.0-351.0","null","null","","","","","","","","","","","","","","stimulus","","","2","32","","","","","","","","","",""
"","","","","","","","","","","","canvas-button-response","352","629558","0.0-352.0","1208","elephant","","","","","","","","","","","","","","perceptual","","","2","32","","","","","341","elephant","10","0","1",""
"","","","","","","","","","","","canvas-button-response","353","630652","0.0-353.0","1092","9","","","","","","","","","","","","","","confidence","","","2","32","","","","","","","","","","16"
"","","","","","","","","","","","preload","354","630655","0.0-354.0","","","","","true","","","","","","","","","","","preload","","","2","33","false","[]","[]","[]","","","","","",""
"","","","","","","","","","","","canvas-keyboard-response","355","630972","0.0-355.0","null","null","","","","","","","","","","","","","","fixation","","","2","33","","","","","","","","","",""
"","","","","","","","","","","","canvas-keyboard-response","356","631279","0.0-356.0","null","null","","","","","","","","","","","","","","stimulus","","","2","33","","","","","","","","","",""
"","","","","","","","","","","","canvas-button-response","357","633255","0.0-357.0","1974","house","","","","","","","","","","","","","","perceptual","","","2","33","","","","","150","bed","10","0","0",""
"","","","","","","","","","","","canvas-button-response","358","634204","0.0-358.0","945","7","","","","","","","","","","","","","","confidence","","","2","33","","","","","","","","","","16"
"","","","","","","","","","","","preload","359","634205","0.0-359.0","","","","","true","","","","","","","","","","","preload","","","2","34","false","[]","[]","[]","","","","","",""
"","","","","","","","","","","","canvas-keyboard-response","360","634513","0.0-360.0","null","null","","","","","","","","","","","","","","fixation","","","2","34","","","","","","","","","",""
"","","","","","","","","","","","canvas-keyboard-response","361","634822","0.0-361.0","null","null","","","","","","","","","","","","","","stimulus","","","2","34","","","","","","","","","",""
"","","","","","","","","","","","canvas-button-response","362","635739","0.0-362.0","916","car","","","","","","","","","","","","","","perceptual","","","2","34","","","","","334","elephant","6","0","0",""
"","","","","","","","","","","","canvas-button-response","363","637210","0.0-363.0","1466","0","","","","","","","","","","","","","","confidence","","","2","34","","","","","","","","","","16"
"","","","","","","","","","","","preload","364","637212","0.0-364.0","","","","","true","","","","","","","","","","","preload","","","2","35","false","[]","[]","[]","","","","","",""
"","","","","","","","","","","","canvas-keyboard-response","365","637515","0.0-365.0","null","null","","","","","","","","","","","","","","fixation","","","2","35","","","","","","","","","",""
"","","","","","","","","","","","canvas-keyboard-response","366","637823","0.0-366.0","null","null","","","","","","","","","","","","","","stimulus","","","2","35","","","","","","","","","",""
"","","","","","","","","","","","canvas-button-response","367","638555","0.0-367.0","730","flower","","","","","","","","","","","","","","perceptual","","","2","35","","","","","238","flower","10","0","1",""
"","","","","","","","","","","","canvas-button-response","368","639579","0.0-368.0","1020","10","","","","","","","","","","","","","","confidence","","","2","35","","","","","","","","","","17"
"","","","","","","","","","","","preload","369","639581","0.0-369.0","","","","","true","","","","","","","","","","","preload","","","2","36","false","[]","[]","[]","","","","","",""
"","","","","","","","","","","","canvas-keyboard-response","370","639896","0.0-370.0","null","null","","","","","","","","","","","","","","fixation","","","2","36","","","","","","","","","",""
"","","","","","","","","","","","canvas-keyboard-response","371","640204","0.0-371.0","null","null","","","","","","","","","","","","","","stimulus","","","2","36","","","","","","","","","",""
"","","","","","","","","","","","canvas-button-response","372","641324","0.0-372.0","1117","car","","","","","","","","","","","","","","perceptual","","","2","36","","","","","60","car","10","0","1",""
"","","","","","","","","","","","canvas-button-response","373","642701","0.0-373.0","1375","10","","","","","","","","","","","","","","confidence","","","2","36","","","","","","","","","","18"
"","","","","","","","","","","","preload","374","642703","0.0-374.0","","","","","true","","","","","","","","","","","preload","","","2","37","false","[]","[]","[]","","","","","",""
"","","","","","","","","","","","canvas-keyboard-response","375","643016","0.0-375.0","null","null","","","","","","","","","","","","","","fixation","","","2","37","","","","","","","","","",""
"","","","","","","","","","","","canvas-keyboard-response","376","643327","0.0-376.0","null","null","","","","","","","","","","","","","","stimulus","","","2","37","","","","","","","","","",""
"","","","","","","","","","","","canvas-button-response","377","644658","0.0-377.0","1327","house","","","","","","","","","","","","","","perceptual","","","2","37","","","","","36","house","10","0","1",""
"","","","","","","","","","","","canvas-button-response","378","645871","0.0-378.0","1209","10","","","","","","","","","","","","","","confidence","","","2","37","","","","","","","","","","19"
"","","","","","","","","","","","preload","379","645873","0.0-379.0","","","","","true","","","","","","","","","","","preload","","","2","38","false","[]","[]","[]","","","","","",""
"","","","","","","","","","","","canvas-keyboard-response","380","646184","0.0-380.0","null","null","","","","","","","","","","","","","","fixation","","","2","38","","","","","","","","","",""
"","","","","","","","","","","","canvas-keyboard-response","381","646493","0.0-381.0","null","null","","","","","","","","","","","","","","stimulus","","","2","38","","","","","","","","","",""
"","","","","","","","","","","","canvas-button-response","382","647279","0.0-382.0","782","flower","","","","","","","","","","","","","","perceptual","","","2","38","","","","","203","flower","6","0","1",""
"","","","","","","","","","","","canvas-button-response","383","648056","0.0-383.0","772","10","","","","","","","","","","","","","","confidence","","","2","38","","","","","","","","","","20"
"","","","","","","","","","","","preload","384","648058","0.0-384.0","","","","","true","","","","","","","","","","","preload","","","2","39","false","[]","[]","[]","","","","","",""
"","","","","","","","","","","","canvas-keyboard-response","385","648361","0.0-385.0","null","null","","","","","","","","","","","","","","fixation","","","2","39","","","","","","","","","",""
"","","","","","","","","","","","canvas-keyboard-response","386","648671","0.0-386.0","null","null","","","","","","","","","","","","","","stimulus","","","2","39","","","","","","","","","",""
"","","","","","","","","","","","canvas-button-response","387","651186","0.0-387.0","2514","train","","","","","","","","","","","","","","perceptual","","","2","39","","","","","273","train","10","0","1",""
"","","","","","","","","","","","canvas-button-response","388","651854","0.0-388.0","664","6","","","","","","","","","","","","","","confidence","","","2","39","","","","","","","","","","21"
"","","","","","","","","","","","preload","389","651855","0.0-389.0","","","","","true","","","","","","","","","","","preload","","","2","40","false","[]","[]","[]","","","","","",""
"","","","","","","","","","","","canvas-keyboard-response","390","652158","0.0-390.0","null","null","","","","","","","","","","","","","","fixation","","","2","40","","","","","","","","","",""
"","","","","","","","","","","","canvas-keyboard-response","391","652469","0.0-391.0","null","null","","","","","","","","","","","","","","stimulus","","","2","40","","","","","","","","","",""
"","","","","","","","","","","","canvas-button-response","392","653305","0.0-392.0","835","elephant","","","","","","","","","","","","","","perceptual","","","2","40","","","","","352","elephant","10","0","1",""
"","","","","","","","","","","","canvas-button-response","393","653992","0.0-393.0","683","10","","","","","","","","","","","","","","confidence","","","2","40","","","","","","","","","","22"
"","","","","","","","","","","","preload","394","653995","0.0-394.0","","","","","true","","","","","","","","","","","preload","","","2","41","false","[]","[]","[]","","","","","",""
"","","","","","","","","","","","canvas-keyboard-response","395","654297","0.0-395.0","null","null","","","","","","","","","","","","","","fixation","","","2","41","","","","","","","","","",""
"","","","","","","","","","","","canvas-keyboard-response","396","654607","0.0-396.0","null","null","","","","","","","","","","","","","","stimulus","","","2","41","","","","","","","","","",""
"","","","","","","","","","","","canvas-button-response","397","655732","0.0-397.0","1121","car","","","","","","","","","","","","","","perceptual","","","2","41","","","","","160","bridge","6","0","0",""
"","","","","","","","","","","","canvas-button-response","398","657031","0.0-398.0","1294","1","","","","","","","","","","","","","","confidence","","","2","41","","","","","","","","","","22"
"","","","","","","","","","","","preload","399","657033","0.0-399.0","","","","","true","","","","","","","","","","","preload","","","2","42","false","[]","[]","[]","","","","","",""
"","","","","","","","","","","","canvas-keyboard-response","400","657354","0.0-400.0","null","null","","","","","","","","","","","","","","fixation","","","2","42","","","","","","","","","",""
"","","","","","","","","","","","canvas-keyboard-response","401","657664","0.0-401.0","null","null","","","","","","","","","","","","","","stimulus","","","2","42","","","","","","","","","",""
"","","","","","","","","","","","canvas-button-response","402","659121","0.0-402.0","1455","bed","","","","","","","","","","","","","","perceptual","","","2","42","","","","","133","bed","6","0","1",""
"","","","","","","","","","","","canvas-button-response","403","660071","0.0-403.0","946","10","","","","","","","","","","","","","","confidence","","","2","42","","","","","","","","","","23"
"","","","","","","","","","","","preload","404","660074","0.0-404.0","","","","","true","","","","","","","","","","","preload","","","2","43","false","[]","[]","[]","","","","","",""
"","","","","","","","","","","","canvas-keyboard-response","405","660382","0.0-405.0","null","null","","","","","","","","","","","","","","fixation","","","2","43","","","","","","","","","",""
"","","","","","","","","","","","canvas-keyboard-response","406","660692","0.0-406.0","null","null","","","","","","","","","","","","","","stimulus","","","2","43","","","","","","","","","",""
"","","","","","","","","","","","canvas-button-response","407","661807","0.0-407.0","1113","phone","","","","","","","","","","","","","","perceptual","","","2","43","","","","","95","phone","6","0","1",""
"","","","","","","","","","","","canvas-button-response","408","662690","0.0-408.0","879","7","","","","","","","","","","","","","","confidence","","","2","43","","","","","","","","","","24"
"","","","","","","","","","","","preload","409","662693","0.0-409.0","","","","","true","","","","","","","","","","","preload","","","2","44","false","[]","[]","[]","","","","","",""
"","","","","","","","","","","","canvas-keyboard-response","410","663002","0.0-410.0","null","null","","","","","","","","","","","","","","fixation","","","2","44","","","","","","","","","",""
"","","","","","","","","","","","canvas-keyboard-response","411","663315","0.0-411.0","null","null","","","","","","","","","","","","","","stimulus","","","2","44","","","","","","","","","",""
"","","","","","","","","","","","canvas-button-response","412","664567","0.0-412.0","1250","phone","","","","","","","","","","","","","","perceptual","","","2","44","","","","","235","flower","10","0","0",""
"","","","","","","","","","","","canvas-button-response","413","665275","0.0-413.0","705","10","","","","","","","","","","","","","","confidence","","","2","44","","","","","","","","","","24"
"","","","","","","","","","","","preload","414","665277","0.0-414.0","","","","","true","","","","","","","","","","","preload","","","2","45","false","[]","[]","[]","","","","","",""
"","","","","","","","","","","","canvas-keyboard-response","415","665596","0.0-415.0","null","null","","","","","","","","","","","","","","fixation","","","2","45","","","","","","","","","",""
"","","","","","","","","","","","canvas-keyboard-response","416","665922","0.0-416.0","null","null","","","","","","","","","","","","","","stimulus","","","2","45","","","","","","","","","",""
"","","","","","","","","","","","canvas-button-response","417","667090","0.0-417.0","1166","bed","","","","","","","","","","","","","","perceptual","","","2","45","","","","","127","bed","6","0","1",""
"","","","","","","","","","","","canvas-button-response","418","667951","0.0-418.0","859","10","","","","","","","","","","","","","","confidence","","","2","45","","","","","","","","","","25"
"","","","","","","","","","","","preload","419","667953","0.0-419.0","","","","","true","","","","","","","","","","","preload","","","2","46","false","[]","[]","[]","","","","","",""
"","","","","","","","","","","","canvas-keyboard-response","420","668265","0.0-420.0","null","null","","","","","","","","","","","","","","fixation","","","2","46","","","","","","","","","",""
"","","","","","","","","","","","canvas-keyboard-response","421","668574","0.0-421.0","null","null","","","","","","","","","","","","","","stimulus","","","2","46","","","","","","","","","",""
"","","","","","","","","","","","canvas-button-response","422","670947","0.0-422.0","2369","bridge","","","","","","","","","","","","","","perceptual","","","2","46","","","","","384","knife","10","0","0",""
"","","","","","","","","","","","canvas-button-response","423","672003","0.0-423.0","1054","1","","","","","","","","","","","","","","confidence","","","2","46","","","","","","","","","","25"
"","","","","","","","","","","","preload","424","672005","0.0-424.0","","","","","true","","","","","","","","","","","preload","","","2","47","false","[]","[]","[]","","","","","",""
"","","","","","","","","","","","canvas-keyboard-response","425","672313","0.0-425.0","null","null","","","","","","","","","","","","","","fixation","","","2","47","","","","","","","","","",""
"","","","","","","","","","","","canvas-keyboard-response","426","672623","0.0-426.0","null","null","","","","","","","","","","","","","","stimulus","","","2","47","","","","","","","","","",""
"","","","","","","","","","","","canvas-button-response","427","673685","0.0-427.0","1061","bed","","","","","","","","","","","","","","perceptual","","","2","47","","","","","291","cat","6","0","0",""
"","","","","","","","","","","","canvas-button-response","428","674656","0.0-428.0","966","1","","","","","","","","","","","","","","confidence","","","2","47","","","","","","","","","","25"
"","","","","","","","","","","","preload","429","674659","0.0-429.0","","","","","true","","","","","","","","","","","preload","","","2","48","false","[]","[]","[]","","","","","",""
"","","","","","","","","","","","canvas-keyboard-response","430","674968","0.0-430.0","null","null","","","","","","","","","","","","","","fixation","","","2","48","","","","","","","","","",""
"","","","","","","","","","","","canvas-keyboard-response","431","675292","0.0-431.0","null","null","","","","","","","","","","","","","","stimulus","","","2","48","","","","","","","","","",""
"","","","","","","","","","","","canvas-button-response","432","677855","0.0-432.0","2559","car","","","","","","","","","","","","","","perceptual","","","2","48","","","","","245","train","6","0","0",""
"","","","","","","","","","","","canvas-button-response","433","678740","0.0-433.0","882","3","","","","","","","","","","","","","","confidence","","","2","48","","","","","","","","","","25"
"","","","","","","","","","","","preload","434","678742","0.0-434.0","","","","","true","","","","","","","","","","","preload","","","2","49","false","[]","[]","[]","","","","","",""
"","","","","","","","","","","","canvas-keyboard-response","435","679050","0.0-435.0","null","null","","","","","","","","","","","","","","fixation","","","2","49","","","","","","","","","",""
"","","","","","","","","","","","canvas-keyboard-response","436","679361","0.0-436.0","null","null","","","","","","","","","","","","","","stimulus","","","2","49","","","","","","","","","",""
"","","","","","","","","","","","canvas-button-response","437","680484","0.0-437.0","1121","car","","","","","","","","","","","","","","perceptual","","","2","49","","","","","378","knife","6","0","0",""
"","","","","","","","","","","","canvas-button-response","438","681135","0.0-438.0","648","3","","","","","","","","","","","","","","confidence","","","2","49","","","","","","","","","","25"
"","","","","","","","","","","","html-button-response","439","687592","0.0-439.0","6454","0","","","","","","","","","","","","","","<p style=""font-size:20px;color:#000000"">You got 25 out of 50 trials correct in this block.<br><br>You have completed 6% of the experiment.<br><br>Take a short break.<br><br>When you are ready, click Continue to proceed.","","","2","49","","","","","","","","","",""
"","","","","","","","","","","","html-keyboard-response","440","688596","0.0-440.0","null","null","","","","","","","","","","","","","","<p style=""font-size:32px;color:#000000""><br><br> RUN: &nbsp 1/4 <br><br> BLOCK: 2/4 ","","","2","49","","","","","","","","","",""
"","","","","","","","","","","","preload","441","688597","0.0-441.0","","","","","true","","","","","","","","","","","preload","","","2","50","false","[]","[]","[]","","","","","",""
"","","","","","","","","","","","canvas-keyboard-response","442","688908","0.0-442.0","null","null","","","","","","","","","","","","","","fixation","","","2","50","","","","","","","","","",""
"","","","","","","","","","","","canvas-keyboard-response","443","689220","0.0-443.0","null","null","","","","","","","","","","","","","","stimulus","","","2","50","","","","","","","","","",""
"","","","","","","","","","","","canvas-button-response","444","700012","0.0-444.0","10787","bridge","","","","","","","","","","","","","","perceptual","","","2","50","","","","","388","knife","10","0","0",""
"","","","","","","","","","","","canvas-button-response","445","701127","0.0-445.0","1109","3","","","","","","","","","","","","","","confidence","","","2","50","","","","","","","","","","0"
"","","","","","","","","","","","preload","446","701129","0.0-446.0","","","","","true","","","","","","","","","","","preload","","","2","51","false","[]","[]","[]","","","","","",""
"","","","","","","","","","","","canvas-keyboard-response","447","701435","0.0-447.0","null","null","","","","","","","","","","","","","","fixation","","","2","51","","","","","","","","","",""
"","","","","","","","","","","","canvas-keyboard-response","448","701750","0.0-448.0","null","null","","","","","","","","","","","","","","stimulus","","","2","51","","","","","","","","","",""
"","","","","","","","","","","","canvas-button-response","449","703813","0.0-449.0","2061","car","","","","","","","","","","","","","","perceptual","","","2","51","","","","","305","cat","10","0","0",""
"","","","","","","","","","","","canvas-button-response","450","704382","0.0-450.0","566","5","","","","","","","","","","","","","","confidence","","","2","51","","","","","","","","","","0"
"","","","","","","","","","","","preload","451","704384","0.0-451.0","","","","","true","","","","","","","","","","","preload","","","2","52","false","[]","[]","[]","","","","","",""
"","","","","","","","","","","","canvas-keyboard-response","452","704689","0.0-452.0","null","null","","","","","","","","","","","","","","fixation","","","2","52","","","","","","","","","",""
"","","","","","","","","","","","canvas-keyboard-response","453","705003","0.0-453.0","null","null","","","","","","","","","","","","","","stimulus","","","2","52","","","","","","","","","",""
"","","","","","","","","","","","canvas-button-response","454","705715","0.0-454.0","711","car","","","","","","","","","","","","","","perceptual","","","2","52","","","","","39","house","10","0","0",""
"","","","","","","","","","","","canvas-button-response","455","707086","0.0-455.0","1367","1","","","","","","","","","","","","","","confidence","","","2","52","","","","","","","","","","0"
"","","","","","","","","","","","preload","456","707088","0.0-456.0","","","","","true","","","","","","","","","","","preload","","","2","53","false","[]","[]","[]","","","","","",""
"","","","","","","","","","","","canvas-keyboard-response","457","707395","0.0-457.0","null","null","","","","","","","","","","","","","","fixation","","","2","53","","","","","","","","","",""
"","","","","","","","","","","","canvas-keyboard-response","458","707740","0.0-458.0","null","null","","","","","","","","","","","","","","stimulus","","","2","53","","","","","","","","","",""
"","","","","","","","","","","","canvas-button-response","459","708484","0.0-459.0","743","bed","","","","","","","","","","","","","","perceptual","","","2","53","","","","","137","bed","6","0","1",""
"","","","","","","","","","","","canvas-button-response","460","710381","0.0-460.0","1894","10","","","","","","","","","","","","","","confidence","","","2","53","","","","","","","","","","1"
"","","","","","","","","","","","preload","461","710383","0.0-461.0","","","","","true","","","","","","","","","","","preload","","","2","54","false","[]","[]","[]","","","","","",""
"","","","","","","","","","","","canvas-keyboard-response","462","710705","0.0-462.0","null","null","","","","","","","","","","","","","","fixation","","","2","54","","","","","","","","","",""
"","","","","","","","","","","","canvas-keyboard-response","463","711032","0.0-463.0","null","null","","","","","","","","","","","","","","stimulus","","","2","54","","","","","","","","","",""
"","","","","","","","","","","","canvas-button-response","464","713824","0.0-464.0","2789","bed","","","","","","","","","","","","","","perceptual","","","2","54","","","","","32","house","10","0","0",""
"","","","","","","","","","","","canvas-button-response","465","714841","0.0-465.0","1016","1","","","","","","","","","","","","","","confidence","","","2","54","","","","","","","","","","1"
"","","","","","","","","","","","preload","466","714844","0.0-466.0","","","","","true","","","","","","","","","","","preload","","","2","55","false","[]","[]","[]","","","","","",""
"","","","","","","","","","","","canvas-keyboard-response","467","715151","0.0-467.0","null","null","","","","","","","","","","","","","","fixation","","","2","55","","","","","","","","","",""
"","","","","","","","","","","","canvas-keyboard-response","468","715468","0.0-468.0","null","null","","","","","","","","","","","","","","stimulus","","","2","55","","","","","","","","","",""
"","","","","","","","","","","","canvas-button-response","469","716719","0.0-469.0","1249","knife","","","","","","","","","","","","","","perceptual","","","2","55","","","","","374","knife","6","0","1",""
"","","","","","","","","","","","canvas-button-response","470","717314","0.0-470.0","593","4","","","","","","","","","","","","","","confidence","","","2","55","","","","","","","","","","2"
"","","","","","","","","","","","preload","471","717317","0.0-471.0","","","","","true","","","","","","","","","","","preload","","","2","56","false","[]","[]","[]","","","","","",""
"","","","","","","","","","","","canvas-keyboard-response","472","717620","0.0-472.0","null","null","","","","","","","","","","","","","","fixation","","","2","56","","","","","","","","","",""
"","","","","","","","","","","","canvas-keyboard-response","473","717935","0.0-473.0","null","null","","","","","","","","","","","","","","stimulus","","","2","56","","","","","","","","","",""
"","","","","","","","","","","","canvas-button-response","474","718341","0.0-474.0","404","knife","","","","","","","","","","","","","","perceptual","","","2","56","","","","","192","bridge","10","0","0",""
"","","","","","","","","","","","canvas-button-response","475","718857","0.0-475.0","514","4","","","","","","","","","","","","","","confidence","","","2","56","","","","","","","","","","2"
"","","","","","","","","","","","preload","476","718858","0.0-476.0","","","","","true","","","","","","","","","","","preload","","","2","57","false","[]","[]","[]","","","","","",""
"","","","","","","","","","","","canvas-keyboard-response","477","719172","0.0-477.0","null","null","","","","","","","","","","","","","","fixation","","","2","57","","","","","","","","","",""
"","","","","","","","","","","","canvas-keyboard-response","478","719483","0.0-478.0","null","null","","","","","","","","","","","","","","stimulus","","","2","57","","","","","","","","","",""
"","","","","","","","","","","","canvas-button-response","479","719976","0.0-479.0","492","knife","","","","","","","","","","","","","","perceptual","","","2","57","","","","","174","bridge","6","0","0",""
"","","","","","","","","","","","canvas-button-response","480","721801","0.0-480.0","1821","0","","","","","","","","","","","","","","confidence","","","2","57","","","","","","","","","","2"
"","","","","","","","","","","","preload","481","721802","0.0-481.0","","","","","true","","","","","","","","","","","preload","","","2","58","false","[]","[]","[]","","","","","",""
"","","","","","","","","","","","canvas-keyboard-response","482","722110","0.0-482.0","null","null","","","","","","","","","","","","","","fixation","","","2","58","","","","","","","","","",""
"","","","","","","","","","","","canvas-keyboard-response","483","722421","0.0-483.0","null","null","","","","","","","","","","","","","","stimulus","","","2","58","","","","","","","","","",""
"","","","","","","","","","","","canvas-button-response","484","723436","0.0-484.0","1013","cat","","","","","","","","","","","","","","perceptual","","","2","58","","","","","283","cat","6","0","1",""
"","","","","","","","","","","","canvas-button-response","485","724217","0.0-485.0","780","10","","","","","","","","","","","","","","confidence","","","2","58","","","","","","","","","","3"
"","","","","","","","","","","","preload","486","724219","0.0-486.0","","","","","true","","","","","","","","","","","preload","","","2","59","false","[]","[]","[]","","","","","",""
"","","","","","","","","","","","canvas-keyboard-response","487","724533","0.0-487.0","null","null","","","","","","","","","","","","","","fixation","","","2","59","","","","","","","","","",""
"","","","","","","","","","","","canvas-keyboard-response","488","724861","0.0-488.0","null","null","","","","","","","","","","","","","","stimulus","","","2","59","","","","","","","","","",""
"","","","","","","","","","","","canvas-button-response","489","733499","0.0-489.0","8636","house","","","","","","","","","","","","","","perceptual","","","2","59","","","","","173","bridge","6","0","0",""
"","","","","","","","","","","","canvas-button-response","490","734405","0.0-490.0","904","0","","","","","","","","","","","","","","confidence","","","2","59","","","","","","","","","","3"
"","","","","","","","","","","","preload","491","734407","0.0-491.0","","","","","true","","","","","","","","","","","preload","","","2","60","false","[]","[]","[]","","","","","",""
"","","","","","","","","","","","canvas-keyboard-response","492","734712","0.0-492.0","null","null","","","","","","","","","","","","","","fixation","","","2","60","","","","","","","","","",""
