"width","height","webaudio","browser","browser_version","mobile","os","fullscreen","vsync_rate","webcam","microphone","trial_type","trial_index","time_elapsed","internal_node_id","rt","response","accuracy","view_history","success","item_width_mm","item_height_mm","item_width_px","px2mm","view_dist_mm","item_width_deg","px2deg","scale_factor","win_width_deg","win_height_deg","stimulus","datetime","subjectID","curr_triallist","trial_no","timeout","failed_images","failed_audio","failed_video","image_index","category","blur","reps","correct","running_score"
"1512","789","true","chrome","140.0.0","false","Mac OS","true","121.07","true","true","browser-check","0","499","0.0-0.0","","","","","","","","","","","","","","","","","","","","","","","","","","","","","",""
"","","","","","","","","","","","survey","1","15114","0.0-1.0","14583","{""P0_Q0"":""904111398"",""P0_Q1"":""18"",""P1_Q0"":""Female"",""P1_Q1"":""Not Hispanic or Latino"",""P1_Q2"":""Asian"",""P1_Q3"":""Corrected-to-Normal (using glasses/contacts)"",""P1_Q4"":""Right-Handed""}","[]","","","","","","","","","","","","","","","","","","","","","","","","","","",""
"","","","","","","","","","","","instructions","2","29214","0.0-2.0","14099","","","[{""page_index"":0,""viewing_time"":2996},{""page_index"":1,""viewing_time"":1421},{""page_index"":2,""viewing_time"":8074},{""page_index"":3,""viewing_time"":1608}]","","","","","","","","","","","","","","","","","","","","","","","","","",""
"","","","","","","","","","","","fullscreen","3","31743","0.0-3.0","1527","","","","true","","","","","","","","","","","","","","","","","","","","","","","","",""
"","","","","","","","","","","","virtual-chinrest","4","123551","0.0-4.0","91807","","","","","85.6","53.98","330.83959522809806","3.8623599256861674","443.36","11.027986507603268","30","1.2997235101304474","50.4","31.5","","","","","","","","","","","","","","",""
"","","","","","","","","","","","instructions","5","148618","0.0-5.0","25066","","","[{""page_index"":0,""viewing_time"":2038},{""page_index"":1,""viewing_time"":5095},{""page_index"":2,""viewing_time"":4780},{""page_index"":3,""viewing_time"":1900},{""page_index"":4,""viewing_time"":4577},{""page_index"":5,""viewing_time"":5664},{""page_index"":6,""viewing_time"":1013}]","","","","","","","","","","","","","","","","","","","","","","","","","",""
"","","","","","","","","","","","html-button-response","6","152574","0.0-6.0","3953","0","","","","","","","","","","","","","","start_practice","Tue Oct 14 2025 13:11:01 GMT-0400 (Eastern Daylight Time)","26958","","","","","","","","","","","",""
"","","","","","","","","","","","preload","7","152575","0.0-7.0","","","","","true","","","","","","","","","","","preload","","","0","0","false","[]","[]","[]","","","","","",""
"","","","","","","","","","","","canvas-keyboard-response","8","152879","0.0-8.0","null","null","","","","","","","","","","","","","","fixation","","","0","0","","","","","","","","","",""
"","","","","","","","","","","","canvas-keyboard-response","9","153181","0.0-9.0","null","null","","","","","","","","","","","","","","stimulus","","","0","0","","","","","","","","","",""
"","","","","","","","","","","","canvas-button-response","10","155152","0.0-10.0","1969","phone","","","","","","","","","","","","","","perceptual","","","0","0","","","","","22","phone","1","","1",""
"","","","","","","","","","","","canvas-button-response","11","156556","0.0-11.0","1402","1","","","","","","","","","","","","","","confidence","","","0","0","","","","","","","","","","1"
"","","","","","","","","","","","html-keyboard-response","12","157559","0.0-12.0","null","null","","","","","","","","","","","","","","feedback","Tue Oct 14 2025 13:11:09 GMT-0400 (Eastern Daylight Time)","26958","0","0","","","","","","","","","",""
"","","","","","","","","","","","preload","13","157560","0.0-13.0","","","","","true","","","","","","","","","","","preload","","","0","1","false","[]","[]","[]","","","","","",""
"","","","","","","","","","","","canvas-keyboard-response","14","157863","0.0-14.0","null","null","","","","","","","","","","","","","","fixation","","","0","1","","","","","","","","","",""
"","","","","","","","","","","","canvas-keyboard-response","15","158165","0.0-15.0","null","null","","","","","","","","","","","","","","stimulus","","","0","1","","","","","","","","","",""
"","","","","","","","","","","","canvas-button-response","16","159098","0.0-16.0","931","cat","","","","","","","","","","","","","","perceptual","","","0","1","","","","","72","cat","1","","1",""
"","","","","","","","","","","","canvas-button-response","17","160110","0.0-17.0","1011","10","","","","","","","","","","","","","","confidence","","","0","1","","","","","","","","","","2"
"","","","","","","","","","","","html-keyboard-response","18","161112","0.0-18.0","null","null","","","","","","","","","","","","","","feedback","Tue Oct 14 2025 13:11:12 GMT-0400 (Eastern Daylight Time)","26958","0","1","","","","","","","","","",""
"","","","","","","","","","","","preload","19","161113","0.0-19.0","","","","","true","","","","","","","","","","","preload","","","0","2","false","[]","[]","[]","","","","","",""
"","","","","","","","","","","","canvas-keyboard-response","20","161416","0.0-20.0","null","null","","","","","","","","","","","","","","fixation","","","0","2","","","","","","","","","",""
"","","","","","","","","","","","canvas-keyboard-response","21","161718","0.0-21.0","null","null","","","","","","","","","","","","","","stimulus","","","0","2","","","","","","","","","",""
"","","","","","","","","","","","canvas-button-response","22","163002","0.0-22.0","1283","house","","","","","","","","","","","","","","perceptual","","","0","2","","","","","32","bed","1","","0",""
"","","","","","","","","","","","canvas-button-response","23","163667","0.0-23.0","664","4","","","","","","","","","","","","","","confidence","","","0","2","","","","","","","","","","2"
"","","","","","","","","","","","html-keyboard-response","24","164670","0.0-24.0","null","null","","","","","","","","","","","","","","feedback","Tue Oct 14 2025 13:11:16 GMT-0400 (Eastern Daylight Time)","26958","0","2","","","","","","","","","",""
"","","","","","","","","","","","preload","25","164671","0.0-25.0","","","","","true","","","","","","","","","","","preload","","","0","3","false","[]","[]","[]","","","","","",""
"","","","","","","","","","","","canvas-keyboard-response","26","164973","0.0-26.0","null","null","","","","","","","","","","","","","","fixation","","","0","3","","","","","","","","","",""
"","","","","","","","","","","","canvas-keyboard-response","27","165274","0.0-27.0","null","null","","","","","","","","","","","","","","stimulus","","","0","3","","","","","","","","","",""
"","","","","","","","","","","","canvas-button-response","28","168956","0.0-28.0","3681","elephant","","","","","","","","","","","","","","perceptual","","","0","3","","","","","82","elephant","1","","1",""
"","","","","","","","","","","","canvas-button-response","29","169844","0.0-29.0","887","0","","","","","","","","","","","","","","confidence","","","0","3","","","","","","","","","","3"
"","","","","","","","","","","","html-keyboard-response","30","170847","0.0-30.0","null","null","","","","","","","","","","","","","","feedback","Tue Oct 14 2025 13:11:22 GMT-0400 (Eastern Daylight Time)","26958","0","3","","","","","","","","","",""
"","","","","","","","","","","","preload","31","170848","0.0-31.0","","","","","true","","","","","","","","","","","preload","","","0","4","false","[]","[]","[]","","","","","",""
"","","","","","","","","","","","canvas-keyboard-response","32","171150","0.0-32.0","null","null","","","","","","","","","","","","","","fixation","","","0","4","","","","","","","","","",""
"","","","","","","","","","","","canvas-keyboard-response","33","171453","0.0-33.0","null","null","","","","","","","","","","","","","","stimulus","","","0","4","","","","","","","","","",""
"","","","","","","","","","","","canvas-button-response","34","172539","0.0-34.0","1085","bridge","","","","","","","","","","","","","","perceptual","","","0","4","","","","","42","bridge","1","","1",""
"","","","","","","","","","","","canvas-button-response","35","173540","0.0-35.0","1000","10","","","","","","","","","","","","","","confidence","","","0","4","","","","","","","","","","4"
"","","","","","","","","","","","html-keyboard-response","36","174541","0.0-36.0","null","null","","","","","","","","","","","","","","feedback","Tue Oct 14 2025 13:11:26 GMT-0400 (Eastern Daylight Time)","26958","0","4","","","","","","","","","",""
"","","","","","","","","","","","preload","37","174542","0.0-37.0","","","","","true","","","","","","","","","","","preload","","","0","5","false","[]","[]","[]","","","","","",""
"","","","","","","","","","","","canvas-keyboard-response","38","174843","0.0-38.0","null","null","","","","","","","","","","","","","","fixation","","","0","5","","","","","","","","","",""
"","","","","","","","","","","","canvas-keyboard-response","39","175146","0.0-39.0","null","null","","","","","","","","","","","","","","stimulus","","","0","5","","","","","","","","","",""
"","","","","","","","","","","","canvas-button-response","40","176127","0.0-40.0","979","house","","","","","","","","","","","","","","perceptual","","","0","5","","","","","2","house","1","","1",""
"","","","","","","","","","","","canvas-button-response","41","177151","0.0-41.0","1024","10","","","","","","","","","","","","","","confidence","","","0","5","","","","","","","","","","5"
"","","","","","","","","","","","html-keyboard-response","42","178153","0.0-42.0","null","null","","","","","","","","","","","","","","feedback","Tue Oct 14 2025 13:11:29 GMT-0400 (Eastern Daylight Time)","26958","0","5","","","","","","","","","",""
"","","","","","","","","","","","preload","43","178153","0.0-43.0","","","","","true","","","","","","","","","","","preload","","","0","6","false","[]","[]","[]","","","","","",""
"","","","","","","","","","","","canvas-keyboard-response","44","178455","0.0-44.0","null","null","","","","","","","","","","","","","","fixation","","","0","6","","","","","","","","","",""
"","","","","","","","","","","","canvas-keyboard-response","45","178758","0.0-45.0","null","null","","","","","","","","","","","","","","stimulus","","","0","6","","","","","","","","","",""
"","","","","","","","","","","","canvas-button-response","46","180623","0.0-46.0","1863","train","","","","","","","","","","","","","","perceptual","","","0","6","","","","","62","train","1","","1",""
"","","","","","","","","","","","canvas-button-response","47","181273","0.0-47.0","649","6","","","","","","","","","","","","","","confidence","","","0","6","","","","","","","","","","6"
"","","","","","","","","","","","html-keyboard-response","48","182275","0.0-48.0","null","null","","","","","","","","","","","","","","feedback","Tue Oct 14 2025 13:11:33 GMT-0400 (Eastern Daylight Time)","26958","0","6","","","","","","","","","",""
"","","","","","","","","","","","preload","49","182276","0.0-49.0","","","","","true","","","","","","","","","","","preload","","","0","7","false","[]","[]","[]","","","","","",""
"","","","","","","","","","","","canvas-keyboard-response","50","182577","0.0-50.0","null","null","","","","","","","","","","","","","","fixation","","","0","7","","","","","","","","","",""
"","","","","","","","","","","","canvas-keyboard-response","51","182879","0.0-51.0","null","null","","","","","","","","","","","","","","stimulus","","","0","7","","","","","","","","","",""
"","","","","","","","","","","","canvas-button-response","52","183927","0.0-52.0","1047","house","","","","","","","","","","","","","","perceptual","","","0","7","","","","","52","flower","1","","0",""
"","","","","","","","","","","","canvas-button-response","53","184431","0.0-53.0","503","5","","","","","","","","","","","","","","confidence","","","0","7","","","","","","","","","","6"
"","","","","","","","","","","","html-keyboard-response","54","185433","0.0-54.0","null","null","","","","","","","","","","","","","","feedback","Tue Oct 14 2025 13:11:37 GMT-0400 (Eastern Daylight Time)","26958","0","7","","","","","","","","","",""
"","","","","","","","","","","","preload","55","185434","0.0-55.0","","","","","true","","","","","","","","","","","preload","","","0","8","false","[]","[]","[]","","","","","",""
"","","","","","","","","","","","canvas-keyboard-response","56","185737","0.0-56.0","null","null","","","","","","","","","","","","","","fixation","","","0","8","","","","","","","","","",""
"","","","","","","","","","","","canvas-keyboard-response","57","186039","0.0-57.0","null","null","","","","","","","","","","","","","","stimulus","","","0","8","","","","","","","","","",""
"","","","","","","","","","","","canvas-button-response","58","189224","0.0-58.0","3184","bed","","","","","","","","","","","","","","perceptual","","","0","8","","","","","92","knife","1","","0",""
"","","","","","","","","","","","canvas-button-response","59","190306","0.0-59.0","1081","0","","","","","","","","","","","","","","confidence","","","0","8","","","","","","","","","","6"
"","","","","","","","","","","","html-keyboard-response","60","191309","0.0-60.0","null","null","","","","","","","","","","","","","","feedback","Tue Oct 14 2025 13:11:43 GMT-0400 (Eastern Daylight Time)","26958","0","8","","","","","","","","","",""
"","","","","","","","","","","","preload","61","191310","0.0-61.0","","","","","true","","","","","","","","","","","preload","","","0","9","false","[]","[]","[]","","","","","",""
"","","","","","","","","","","","canvas-keyboard-response","62","191611","0.0-62.0","null","null","","","","","","","","","","","","","","fixation","","","0","9","","","","","","","","","",""
"","","","","","","","","","","","canvas-keyboard-response","63","191914","0.0-63.0","null","null","","","","","","","","","","","","","","stimulus","","","0","9","","","","","","","","","",""
"","","","","","","","","","","","canvas-button-response","64","193768","0.0-64.0","1853","car","","","","","","","","","","","","","","perceptual","","","0","9","","","","","12","car","1","","1",""
"","","","","","","","","","","","canvas-button-response","65","194340","0.0-65.0","570","5","","","","","","","","","","","","","","confidence","","","0","9","","","","","","","","","","7"
"","","","","","","","","","","","html-keyboard-response","66","195343","0.0-66.0","null","null","","","","","","","","","","","","","","feedback","Tue Oct 14 2025 13:11:47 GMT-0400 (Eastern Daylight Time)","26958","0","9","","","","","","","","","",""
"","","","","","","","","","","","html-button-response","67","206068","0.0-67.0","10723","0","","","","","","","","","","","","","","start_practice","Tue Oct 14 2025 13:11:48 GMT-0400 (Eastern Daylight Time)","26958","0","9","","","","","","","","","",""
"","","","","","","","","","","","preload","68","206069","0.0-68.0","","","","","true","","","","","","","","","","","preload","","","1","0","false","[]","[]","[]","","","","","",""
"","","","","","","","","","","","canvas-keyboard-response","69","206371","0.0-69.0","null","null","","","","","","","","","","","","","","fixation","","","1","0","","","","","","","","","",""
"","","","","","","","","","","","canvas-keyboard-response","70","206674","0.0-70.0","null","null","","","","","","","","","","","","","","stimulus","","","1","0","","","","","","","","","",""
"","","","","","","","","","","","canvas-button-response","71","208107","0.0-71.0","1431","cat","","","","","","","","","","","","","","perceptual","","","1","0","","","","","74","cat","6","","1",""
"","","","","","","","","","","","canvas-button-response","72","208861","0.0-72.0","753","5","","","","","","","","","","","","","","confidence","","","1","0","","","","","","","","","","1"
"","","","","","","","","","","","html-keyboard-response","73","209864","0.0-73.0","null","null","","","","","","","","","","","","","","feedback","Tue Oct 14 2025 13:12:01 GMT-0400 (Eastern Daylight Time)","26958","1","0","","","","","","","","","",""
"","","","","","","","","","","","preload","74","209864","0.0-74.0","","","","","true","","","","","","","","","","","preload","","","1","1","false","[]","[]","[]","","","","","",""
"","","","","","","","","","","","canvas-keyboard-response","75","210167","0.0-75.0","null","null","","","","","","","","","","","","","","fixation","","","1","1","","","","","","","","","",""
"","","","","","","","","","","","canvas-keyboard-response","76","210470","0.0-76.0","null","null","","","","","","","","","","","","","","stimulus","","","1","1","","","","","","","","","",""
"","","","","","","","","","","","canvas-button-response","77","211668","0.0-77.0","1197","knife","","","","","","","","","","","","","","perceptual","","","1","1","","","","","94","knife","6","","1",""
"","","","","","","","","","","","canvas-button-response","78","212714","0.0-78.0","1045","1","","","","","","","","","","","","","","confidence","","","1","1","","","","","","","","","","2"
"","","","","","","","","","","","html-keyboard-response","79","213716","0.0-79.0","null","null","","","","","","","","","","","","","","feedback","Tue Oct 14 2025 13:12:05 GMT-0400 (Eastern Daylight Time)","26958","1","1","","","","","","","","","",""
"","","","","","","","","","","","preload","80","213717","0.0-80.0","","","","","true","","","","","","","","","","","preload","","","1","2","false","[]","[]","[]","","","","","",""
"","","","","","","","","","","","canvas-keyboard-response","81","214018","0.0-81.0","null","null","","","","","","","","","","","","","","fixation","","","1","2","","","","","","","","","",""
"","","","","","","","","","","","canvas-keyboard-response","82","214320","0.0-82.0","null","null","","","","","","","","","","","","","","stimulus","","","1","2","","","","","","","","","",""
"","","","","","","","","","","","canvas-button-response","83","215368","0.0-83.0","1046","car","","","","","","","","","","","","","","perceptual","","","1","2","","","","","14","car","6","","1",""
"","","","","","","","","","","","canvas-button-response","84","216214","0.0-84.0","846","2","","","","","","","","","","","","","","confidence","","","1","2","","","","","","","","","","3"
"","","","","","","","","","","","html-keyboard-response","85","217216","0.0-85.0","null","null","","","","","","","","","","","","","","feedback","Tue Oct 14 2025 13:12:08 GMT-0400 (Eastern Daylight Time)","26958","1","2","","","","","","","","","",""
"","","","","","","","","","","","preload","86","217217","0.0-86.0","","","","","true","","","","","","","","","","","preload","","","1","3","false","[]","[]","[]","","","","","",""
"","","","","","","","","","","","canvas-keyboard-response","87","217520","0.0-87.0","null","null","","","","","","","","","","","","","","fixation","","","1","3","","","","","","","","","",""
"","","","","","","","","","","","canvas-keyboard-response","88","217822","0.0-88.0","null","null","","","","","","","","","","","","","","stimulus","","","1","3","","","","","","","","","",""
"","","","","","","","","","","","canvas-button-response","89","219323","0.0-89.0","1499","knife","","","","","","","","","","","","","","perceptual","","","1","3","","","","","47","bridge","10","","0",""
"","","","","","","","","","","","canvas-button-response","90","220564","0.0-90.0","1239","1","","","","","","","","","","","","","","confidence","","","1","3","","","","","","","","","","3"
"","","","","","","","","","","","html-keyboard-response","91","221566","0.0-91.0","null","null","","","","","","","","","","","","","","feedback","Tue Oct 14 2025 13:12:13 GMT-0400 (Eastern Daylight Time)","26958","1","3","","","","","","","","","",""
"","","","","","","","","","","","preload","92","221566","0.0-92.0","","","","","true","","","","","","","","","","","preload","","","1","4","false","[]","[]","[]","","","","","",""
"","","","","","","","","","","","canvas-keyboard-response","93","221868","0.0-93.0","null","null","","","","","","","","","","","","","","fixation","","","1","4","","","","","","","","","",""
"","","","","","","","","","","","canvas-keyboard-response","94","222170","0.0-94.0","null","null","","","","","","","","","","","","","","stimulus","","","1","4","","","","","","","","","",""
"","","","","","","","","","","","canvas-button-response","95","223382","0.0-95.0","1212","cat","","","","","","","","","","","","","","perceptual","","","1","4","","","","","34","bed","6","","0",""
"","","","","","","","","","","","canvas-button-response","96","223989","0.0-96.0","605","3","","","","","","","","","","","","","","confidence","","","1","4","","","","","","","","","","3"
"","","","","","","","","","","","html-keyboard-response","97","224990","0.0-97.0","null","null","","","","","","","","","","","","","","feedback","Tue Oct 14 2025 13:12:16 GMT-0400 (Eastern Daylight Time)","26958","1","4","","","","","","","","","",""
"","","","","","","","","","","","preload","98","224991","0.0-98.0","","","","","true","","","","","","","","","","","preload","","","1","5","false","[]","[]","[]","","","","","",""
"","","","","","","","","","","","canvas-keyboard-response","99","225294","0.0-99.0","null","null","","","","","","","","","","","","","","fixation","","","1","5","","","","","","","","","",""
"","","","","","","","","","","","canvas-keyboard-response","100","225597","0.0-100.0","null","null","","","","","","","","","","","","","","stimulus","","","1","5","","","","","","","","","",""
"","","","","","","","","","","","canvas-button-response","101","226618","0.0-101.0","1020","knife","","","","","","","","","","","","","","perceptual","","","1","5","","","","","27","phone","10","","0",""
"","","","","","","","","","","","canvas-button-response","102","227139","0.0-102.0","521","3","","","","","","","","","","","","","","confidence","","","1","5","","","","","","","","","","3"
"","","","","","","","","","","","html-keyboard-response","103","228141","0.0-103.0","null","null","","","","","","","","","","","","","","feedback","Tue Oct 14 2025 13:12:19 GMT-0400 (Eastern Daylight Time)","26958","1","5","","","","","","","","","",""
"","","","","","","","","","","","preload","104","228142","0.0-104.0","","","","","true","","","","","","","","","","","preload","","","1","6","false","[]","[]","[]","","","","","",""
"","","","","","","","","","","","canvas-keyboard-response","105","228444","0.0-105.0","null","null","","","","","","","","","","","","","","fixation","","","1","6","","","","","","","","","",""
"","","","","","","","","","","","canvas-keyboard-response","106","228746","0.0-106.0","null","null","","","","","","","","","","","","","","stimulus","","","1","6","","","","","","","","","",""
"","","","","","","","","","","","canvas-button-response","107","229939","0.0-107.0","1192","bridge","","","","","","","","","","","","","","perceptual","","","1","6","","","","","87","elephant","10","","0",""
"","","","","","","","","","","","canvas-button-response","108","230456","0.0-108.0","515","3","","","","","","","","","","","","","","confidence","","","1","6","","","","","","","","","","3"
"","","","","","","","","","","","html-keyboard-response","109","231458","0.0-109.0","null","null","","","","","","","","","","","","","","feedback","Tue Oct 14 2025 13:12:23 GMT-0400 (Eastern Daylight Time)","26958","1","6","","","","","","","","","",""
"","","","","","","","","","","","preload","110","231459","0.0-110.0","","","","","true","","","","","","","","","","","preload","","","1","7","false","[]","[]","[]","","","","","",""
"","","","","","","","","","","","canvas-keyboard-response","111","231761","0.0-111.0","null","null","","","","","","","","","","","","","","fixation","","","1","7","","","","","","","","","",""
"","","","","","","","","","","","canvas-keyboard-response","112","232063","0.0-112.0","null","null","","","","","","","","","","","","","","stimulus","","","1","7","","","","","","","","","",""
"","","","","","","","","","","","canvas-button-response","113","233605","0.0-113.0","1541","bridge","","","","","","","","","","","","","","perceptual","","","1","7","","","","","67","train","10","","0",""
"","","","","","","","","","","","canvas-button-response","114","234272","0.0-114.0","666","2","","","","","","","","","","","","","","confidence","","","1","7","","","","","","","","","","3"
"","","","","","","","","","","","html-keyboard-response","115","235275","0.0-115.0","null","null","","","","","","","","","","","","","","feedback","Tue Oct 14 2025 13:12:26 GMT-0400 (Eastern Daylight Time)","26958","1","7","","","","","","","","","",""
"","","","","","","","","","","","preload","116","235275","0.0-116.0","","","","","true","","","","","","","","","","","preload","","","1","8","false","[]","[]","[]","","","","","",""
"","","","","","","","","","","","canvas-keyboard-response","117","235578","0.0-117.0","null","null","","","","","","","","","","","","","","fixation","","","1","8","","","","","","","","","",""
"","","","","","","","","","","","canvas-keyboard-response","118","235881","0.0-118.0","null","null","","","","","","","","","","","","","","stimulus","","","1","8","","","","","","","","","",""
"","","","","","","","","","","","canvas-button-response","119","236961","0.0-119.0","1078","car","","","","","","","","","","","","","","perceptual","","","1","8","","","","","57","flower","10","","0",""
"","","","","","","","","","","","canvas-button-response","120","237827","0.0-120.0","864","1","","","","","","","","","","","","","","confidence","","","1","8","","","","","","","","","","3"
"","","","","","","","","","","","html-keyboard-response","121","238829","0.0-121.0","null","null","","","","","","","","","","","","","","feedback","Tue Oct 14 2025 13:12:30 GMT-0400 (Eastern Daylight Time)","26958","1","8","","","","","","","","","",""
"","","","","","","","","","","","preload","122","238830","0.0-122.0","","","","","true","","","","","","","","","","","preload","","","1","9","false","[]","[]","[]","","","","","",""
"","","","","","","","","","","","canvas-keyboard-response","123","239132","0.0-123.0","null","null","","","","","","","","","","","","","","fixation","","","1","9","","","","","","","","","",""
"","","","","","","","","","","","canvas-keyboard-response","124","239434","0.0-124.0","null","null","","","","","","","","","","","","","","stimulus","","","1","9","","","","","","","","","",""
"","","","","","","","","","","","canvas-button-response","125","240385","0.0-125.0","950","bridge","","","","","","","","","","","","","","perceptual","","","1","9","","","","","84","elephant","6","","0",""
"","","","","","","","","","","","canvas-button-response","126","240865","0.0-126.0","479","4","","","","","","","","","","","","","","confidence","","","1","9","","","","","","","","","","3"
"","","","","","","","","","","","html-keyboard-response","127","241868","0.0-127.0","null","null","","","","","","","","","","","","","","feedback","Tue Oct 14 2025 13:12:33 GMT-0400 (Eastern Daylight Time)","26958","1","9","","","","","","","","","",""
"","","","","","","","","","","","preload","128","241869","0.0-128.0","","","","","true","","","","","","","","","","","preload","","","1","10","false","[]","[]","[]","","","","","",""
"","","","","","","","","","","","canvas-keyboard-response","129","242171","0.0-129.0","null","null","","","","","","","","","","","","","","fixation","","","1","10","","","","","","","","","",""
"","","","","","","","","","","","canvas-keyboard-response","130","242474","0.0-130.0","null","null","","","","","","","","","","","","","","stimulus","","","1","10","","","","","","","","","",""
"","","","","","","","","","","","canvas-button-response","131","243543","0.0-131.0","1068","train","","","","","","","","","","","","","","perceptual","","","1","10","","","","","64","train","6","","1",""
"","","","","","","","","","","","canvas-button-response","132","244160","0.0-132.0","616","5","","","","","","","","","","","","","","confidence","","","1","10","","","","","","","","","","4"
"","","","","","","","","","","","html-keyboard-response","133","245162","0.0-133.0","null","null","","","","","","","","","","","","","","feedback","Tue Oct 14 2025 13:12:36 GMT-0400 (Eastern Daylight Time)","26958","1","10","","","","","","","","","",""
"","","","","","","","","","","","preload","134","245163","0.0-134.0","","","","","true","","","","","","","","","","","preload","","","1","11","false","[]","[]","[]","","","","","",""
"","","","","","","","","","","","canvas-keyboard-response","135","245466","0.0-135.0","null","null","","","","","","","","","","","","","","fixation","","","1","11","","","","","","","","","",""
"","","","","","","","","","","","canvas-keyboard-response","136","245769","0.0-136.0","null","null","","","","","","","","","","","","","","stimulus","","","1","11","","","","","","","","","",""
"","","","","","","","","","","","canvas-button-response","137","246927","0.0-137.0","1156","house","","","","","","","","","","","","","","perceptual","","","1","11","","","","","7","house","10","","1",""
"","","","","","","","","","","","canvas-button-response","138","247381","0.0-138.0","453","3","","","","","","","","","","","","","","confidence","","","1","11","","","","","","","","","","5"
"","","","","","","","","","","","html-keyboard-response","139","248383","0.0-139.0","null","null","","","","","","","","","","","","","","feedback","Tue Oct 14 2025 13:12:40 GMT-0400 (Eastern Daylight Time)","26958","1","11","","","","","","","","","",""
"","","","","","","","","","","","preload","140","248384","0.0-140.0","","","","","true","","","","","","","","","","","preload","","","1","12","false","[]","[]","[]","","","","","",""
"","","","","","","","","","","","canvas-keyboard-response","141","248686","0.0-141.0","null","null","","","","","","","","","","","","","","fixation","","","1","12","","","","","","","","","",""
"","","","","","","","","","","","canvas-keyboard-response","142","248988","0.0-142.0","null","null","","","","","","","","","","","","","","stimulus","","","1","12","","","","","","","","","",""
"","","","","","","","","","","","canvas-button-response","143","249710","0.0-143.0","720","car","","","","","","","","","","","","","","perceptual","","","1","12","","","","","37","bed","10","","0",""
"","","","","","","","","","","","canvas-button-response","144","250180","0.0-144.0","469","3","","","","","","","","","","","","","","confidence","","","1","12","","","","","","","","","","5"
"","","","","","","","","","","","html-keyboard-response","145","251183","0.0-145.0","null","null","","","","","","","","","","","","","","feedback","Tue Oct 14 2025 13:12:42 GMT-0400 (Eastern Daylight Time)","26958","1","12","","","","","","","","","",""
"","","","","","","","","","","","preload","146","251183","0.0-146.0","","","","","true","","","","","","","","","","","preload","","","1","13","false","[]","[]","[]","","","","","",""
"","","","","","","","","","","","canvas-keyboard-response","147","251486","0.0-147.0","null","null","","","","","","","","","","","","","","fixation","","","1","13","","","","","","","","","",""
"","","","","","","","","","","","canvas-keyboard-response","148","251789","0.0-148.0","null","null","","","","","","","","","","","","","","stimulus","","","1","13","","","","","","","","","",""
"","","","","","","","","","","","canvas-button-response","149","252380","0.0-149.0","590","bridge","","","","","","","","","","","","","","perceptual","","","1","13","","","","","44","bridge","6","","1",""
"","","","","","","","","","","","canvas-button-response","150","252818","0.0-150.0","437","3","","","","","","","","","","","","","","confidence","","","1","13","","","","","","","","","","6"
"","","","","","","","","","","","html-keyboard-response","151","253821","0.0-151.0","null","null","","","","","","","","","","","","","","feedback","Tue Oct 14 2025 13:12:45 GMT-0400 (Eastern Daylight Time)","26958","1","13","","","","","","","","","",""
"","","","","","","","","","","","preload","152","253822","0.0-152.0","","","","","true","","","","","","","","","","","preload","","","1","14","false","[]","[]","[]","","","","","",""
"","","","","","","","","","","","canvas-keyboard-response","153","254125","0.0-153.0","null","null","","","","","","","","","","","","","","fixation","","","1","14","","","","","","","","","",""
"","","","","","","","","","","","canvas-keyboard-response","154","254427","0.0-154.0","null","null","","","","","","","","","","","","","","stimulus","","","1","14","","","","","","","","","",""
"","","","","","","","","","","","canvas-button-response","155","255480","0.0-155.0","1051","house","","","","","","","","","","","","","","perceptual","","","1","14","","","","","17","car","10","","0",""
"","","","","","","","","","","","canvas-button-response","156","256481","0.0-156.0","1001","2","","","","","","","","","","","","","","confidence","","","1","14","","","","","","","","","","6"
"","","","","","","","","","","","html-keyboard-response","157","257483","0.0-157.0","null","null","","","","","","","","","","","","","","feedback","Tue Oct 14 2025 13:12:49 GMT-0400 (Eastern Daylight Time)","26958","1","14","","","","","","","","","",""
"","","","","","","","","","","","preload","158","257484","0.0-158.0","","","","","true","","","","","","","","","","","preload","","","1","15","false","[]","[]","[]","","","","","",""
"","","","","","","","","","","","canvas-keyboard-response","159","257786","0.0-159.0","null","null","","","","","","","","","","","","","","fixation","","","1","15","","","","","","","","","",""
"","","","","","","","","","","","canvas-keyboard-response","160","258089","0.0-160.0","null","null","","","","","","","","","","","","","","stimulus","","","1","15","","","","","","","","","",""
"","","","","","","","","","","","canvas-button-response","161","258693","0.0-161.0","603","car","","","","","","","","","","","","","","perceptual","","","1","15","","","","","77","cat","10","","0",""
"","","","","","","","","","","","canvas-button-response","162","259143","0.0-162.0","448","3","","","","","","","","","","","","","","confidence","","","1","15","","","","","","","","","","6"
"","","","","","","","","","","","html-keyboard-response","163","260145","0.0-163.0","null","null","","","","","","","","","","","","","","feedback","Tue Oct 14 2025 13:12:51 GMT-0400 (Eastern Daylight Time)","26958","1","15","","","","","","","","","",""
"","","","","","","","","","","","preload","164","260146","0.0-164.0","","","","","true","","","","","","","","","","","preload","","","1","16","false","[]","[]","[]","","","","","",""
"","","","","","","","","","","","canvas-keyboard-response","165","260448","0.0-165.0","null","null","","","","","","","","","","","","","","fixation","","","1","16","","","","","","","","","",""
"","","","","","","","","","","","canvas-keyboard-response","166","260751","0.0-166.0","null","null","","","","","","","","","","","","","","stimulus","","","1","16","","","","","","","","","",""
"","","","","","","","","","","","canvas-button-response","167","261619","0.0-167.0","867","car","","","","","","","","","","","","","","perceptual","","","1","16","","","","","97","knife","10","","0",""
"","","","","","","","","","","","canvas-button-response","168","262151","0.0-168.0","531","3","","","","","","","","","","","","","","confidence","","","1","16","","","","","","","","","","6"
"","","","","","","","","","","","html-keyboard-response","169","263154","0.0-169.0","null","null","","","","","","","","","","","","","","feedback","Tue Oct 14 2025 13:12:54 GMT-0400 (Eastern Daylight Time)","26958","1","16","","","","","","","","","",""
"","","","","","","","","","","","preload","170","263155","0.0-170.0","","","","","true","","","","","","","","","","","preload","","","1","17","false","[]","[]","[]","","","","","",""
"","","","","","","","","","","","canvas-keyboard-response","171","263457","0.0-171.0","null","null","","","","","","","","","","","","","","fixation","","","1","17","","","","","","","","","",""
"","","","","","","","","","","","canvas-keyboard-response","172","263759","0.0-172.0","null","null","","","","","","","","","","","","","","stimulus","","","1","17","","","","","","","","","",""
"","","","","","","","","","","","canvas-button-response","173","265397","0.0-173.0","1637","phone","","","","","","","","","","","","","","perceptual","","","1","17","","","","","24","phone","6","","1",""
"","","","","","","","","","","","canvas-button-response","174","265876","0.0-174.0","478","3","","","","","","","","","","","","","","confidence","","","1","17","","","","","","","","","","7"
"","","","","","","","","","","","html-keyboard-response","175","266879","0.0-175.0","null","null","","","","","","","","","","","","","","feedback","Tue Oct 14 2025 13:12:58 GMT-0400 (Eastern Daylight Time)","26958","1","17","","","","","","","","","",""
"","","","","","","","","","","","preload","176","266880","0.0-176.0","","","","","true","","","","","","","","","","","preload","","","1","18","false","[]","[]","[]","","","","","",""
"","","","","","","","","","","","canvas-keyboard-response","177","267181","0.0-177.0","null","null","","","","","","","","","","","","","","fixation","","","1","18","","","","","","","","","",""
"","","","","","","","","","","","canvas-keyboard-response","178","267484","0.0-178.0","null","null","","","","","","","","","","","","","","stimulus","","","1","18","","","","","","","","","",""
"","","","","","","","","","","","canvas-button-response","179","268126","0.0-179.0","641","car","","","","","","","","","","","","","","perceptual","","","1","18","","","","","4","house","6","","0",""
"","","","","","","","","","","","canvas-button-response","180","269018","0.0-180.0","891","2","","","","","","","","","","","","","","confidence","","","1","18","","","","","","","","","","7"
"","","","","","","","","","","","html-keyboard-response","181","270021","0.0-181.0","null","null","","","","","","","","","","","","","","feedback","Tue Oct 14 2025 13:13:01 GMT-0400 (Eastern Daylight Time)","26958","1","18","","","","","","","","","",""
"","","","","","","","","","","","preload","182","270022","0.0-182.0","","","","","true","","","","","","","","","","","preload","","","1","19","false","[]","[]","[]","","","","","",""
"","","","","","","","","","","","canvas-keyboard-response","183","270324","0.0-183.0","null","null","","","","","","","","","","","","","","fixation","","","1","19","","","","","","","","","",""
"","","","","","","","","","","","canvas-keyboard-response","184","270625","0.0-184.0","null","null","","","","","","","","","","","","","","stimulus","","","1","19","","","","","","","","","",""
"","","","","","","","","","","","canvas-button-response","185","270993","0.0-185.0","366","knife","","","","","","","","","","","","","","perceptual","","","1","19","","","","","54","flower","6","","0",""
"","","","","","","","","","","","canvas-button-response","186","271438","0.0-186.0","444","3","","","","","","","","","","","","","","confidence","","","1","19","","","","","","","","","","7"
"","","","","","","","","","","","html-keyboard-response","187","272440","0.0-187.0","null","null","","","","","","","","","","","","","","feedback","Tue Oct 14 2025 13:13:04 GMT-0400 (Eastern Daylight Time)","26958","1","19","","","","","","","","","",""
"","","","","","","","","","","","html-button-response","188","281248","0.0-188.0","8806","0","","","","","","","","","","","","","","start experiment","Tue Oct 14 2025 13:13:05 GMT-0400 (Eastern Daylight Time)","26958","1","19","","","","","","","","","",""
"","","","","","","","","","","","preload","189","281249","0.0-189.0","","","","","true","","","","","","","","","","","preload","","","2","0","false","[]","[]","[]","","","","","",""
"","","","","","","","","","","","canvas-keyboard-response","190","281551","0.0-190.0","null","null","","","","","","","","","","","","","","fixation","","","2","0","","","","","","","","","",""
"","","","","","","","","","","","canvas-keyboard-response","191","281852","0.0-191.0","null","null","","","","","","","","","","","","","","stimulus","","","2","0","","","","","","","","","",""
"","","","","","","","","","","","canvas-button-response","192","284636","0.0-192.0","2782","phone","","","","","","","","","","","","","","perceptual","","","2","0","","","","","70","car","10","0","0",""
"","","","","","","","","","","","canvas-button-response","193","285568","0.0-193.0","931","1","","","","","","","","","","","","","","confidence","","","2","0","","","","","","","","","","0"
"","","","","","","","","","","","preload","194","285568","0.0-194.0","","","","","true","","","","","","","","","","","preload","","","2","1","false","[]","[]","[]","","","","","",""
"","","","","","","","","","","","canvas-keyboard-response","195","285870","0.0-195.0","null","null","","","","","","","","","","","","","","fixation","","","2","1","","","","","","","","","",""
"","","","","","","","","","","","canvas-keyboard-response","196","286172","0.0-196.0","null","null","","","","","","","","","","","","","","stimulus","","","2","1","","","","","","","","","",""
"","","","","","","","","","","","canvas-button-response","197","287165","0.0-197.0","991","bridge","","","","","","","","","","","","","","perceptual","","","2","1","","","","","152","bed","10","0","0",""
"","","","","","","","","","","","canvas-button-response","198","287863","0.0-198.0","697","2","","","","","","","","","","","","","","confidence","","","2","1","","","","","","","","","","0"
"","","","","","","","","","","","preload","199","287863","0.0-199.0","","","","","true","","","","","","","","","","","preload","","","2","2","false","[]","[]","[]","","","","","",""
"","","","","","","","","","","","canvas-keyboard-response","200","288166","0.0-200.0","null","null","","","","","","","","","","","","","","fixation","","","2","2","","","","","","","","","",""
"","","","","","","","","","","","canvas-keyboard-response","201","288468","0.0-201.0","null","null","","","","","","","","","","","","","","stimulus","","","2","2","","","","","","","","","",""
"","","","","","","","","","","","canvas-button-response","202","289202","0.0-202.0","732","car","","","","","","","","","","","","","","perceptual","","","2","2","","","","","100","phone","10","0","0",""
"","","","","","","","","","","","canvas-button-response","203","289672","0.0-203.0","470","3","","","","","","","","","","","","","","confidence","","","2","2","","","","","","","","","","0"
"","","","","","","","","","","","preload","204","289673","0.0-204.0","","","","","true","","","","","","","","","","","preload","","","2","3","false","[]","[]","[]","","","","","",""
"","","","","","","","","","","","canvas-keyboard-response","205","289975","0.0-205.0","null","null","","","","","","","","","","","","","","fixation","","","2","3","","","","","","","","","",""
"","","","","","","","","","","","canvas-keyboard-response","206","290276","0.0-206.0","null","null","","","","","","","","","","","","","","stimulus","","","2","3","","","","","","","","","",""
"","","","","","","","","","","","canvas-button-response","207","291393","0.0-207.0","1116","knife","","","","","","","","","","","","","","perceptual","","","2","3","","","","","19","house","6","0","0",""
"","","","","","","","","","","","canvas-button-response","208","291980","0.0-208.0","586","2","","","","","","","","","","","","","","confidence","","","2","3","","","","","","","","","","0"
"","","","","","","","","","","","preload","209","291981","0.0-209.0","","","","","true","","","","","","","","","","","preload","","","2","4","false","[]","[]","[]","","","","","",""
"","","","","","","","","","","","canvas-keyboard-response","210","292282","0.0-210.0","null","null","","","","","","","","","","","","","","fixation","","","2","4","","","","","","","","","",""
"","","","","","","","","","","","canvas-keyboard-response","211","292585","0.0-211.0","null","null","","","","","","","","","","","","","","stimulus","","","2","4","","","","","","","","","",""
"","","","","","","","","","","","canvas-button-response","212","293398","0.0-212.0","813","car","","","","","","","","","","","","","","perceptual","","","2","4","","","","","41","car","6","0","1",""
"","","","","","","","","","","","canvas-button-response","213","293987","0.0-213.0","588","3","","","","","","","","","","","","","","confidence","","","2","4","","","","","","","","","","1"
"","","","","","","","","","","","preload","214","293987","0.0-214.0","","","","","true","","","","","","","","","","","preload","","","2","5","false","[]","[]","[]","","","","","",""
"","","","","","","","","","","","canvas-keyboard-response","215","294290","0.0-215.0","null","null","","","","","","","","","","","","","","fixation","","","2","5","","","","","","","","","",""
"","","","","","","","","","","","canvas-keyboard-response","216","294593","0.0-216.0","null","null","","","","","","","","","","","","","","stimulus","","","2","5","","","","","","","","","",""
"","","","","","","","","","","","canvas-button-response","217","296238","0.0-217.0","1644","house","","","","","","","","","","","","","","perceptual","","","2","5","","","","","183","bridge","10","0","0",""
"","","","","","","","","","","","canvas-button-response","218","296768","0.0-218.0","529","3","","","","","","","","","","","","","","confidence","","","2","5","","","","","","","","","","1"
"","","","","","","","","","","","preload","219","296769","0.0-219.0","","","","","true","","","","","","","","","","","preload","","","2","6","false","[]","[]","[]","","","","","",""
"","","","","","","","","","","","canvas-keyboard-response","220","297071","0.0-220.0","null","null","","","","","","","","","","","","","","fixation","","","2","6","","","","","","","","","",""
"","","","","","","","","","","","canvas-keyboard-response","221","297374","0.0-221.0","null","null","","","","","","","","","","","","","","stimulus","","","2","6","","","","","","","","","",""
"","","","","","","","","","","","canvas-button-response","222","298830","0.0-222.0","1454","cat","","","","","","","","","","","","","","perceptual","","","2","6","","","","","351","elephant","10","0","0",""
"","","","","","","","","","","","canvas-button-response","223","299730","0.0-223.0","899","3","","","","","","","","","","","","","","confidence","","","2","6","","","","","","","","","","1"
"","","","","","","","","","","","preload","224","299731","0.0-224.0","","","","","true","","","","","","","","","","","preload","","","2","7","false","[]","[]","[]","","","","","",""
"","","","","","","","","","","","canvas-keyboard-response","225","300033","0.0-225.0","null","null","","","","","","","","","","","","","","fixation","","","2","7","","","","","","","","","",""
"","","","","","","","","","","","canvas-keyboard-response","226","300336","0.0-226.0","null","null","","","","","","","","","","","","","","stimulus","","","2","7","","","","","","","","","",""
"","","","","","","","","","","","canvas-button-response","227","301400","0.0-227.0","1063","bridge","","","","","","","","","","","","","","perceptual","","","2","7","","","","","186","bridge","10","0","1",""
"","","","","","","","","","","","canvas-button-response","228","301855","0.0-228.0","454","3","","","","","","","","","","","","","","confidence","","","2","7","","","","","","","","","","2"
"","","","","","","","","","","","preload","229","301856","0.0-229.0","","","","","true","","","","","","","","","","","preload","","","2","8","false","[]","[]","[]","","","","","",""
"","","","","","","","","","","","canvas-keyboard-response","230","302158","0.0-230.0","null","null","","","","","","","","","","","","","","fixation","","","2","8","","","","","","","","","",""
"","","","","","","","","","","","canvas-keyboard-response","231","302462","0.0-231.0","null","null","","","","","","","","","","","","","","stimulus","","","2","8","","","","","","","","","",""
"","","","","","","","","","","","canvas-button-response","232","304005","0.0-232.0","1542","flower","","","","","","","","","","","","","","perceptual","","","2","8","","","","","202","flower","6","0","1",""
"","","","","","","","","","","","canvas-button-response","233","304769","0.0-233.0","762","10","","","","","","","","","","","","","","confidence","","","2","8","","","","","","","","","","3"
"","","","","","","","","","","","preload","234","304770","0.0-234.0","","","","","true","","","","","","","","","","","preload","","","2","9","false","[]","[]","[]","","","","","",""
"","","","","","","","","","","","canvas-keyboard-response","235","305071","0.0-235.0","null","null","","","","","","","","","","","","","","fixation","","","2","9","","","","","","","","","",""
"","","","","","","","","","","","canvas-keyboard-response","236","305373","0.0-236.0","null","null","","","","","","","","","","","","","","stimulus","","","2","9","","","","","","","","","",""
"","","","","","","","","","","","canvas-button-response","237","306564","0.0-237.0","1189","knife","","","","","","","","","","","","","","perceptual","","","2","9","","","","","138","bed","6","0","0",""
"","","","","","","","","","","","canvas-button-response","238","307693","0.0-238.0","1128","1","","","","","","","","","","","","","","confidence","","","2","9","","","","","","","","","","3"
"","","","","","","","","","","","preload","239","307694","0.0-239.0","","","","","true","","","","","","","","","","","preload","","","2","10","false","[]","[]","[]","","","","","",""
"","","","","","","","","","","","canvas-keyboard-response","240","307995","0.0-240.0","null","null","","","","","","","","","","","","","","fixation","","","2","10","","","","","","","","","",""
"","","","","","","","","","","","canvas-keyboard-response","241","308296","0.0-241.0","null","null","","","","","","","","","","","","","","stimulus","","","2","10","","","","","","","","","",""
"","","","","","","","","","","","canvas-button-response","242","309089","0.0-242.0","790","car","","","","","","","","","","","","","","perceptual","","","2","10","","","","","151","bed","10","0","0",""
"","","","","","","","","","","","canvas-button-response","243","309689","0.0-243.0","599","2","","","","","","","","","","","","","","confidence","","","2","10","","","","","","","","","","3"
"","","","","","","","","","","","preload","244","309689","0.0-244.0","","","","","true","","","","","","","","","","","preload","","","2","11","false","[]","[]","[]","","","","","",""
"","","","","","","","","","","","canvas-keyboard-response","245","309991","0.0-245.0","null","null","","","","","","","","","","","","","","fixation","","","2","11","","","","","","","","","",""
"","","","","","","","","","","","canvas-keyboard-response","246","310293","0.0-246.0","null","null","","","","","","","","","","","","","","stimulus","","","2","11","","","","","","","","","",""
"","","","","","","","","","","","canvas-button-response","247","311256","0.0-247.0","961","car","","","","","","","","","","","","","","perceptual","","","2","11","","","","","80","phone","6","0","0",""
"","","","","","","","","","","","canvas-button-response","248","311855","0.0-248.0","598","2","","","","","","","","","","","","","","confidence","","","2","11","","","","","","","","","","3"
"","","","","","","","","","","","preload","249","311856","0.0-249.0","","","","","true","","","","","","","","","","","preload","","","2","12","false","[]","[]","[]","","","","","",""
"","","","","","","","","","","","canvas-keyboard-response","250","312158","0.0-250.0","null","null","","","","","","","","","","","","","","fixation","","","2","12","","","","","","","","","",""
"","","","","","","","","","","","canvas-keyboard-response","251","312460","0.0-251.0","null","null","","","","","","","","","","","","","","stimulus","","","2","12","","","","","","","","","",""
"","","","","","","","","","","","canvas-button-response","252","313322","0.0-252.0","861","knife","","","","","","","","","","","","","","perceptual","","","2","12","","","","","137","bed","6","0","0",""
"","","","","","","","","","","","canvas-button-response","253","314030","0.0-253.0","706","2","","","","","","","","","","","","","","confidence","","","2","12","","","","","","","","","","3"
"","","","","","","","","","","","preload","254","314030","0.0-254.0","","","","","true","","","","","","","","","","","preload","","","2","13","false","[]","[]","[]","","","","","",""
"","","","","","","","","","","","canvas-keyboard-response","255","314332","0.0-255.0","null","null","","","","","","","","","","","","","","fixation","","","2","13","","","","","","","","","",""
"","","","","","","","","","","","canvas-keyboard-response","256","314635","0.0-256.0","null","null","","","","","","","","","","","","","","stimulus","","","2","13","","","","","","","","","",""
"","","","","","","","","","","","canvas-button-response","257","315651","0.0-257.0","1015","knife","","","","","","","","","","","","","","perceptual","","","2","13","","","","","378","knife","6","0","1",""
"","","","","","","","","","","","canvas-button-response","258","316747","0.0-258.0","1094","2","","","","","","","","","","","","","","confidence","","","2","13","","","","","","","","","","4"
"","","","","","","","","","","","preload","259","316748","0.0-259.0","","","","","true","","","","","","","","","","","preload","","","2","14","false","[]","[]","[]","","","","","",""
"","","","","","","","","","","","canvas-keyboard-response","260","317051","0.0-260.0","null","null","","","","","","","","","","","","","","fixation","","","2","14","","","","","","","","","",""
"","","","","","","","","","","","canvas-keyboard-response","261","317354","0.0-261.0","null","null","","","","","","","","","","","","","","stimulus","","","2","14","","","","","","","","","",""
"","","","","","","","","","","","canvas-button-response","262","319296","0.0-262.0","1941","bed","","","","","","","","","","","","","","perceptual","","","2","14","","","","","107","phone","10","0","0",""
"","","","","","","","","","","","canvas-button-response","263","320205","0.0-263.0","908","2","","","","","","","","","","","","","","confidence","","","2","14","","","","","","","","","","4"
"","","","","","","","","","","","preload","264","320206","0.0-264.0","","","","","true","","","","","","","","","","","preload","","","2","15","false","[]","[]","[]","","","","","",""
"","","","","","","","","","","","canvas-keyboard-response","265","320509","0.0-265.0","null","null","","","","","","","","","","","","","","fixation","","","2","15","","","","","","","","","",""
"","","","","","","","","","","","canvas-keyboard-response","266","320811","0.0-266.0","null","null","","","","","","","","","","","","","","stimulus","","","2","15","","","","","","","","","",""
"","","","","","","","","","","","canvas-button-response","267","322235","0.0-267.0","1422","bridge","","","","","","","","","","","","","","perceptual","","","2","15","","","","","16","house","6","0","0",""
"","","","","","","","","","","","canvas-button-response","268","322680","0.0-268.0","444","2","","","","","","","","","","","","","","confidence","","","2","15","","","","","","","","","","4"
"","","","","","","","","","","","preload","269","322680","0.0-269.0","","","","","true","","","","","","","","","","","preload","","","2","16","false","[]","[]","[]","","","","","",""
"","","","","","","","","","","","canvas-keyboard-response","270","322982","0.0-270.0","null","null","","","","","","","","","","","","","","fixation","","","2","16","","","","","","","","","",""
"","","","","","","","","","","","canvas-keyboard-response","271","323284","0.0-271.0","null","null","","","","","","","","","","","","","","stimulus","","","2","16","","","","","","","","","",""
"","","","","","","","","","","","canvas-button-response","272","323955","0.0-272.0","669","bridge","","","","","","","","","","","","","","perceptual","","","2","16","","","","","284","cat","6","0","0",""
"","","","","","","","","","","","canvas-button-response","273","325131","0.0-273.0","1175","1","","","","","","","","","","","","","","confidence","","","2","16","","","","","","","","","","4"
"","","","","","","","","","","","preload","274","325131","0.0-274.0","","","","","true","","","","","","","","","","","preload","","","2","17","false","[]","[]","[]","","","","","",""
"","","","","","","","","","","","canvas-keyboard-response","275","325433","0.0-275.0","null","null","","","","","","","","","","","","","","fixation","","","2","17","","","","","","","","","",""
"","","","","","","","","","","","canvas-keyboard-response","276","325735","0.0-276.0","null","null","","","","","","","","","","","","","","stimulus","","","2","17","","","","","","","","","",""
"","","","","","","","","","","","canvas-button-response","277","326211","0.0-277.0","474","car","","","","","","","","","","","","","","perceptual","","","2","17","","","","","30","house","10","0","0",""
"","","","","","","","","","","","canvas-button-response","278","326788","0.0-278.0","577","0","","","","","","","","","","","","","","confidence","","","2","17","","","","","","","","","","4"
"","","","","","","","","","","","preload","279","326789","0.0-279.0","","","","","true","","","","","","","","","","","preload","","","2","18","false","[]","[]","[]","","","","","",""
"","","","","","","","","","","","canvas-keyboard-response","280","327091","0.0-280.0","null","null","","","","","","","","","","","","","","fixation","","","2","18","","","","","","","","","",""
"","","","","","","","","","","","canvas-keyboard-response","281","327392","0.0-281.0","null","null","","","","","","","","","","","","","","stimulus","","","2","18","","","","","","","","","",""
"","","","","","","","","","","","canvas-button-response","282","328022","0.0-282.0","629","knife","","","","","","","","","","","","","","perceptual","","","2","18","","","","","14","house","6","0","0",""
"","","","","","","","","","","","canvas-button-response","283","328826","0.0-283.0","803","0","","","","","","","","","","","","","","confidence","","","2","18","","","","","","","","","","4"
"","","","","","","","","","","","preload","284","328827","0.0-284.0","","","","","true","","","","","","","","","","","preload","","","2","19","false","[]","[]","[]","","","","","",""
"","","","","","","","","","","","canvas-keyboard-response","285","329129","0.0-285.0","null","null","","","","","","","","","","","","","","fixation","","","2","19","","","","","","","","","",""
"","","","","","","","","","","","canvas-keyboard-response","286","329432","0.0-286.0","null","null","","","","","","","","","","","","","","stimulus","","","2","19","","","","","","","","","",""
"","","","","","","","","","","","canvas-button-response","287","330146","0.0-287.0","713","bridge","","","","","","","","","","","","","","perceptual","","","2","19","","","","","345","elephant","10","0","0",""
"","","","","","","","","","","","canvas-button-response","288","330668","0.0-288.0","520","0","","","","","","","","","","","","","","confidence","","","2","19","","","","","","","","","","4"
"","","","","","","","","","","","preload","289","330669","0.0-289.0","","","","","true","","","","","","","","","","","preload","","","2","20","false","[]","[]","[]","","","","","",""
"","","","","","","","","","","","canvas-keyboard-response","290","330971","0.0-290.0","null","null","","","","","","","","","","","","","","fixation","","","2","20","","","","","","","","","",""
"","","","","","","","","","","","canvas-keyboard-response","291","331273","0.0-291.0","null","null","","","","","","","","","","","","","","stimulus","","","2","20","","","","","","","","","",""
"","","","","","","","","","","","canvas-button-response","292","331964","0.0-292.0","689","knife","","","","","","","","","","","","","","perceptual","","","2","20","","","","","160","bridge","6","0","0",""
"","","","","","","","","","","","canvas-button-response","293","332884","0.0-293.0","919","0","","","","","","","","","","","","","","confidence","","","2","20","","","","","","","","","","4"
"","","","","","","","","","","","preload","294","332885","0.0-294.0","","","","","true","","","","","","","","","","","preload","","","2","21","false","[]","[]","[]","","","","","",""
"","","","","","","","","","","","canvas-keyboard-response","295","333186","0.0-295.0","null","null","","","","","","","","","","","","","","fixation","","","2","21","","","","","","","","","",""
"","","","","","","","","","","","canvas-keyboard-response","296","333487","0.0-296.0","null","null","","","","","","","","","","","","","","stimulus","","","2","21","","","","","","","","","",""
"","","","","","","","","","","","canvas-button-response","297","335064","0.0-297.0","1575","flower","","","","","","","","","","","","","","perceptual","","","2","21","","","","","209","flower","6","0","1",""
"","","","","","","","","","","","canvas-button-response","298","335830","0.0-298.0","766","10","","","","","","","","","","","","","","confidence","","","2","21","","","","","","","","","","5"
"","","","","","","","","","","","preload","299","335831","0.0-299.0","","","","","true","","","","","","","","","","","preload","","","2","22","false","[]","[]","[]","","","","","",""
"","","","","","","","","","","","canvas-keyboard-response","300","336132","0.0-300.0","null","null","","","","","","","","","","","","","","fixation","","","2","22","","","","","","","","","",""
"","","","","","","","","","","","canvas-keyboard-response","301","336434","0.0-301.0","null","null","","","","","","","","","","","","","","stimulus","","","2","22","","","","","","","","","",""
"","","","","","","","","","","","canvas-button-response","302","337193","0.0-302.0","757","knife","","","","","","","","","","","","","","perceptual","","","2","22","","","","","394","knife","10","0","1",""
"","","","","","","","","","","","canvas-button-response","303","338306","0.0-303.0","1112","10","","","","","","","","","","","","","","confidence","","","2","22","","","","","","","","","","6"
"","","","","","","","","","","","preload","304","338307","0.0-304.0","","","","","true","","","","","","","","","","","preload","","","2","23","false","[]","[]","[]","","","","","",""
"","","","","","","","","","","","canvas-keyboard-response","305","338609","0.0-305.0","null","null","","","","","","","","","","","","","","fixation","","","2","23","","","","","","","","","",""
"","","","","","","","","","","","canvas-keyboard-response","306","338912","0.0-306.0","null","null","","","","","","","","","","","","","","stimulus","","","2","23","","","","","","","","","",""
"","","","","","","","","","","","canvas-button-response","307","340218","0.0-307.0","1304","bed","","","","","","","","","","","","","","perceptual","","","2","23","","","","","218","flower","6","0","0",""
"","","","","","","","","","","","canvas-button-response","308","340951","0.0-308.0","732","0","","","","","","","","","","","","","","confidence","","","2","23","","","","","","","","","","6"
"","","","","","","","","","","","preload","309","340951","0.0-309.0","","","","","true","","","","","","","","","","","preload","","","2","24","false","[]","[]","[]","","","","","",""
"","","","","","","","","","","","canvas-keyboard-response","310","341253","0.0-310.0","null","null","","","","","","","","","","","","","","fixation","","","2","24","","","","","","","","","",""
"","","","","","","","","","","","canvas-keyboard-response","311","341555","0.0-311.0","null","null","","","","","","","","","","","","","","stimulus","","","2","24","","","","","","","","","",""
"","","","","","","","","","","","canvas-button-response","312","342401","0.0-312.0","844","knife","","","","","","","","","","","","","","perceptual","","","2","24","","","","","366","knife","6","0","1",""
"","","","","","","","","","","","canvas-button-response","313","343822","0.0-313.0","1420","5","","","","","","","","","","","","","","confidence","","","2","24","","","","","","","","","","7"
"","","","","","","","","","","","preload","314","343823","0.0-314.0","","","","","true","","","","","","","","","","","preload","","","2","25","false","[]","[]","[]","","","","","",""
"","","","","","","","","","","","canvas-keyboard-response","315","344123","0.0-315.0","null","null","","","","","","","","","","","","","","fixation","","","2","25","","","","","","","","","",""
"","","","","","","","","","","","canvas-keyboard-response","316","344425","0.0-316.0","null","null","","","","","","","","","","","","","","stimulus","","","2","25","","","","","","","","","",""
"","","","","","","","","","","","canvas-button-response","317","345525","0.0-317.0","1098","bed","","","","","","","","","","","","","","perceptual","","","2","25","","","","","180","bridge","10","0","0",""
"","","","","","","","","","","","canvas-button-response","318","346055","0.0-318.0","529","0","","","","","","","","","","","","","","confidence","","","2","25","","","","","","","","","","7"
"","","","","","","","","","","","preload","319","346055","0.0-319.0","","","","","true","","","","","","","","","","","preload","","","2","26","false","[]","[]","[]","","","","","",""
"","","","","","","","","","","","canvas-keyboard-response","320","346357","0.0-320.0","null","null","","","","","","","","","","","","","","fixation","","","2","26","","","","","","","","","",""
"","","","","","","","","","","","canvas-keyboard-response","321","346659","0.0-321.0","null","null","","","","","","","","","","","","","","stimulus","","","2","26","","","","","","","","","",""
"","","","","","","","","","","","canvas-button-response","322","347538","0.0-322.0","877","house","","","","","","","","","","","","","","perceptual","","","2","26","","","","","212","flower","6","0","0",""
"","","","","","","","","","","","canvas-button-response","323","348114","0.0-323.0","574","0","","","","","","","","","","","","","","confidence","","","2","26","","","","","","","","","","7"
"","","","","","","","","","","","preload","324","348114","0.0-324.0","","","","","true","","","","","","","","","","","preload","","","2","27","false","[]","[]","[]","","","","","",""
"","","","","","","","","","","","canvas-keyboard-response","325","348415","0.0-325.0","null","null","","","","","","","","","","","","","","fixation","","","2","27","","","","","","","","","",""
"","","","","","","","","","","","canvas-keyboard-response","326","348718","0.0-326.0","null","null","","","","","","","","","","","","","","stimulus","","","2","27","","","","","","","","","",""
"","","","","","","","","","","","canvas-button-response","327","349380","0.0-327.0","660","bridge","","","","","","","","","","","","","","perceptual","","","2","27","","","","","359","elephant","10","0","0",""
"","","","","","","","","","","","canvas-button-response","328","349918","0.0-328.0","537","0","","","","","","","","","","","","","","confidence","","","2","27","","","","","","","","","","7"
"","","","","","","","","","","","preload","329","349918","0.0-329.0","","","","","true","","","","","","","","","","","preload","","","2","28","false","[]","[]","[]","","","","","",""
"","","","","","","","","","","","canvas-keyboard-response","330","350220","0.0-330.0","null","null","","","","","","","","","","","","","","fixation","","","2","28","","","","","","","","","",""
"","","","","","","","","","","","canvas-keyboard-response","331","350522","0.0-331.0","null","null","","","","","","","","","","","","","","stimulus","","","2","28","","","","","","","","","",""
"","","","","","","","","","","","canvas-button-response","332","351197","0.0-332.0","673","bridge","","","","","","","","","","","","","","perceptual","","","2","28","","","","","181","bridge","10","0","1",""
"","","","","","","","","","","","canvas-button-response","333","351742","0.0-333.0","544","0","","","","","","","","","","","","","","confidence","","","2","28","","","","","","","","","","8"
"","","","","","","","","","","","preload","334","351742","0.0-334.0","","","","","true","","","","","","","","","","","preload","","","2","29","false","[]","[]","[]","","","","","",""
"","","","","","","","","","","","canvas-keyboard-response","335","352044","0.0-335.0","null","null","","","","","","","","","","","","","","fixation","","","2","29","","","","","","","","","",""
"","","","","","","","","","","","canvas-keyboard-response","336","352346","0.0-336.0","null","null","","","","","","","","","","","","","","stimulus","","","2","29","","","","","","","","","",""
"","","","","","","","","","","","canvas-button-response","337","353600","0.0-337.0","1253","elephant","","","","","","","","","","","","","","perceptual","","","2","29","","","","","339","elephant","6","0","1",""
"","","","","","","","","","","","canvas-button-response","338","354501","0.0-338.0","899","5","","","","","","","","","","","","","","confidence","","","2","29","","","","","","","","","","9"
"","","","","","","","","","","","preload","339","354501","0.0-339.0","","","","","true","","","","","","","","","","","preload","","","2","30","false","[]","[]","[]","","","","","",""
"","","","","","","","","","","","canvas-keyboard-response","340","354804","0.0-340.0","null","null","","","","","","","","","","","","","","fixation","","","2","30","","","","","","","","","",""
"","","","","","","","","","","","canvas-keyboard-response","341","355106","0.0-341.0","null","null","","","","","","","","","","","","","","stimulus","","","2","30","","","","","","","","","",""
"","","","","","","","","","","","canvas-button-response","342","355973","0.0-342.0","865","elephant","","","","","","","","","","","","","","perceptual","","","2","30","","","","","331","elephant","6","0","1",""
"","","","","","","","","","","","canvas-button-response","343","357076","0.0-343.0","1102","4","","","","","","","","","","","","","","confidence","","","2","30","","","","","","","","","","10"
"","","","","","","","","","","","preload","344","357076","0.0-344.0","","","","","true","","","","","","","","","","","preload","","","2","31","false","[]","[]","[]","","","","","",""
"","","","","","","","","","","","canvas-keyboard-response","345","357378","0.0-345.0","null","null","","","","","","","","","","","","","","fixation","","","2","31","","","","","","","","","",""
"","","","","","","","","","","","canvas-keyboard-response","346","357679","0.0-346.0","null","null","","","","","","","","","","","","","","stimulus","","","2","31","","","","","","","","","",""
"","","","","","","","","","","","canvas-button-response","347","358793","0.0-347.0","1112","bridge","","","","","","","","","","","","","","perceptual","","","2","31","","","","","76","car","10","0","0",""
"","","","","","","","","","","","canvas-button-response","348","359346","0.0-348.0","551","3","","","","","","","","","","","","","","confidence","","","2","31","","","","","","","","","","10"
"","","","","","","","","","","","preload","349","359346","0.0-349.0","","","","","true","","","","","","","","","","","preload","","","2","32","false","[]","[]","[]","","","","","",""
"","","","","","","","","","","","canvas-keyboard-response","350","359649","0.0-350.0","null","null","","","","","","","","","","","","","","fixation","","","2","32","","","","","","","","","",""
"","","","","","","","","","","","canvas-keyboard-response","351","359951","0.0-351.0","null","null","","","","","","","","","","","","","","stimulus","","","2","32","","","","","","","","","",""
"","","","","","","","","","","","canvas-button-response","352","360442","0.0-352.0","490","car","","","","","","","","","","","","","","perceptual","","","2","32","","","","","39","house","10","0","0",""
"","","","","","","","","","","","canvas-button-response","353","361017","0.0-353.0","574","0","","","","","","","","","","","","","","confidence","","","2","32","","","","","","","","","","10"
"","","","","","","","","","","","preload","354","361017","0.0-354.0","","","","","true","","","","","","","","","","","preload","","","2","33","false","[]","[]","[]","","","","","",""
"","","","","","","","","","","","canvas-keyboard-response","355","361319","0.0-355.0","null","null","","","","","","","","","","","","","","fixation","","","2","33","","","","","","","","","",""
"","","","","","","","","","","","canvas-keyboard-response","356","361620","0.0-356.0","null","null","","","","","","","","","","","","","","stimulus","","","2","33","","","","","","","","","",""
"","","","","","","","","","","","canvas-button-response","357","362892","0.0-357.0","1271","house","","","","","","","","","","","","","","perceptual","","","2","33","","","","","34","house","10","0","1",""
"","","","","","","","","","","","canvas-button-response","358","363439","0.0-358.0","546","0","","","","","","","","","","","","","","confidence","","","2","33","","","","","","","","","","11"
"","","","","","","","","","","","preload","359","363439","0.0-359.0","","","","","true","","","","","","","","","","","preload","","","2","34","false","[]","[]","[]","","","","","",""
"","","","","","","","","","","","canvas-keyboard-response","360","363741","0.0-360.0","null","null","","","","","","","","","","","","","","fixation","","","2","34","","","","","","","","","",""
"","","","","","","","","","","","canvas-keyboard-response","361","364044","0.0-361.0","null","null","","","","","","","","","","","","","","stimulus","","","2","34","","","","","","","","","",""
"","","","","","","","","","","","canvas-button-response","362","365051","0.0-362.0","1005","car","","","","","","","","","","","","","","perceptual","","","2","34","","","","","51","car","6","0","1",""
"","","","","","","","","","","","canvas-button-response","363","366779","0.0-363.0","1728","5","","","","","","","","","","","","","","confidence","","","2","34","","","","","","","","","","12"
"","","","","","","","","","","","preload","364","366780","0.0-364.0","","","","","true","","","","","","","","","","","preload","","","2","35","false","[]","[]","[]","","","","","",""
"","","","","","","","","","","","canvas-keyboard-response","365","367081","0.0-365.0","null","null","","","","","","","","","","","","","","fixation","","","2","35","","","","","","","","","",""
"","","","","","","","","","","","canvas-keyboard-response","366","367383","0.0-366.0","null","null","","","","","","","","","","","","","","stimulus","","","2","35","","","","","","","","","",""
"","","","","","","","","","","","canvas-button-response","367","369184","0.0-367.0","1800","bed","","","","","","","","","","","","","","perceptual","","","2","35","","","","","96","phone","6","0","0",""
"","","","","","","","","","","","canvas-button-response","368","369810","0.0-368.0","625","0","","","","","","","","","","","","","","confidence","","","2","35","","","","","","","","","","12"
"","","","","","","","","","","","preload","369","369810","0.0-369.0","","","","","true","","","","","","","","","","","preload","","","2","36","false","[]","[]","[]","","","","","",""
"","","","","","","","","","","","canvas-keyboard-response","370","370111","0.0-370.0","null","null","","","","","","","","","","","","","","fixation","","","2","36","","","","","","","","","",""
"","","","","","","","","","","","canvas-keyboard-response","371","370414","0.0-371.0","null","null","","","","","","","","","","","","","","stimulus","","","2","36","","","","","","","","","",""
"","","","","","","","","","","","canvas-button-response","372","373500","0.0-372.0","3085","bridge","","","","","","","","","","","","","","perceptual","","","2","36","","","","","190","bridge","10","0","1",""
"","","","","","","","","","","","canvas-button-response","373","374970","0.0-373.0","1469","0","","","","","","","","","","","","","","confidence","","","2","36","","","","","","","","","","13"
"","","","","","","","","","","","preload","374","374971","0.0-374.0","","","","","true","","","","","","","","","","","preload","","","2","37","false","[]","[]","[]","","","","","",""
"","","","","","","","","","","","canvas-keyboard-response","375","375273","0.0-375.0","null","null","","","","","","","","","","","","","","fixation","","","2","37","","","","","","","","","",""
"","","","","","","","","","","","canvas-keyboard-response","376","375576","0.0-376.0","null","null","","","","","","","","","","","","","","stimulus","","","2","37","","","","","","","","","",""
"","","","","","","","","","","","canvas-button-response","377","378425","0.0-377.0","2847","flower","","","","","","","","","","","","","","perceptual","","","2","37","","","","","230","flower","10","0","1",""
"","","","","","","","","","","","canvas-button-response","378","380984","0.0-378.0","2558","6","","","","","","","","","","","","","","confidence","","","2","37","","","","","","","","","","14"
"","","","","","","","","","","","preload","379","380984","0.0-379.0","","","","","true","","","","","","","","","","","preload","","","2","38","false","[]","[]","[]","","","","","",""
"","","","","","","","","","","","canvas-keyboard-response","380","381287","0.0-380.0","null","null","","","","","","","","","","","","","","fixation","","","2","38","","","","","","","","","",""
"","","","","","","","","","","","canvas-keyboard-response","381","381589","0.0-381.0","null","null","","","","","","","","","","","","","","stimulus","","","2","38","","","","","","","","","",""
"","","","","","","","","","","","canvas-button-response","382","384283","0.0-382.0","2693","car","","","","","","","","","","","","","","perceptual","","","2","38","","","","","271","train","10","0","0",""
"","","","","","","","","","","","canvas-button-response","383","385817","0.0-383.0","1533","4","","","","","","","","","","","","","","confidence","","","2","38","","","","","","","","","","14"
"","","","","","","","","","","","preload","384","385817","0.0-384.0","","","","","true","","","","","","","","","","","preload","","","2","39","false","[]","[]","[]","","","","","",""
"","","","","","","","","","","","canvas-keyboard-response","385","386119","0.0-385.0","null","null","","","","","","","","","","","","","","fixation","","","2","39","","","","","","","","","",""
"","","","","","","","","","","","canvas-keyboard-response","386","386421","0.0-386.0","null","null","","","","","","","","","","","","","","stimulus","","","2","39","","","","","","","","","",""
"","","","","","","","","","","","canvas-button-response","387","406932","0.0-387.0","20509","knife","","","","","","","","","","","","","","perceptual","","","2","39","","","","","101","phone","10","0","0",""
"","","","","","","","","","","","canvas-button-response","388","409906","0.0-388.0","2973","2","","","","","","","","","","","","","","confidence","","","2","39","","","","","","","","","","14"
"","","","","","","","","","","","preload","389","409906","0.0-389.0","","","","","true","","","","","","","","","","","preload","","","2","40","false","[]","[]","[]","","","","","",""
"","","","","","","","","","","","canvas-keyboard-response","390","410209","0.0-390.0","null","null","","","","","","","","","","","","","","fixation","","","2","40","","","","","","","","","",""
"","","","","","","","","","","","canvas-keyboard-response","391","410512","0.0-391.0","null","null","","","","","","","","","","","","","","stimulus","","","2","40","","","","","","","","","",""
"","","","","","","","","","","","canvas-button-response","392","413363","0.0-392.0","2850","elephant","","","","","","","","","","","","","","perceptual","","","2","40","","","","","356","elephant","10","0","1",""
"","","","","","","","","","","","canvas-button-response","393","414716","0.0-393.0","1352","5","","","","","","","","","","","","","","confidence","","","2","40","","","","","","","","","","15"
"","","","","","","","","","","","preload","394","414717","0.0-394.0","","","","","true","","","","","","","","","","","preload","","","2","41","false","[]","[]","[]","","","","","",""
"","","","","","","","","","","","canvas-keyboard-response","395","415019","0.0-395.0","null","null","","","","","","","","","","","","","","fixation","","","2","41","","","","","","","","","",""
"","","","","","","","","","","","canvas-keyboard-response","396","415322","0.0-396.0","null","null","","","","","","","","","","","","","","stimulus","","","2","41","","","","","","","","","",""
"","","","","","","","","","","","canvas-button-response","397","416468","0.0-397.0","1144","bridge","","","","","","","","","","","","","","perceptual","","","2","41","","","","","175","bridge","6","0","1",""
"","","","","","","","","","","","canvas-button-response","398","417279","0.0-398.0","810","8","","","","","","","","","","","","","","confidence","","","2","41","","","","","","","","","","16"
"","","","","","","","","","","","preload","399","417280","0.0-399.0","","","","","true","","","","","","","","","","","preload","","","2","42","false","[]","[]","[]","","","","","",""
"","","","","","","","","","","","canvas-keyboard-response","400","417582","0.0-400.0","null","null","","","","","","","","","","","","","","fixation","","","2","42","","","","","","","","","",""
"","","","","","","","","","","","canvas-keyboard-response","401","417884","0.0-401.0","null","null","","","","","","","","","","","","","","stimulus","","","2","42","","","","","","","","","",""
"","","","","","","","","","","","canvas-button-response","402","422338","0.0-402.0","4452","house","","","","","","","","","","","","","","perceptual","","","2","42","","","","","188","bridge","10","0","0",""
"","","","","","","","","","","","canvas-button-response","403","422921","0.0-403.0","582","4","","","","","","","","","","","","","","confidence","","","2","42","","","","","","","","","","16"
"","","","","","","","","","","","preload","404","422922","0.0-404.0","","","","","true","","","","","","","","","","","preload","","","2","43","false","[]","[]","[]","","","","","",""
"","","","","","","","","","","","canvas-keyboard-response","405","423224","0.0-405.0","null","null","","","","","","","","","","","","","","fixation","","","2","43","","","","","","","","","",""
"","","","","","","","","","","","canvas-keyboard-response","406","423526","0.0-406.0","null","null","","","","","","","","","","","","","","stimulus","","","2","43","","","","","","","","","",""
"","","","","","","","","","","","canvas-button-response","407","424959","0.0-407.0","1431","car","","","","","","","","","","","","","","perceptual","","","2","43","","","","","262","train","10","0","0",""
"","","","","","","","","","","","canvas-button-response","408","426483","0.0-408.0","1522","5","","","","","","","","","","","","","","confidence","","","2","43","","","","","","","","","","16"
"","","","","","","","","","","","preload","409","426483","0.0-409.0","","","","","true","","","","","","","","","","","preload","","","2","44","false","[]","[]","[]","","","","","",""
"","","","","","","","","","","","canvas-keyboard-response","410","426785","0.0-410.0","null","null","","","","","","","","","","","","","","fixation","","","2","44","","","","","","","","","",""
"","","","","","","","","","","","canvas-keyboard-response","411","427088","0.0-411.0","null","null","","","","","","","","","","","","","","stimulus","","","2","44","","","","","","","","","",""
"","","","","","","","","","","","canvas-button-response","412","429334","0.0-412.0","2245","car","","","","","","","","","","","","","","perceptual","","","2","44","","","","","145","bed","10","0","0",""
"","","","","","","","","","","","canvas-button-response","413","430122","0.0-413.0","786","4","","","","","","","","","","","","","","confidence","","","2","44","","","","","","","","","","16"
"","","","","","","","","","","","preload","414","430122","0.0-414.0","","","","","true","","","","","","","","","","","preload","","","2","45","false","[]","[]","[]","","","","","",""
"","","","","","","","","","","","canvas-keyboard-response","415","430424","0.0-415.0","null","null","","","","","","","","","","","","","","fixation","","","2","45","","","","","","","","","",""
"","","","","","","","","","","","canvas-keyboard-response","416","430726","0.0-416.0","null","null","","","","","","","","","","","","","","stimulus","","","2","45","","","","","","","","","",""
"","","","","","","","","","","","canvas-button-response","417","432254","0.0-417.0","1526","elephant","","","","","","","","","","","","","","perceptual","","","2","45","","","","","349","elephant","10","0","1",""
"","","","","","","","","","","","canvas-button-response","418","434600","0.0-418.0","2345","9","","","","","","","","","","","","","","confidence","","","2","45","","","","","","","","","","17"
"","","","","","","","","","","","preload","419","434601","0.0-419.0","","","","","true","","","","","","","","","","","preload","","","2","46","false","[]","[]","[]","","","","","",""
"","","","","","","","","","","","canvas-keyboard-response","420","434903","0.0-420.0","null","null","","","","","","","","","","","","","","fixation","","","2","46","","","","","","","","","",""
"","","","","","","","","","","","canvas-keyboard-response","421","435206","0.0-421.0","null","null","","","","","","","","","","","","","","stimulus","","","2","46","","","","","","","","","",""
"","","","","","","","","","","","canvas-button-response","422","438538","0.0-422.0","3331","flower","","","","","","","","","","","","","","perceptual","","","2","46","","","","","291","cat","6","0","0",""
"","","","","","","","","","","","canvas-button-response","423","439463","0.0-423.0","923","6","","","","","","","","","","","","","","confidence","","","2","46","","","","","","","","","","17"
"","","","","","","","","","","","preload","424","439464","0.0-424.0","","","","","true","","","","","","","","","","","preload","","","2","47","false","[]","[]","[]","","","","","",""
"","","","","","","","","","","","canvas-keyboard-response","425","439767","0.0-425.0","null","null","","","","","","","","","","","","","","fixation","","","2","47","","","","","","","","","",""
"","","","","","","","","","","","canvas-keyboard-response","426","440070","0.0-426.0","null","null","","","","","","","","","","","","","","stimulus","","","2","47","","","","","","","","","",""
"","","","","","","","","","","","canvas-button-response","427","443503","0.0-427.0","3432","cat","","","","","","","","","","","","","","perceptual","","","2","47","","","","","335","elephant","6","0","0",""
"","","","","","","","","","","","canvas-button-response","428","444596","0.0-428.0","1092","3","","","","","","","","","","","","","","confidence","","","2","47","","","","","","","","","","17"
"","","","","","","","","","","","preload","429","444596","0.0-429.0","","","","","true","","","","","","","","","","","preload","","","2","48","false","[]","[]","[]","","","","","",""
"","","","","","","","","","","","canvas-keyboard-response","430","444899","0.0-430.0","null","null","","","","","","","","","","","","","","fixation","","","2","48","","","","","","","","","",""
"","","","","","","","","","","","canvas-keyboard-response","431","445202","0.0-431.0","null","null","","","","","","","","","","","","","","stimulus","","","2","48","","","","","","","","","",""
"","","","","","","","","","","","canvas-button-response","432","447696","0.0-432.0","2493","phone","","","","","","","","","","","","","","perceptual","","","2","48","","","","","81","phone","6","0","1",""
"","","","","","","","","","","","canvas-button-response","433","448413","0.0-433.0","715","4","","","","","","","","","","","","","","confidence","","","2","48","","","","","","","","","","18"
"","","","","","","","","","","","preload","434","448414","0.0-434.0","","","","","true","","","","","","","","","","","preload","","","2","49","false","[]","[]","[]","","","","","",""
"","","","","","","","","","","","canvas-keyboard-response","435","448716","0.0-435.0","null","null","","","","","","","","","","","","","","fixation","","","2","49","","","","","","","","","",""
"","","","","","","","","","","","canvas-keyboard-response","436","449018","0.0-436.0","null","null","","","","","","","","","","","","","","stimulus","","","2","49","","","","","","","","","",""
"","","","","","","","","","","","canvas-button-response","437","450896","0.0-437.0","1876","flower","","","","","","","","","","","","","","perceptual","","","2","49","","","","","219","flower","6","0","1",""
"","","","","","","","","","","","canvas-button-response","438","458079","0.0-438.0","7182","6","","","","","","","","","","","","","","confidence","","","2","49","","","","","","","","","","19"
"","","","","","","","","","","","html-button-response","439","474000","0.0-439.0","15920","0","","","","","","","","","","","","","","<p style=""font-size:20px;color:#000000"">You got 19 out of 50 trials correct in this block.<br><br>You have completed 6% of the experiment.<br><br>Take a short break.<br><br>When you are ready, click Continue to proceed.","","","2","49","","","","","","","","","",""
"","","","","","","","","","","","html-keyboard-response","440","475002","0.0-440.0","null","null","","","","","","","","","","","","","","<p style=""font-size:32px;color:#000000""><br><br> RUN: &nbsp 1/4 <br><br> BLOCK: 2/4 ","","","2","49","","","","","","","","","",""
"","","","","","","","","","","","preload","441","475003","0.0-441.0","","","","","true","","","","","","","","","","","preload","","","2","50","false","[]","[]","[]","","","","","",""
"","","","","","","","","","","","canvas-keyboard-response","442","475306","0.0-442.0","null","null","","","","","","","","","","","","","","fixation","","","2","50","","","","","","","","","",""
"","","","","","","","","","","","canvas-keyboard-response","443","475608","0.0-443.0","null","null","","","","","","","","","","","","","","stimulus","","","2","50","","","","","","","","","",""
"","","","","","","","","","","","canvas-button-response","444","476492","0.0-444.0","882","car","","","","","","","","","","","","","","perceptual","","","2","50","","","","","144","bed","10","0","0",""
"","","","","","","","","","","","canvas-button-response","445","477450","0.0-445.0","957","0","","","","","","","","","","","","","","confidence","","","2","50","","","","","","","","","","0"
"","","","","","","","","","","","preload","446","477451","0.0-446.0","","","","","true","","","","","","","","","","","preload","","","2","51","false","[]","[]","[]","","","","","",""
"","","","","","","","","","","","canvas-keyboard-response","447","477751","0.0-447.0","null","null","","","","","","","","","","","","","","fixation","","","2","51","","","","","","","","","",""
"","","","","","","","","","","","canvas-keyboard-response","448","478052","0.0-448.0","null","null","","","","","","","","","","","","","","stimulus","","","2","51","","","","","","","","","",""
"","","","","","","","","","","","canvas-button-response","449","478567","0.0-449.0","514","car","","","","","","","","","","","","","","perceptual","","","2","51","","","","","355","elephant","10","0","0",""
"","","","","","","","","","","","canvas-button-response","450","479137","0.0-450.0","569","0","","","","","","","","","","","","","","confidence","","","2","51","","","","","","","","","","0"
"","","","","","","","","","","","preload","451","479138","0.0-451.0","","","","","true","","","","","","","","","","","preload","","","2","52","false","[]","[]","[]","","","","","",""
"","","","","","","","","","","","canvas-keyboard-response","452","479439","0.0-452.0","null","null","","","","","","","","","","","","","","fixation","","","2","52","","","","","","","","","",""
"","","","","","","","","","","","canvas-keyboard-response","453","479741","0.0-453.0","null","null","","","","","","","","","","","","","","stimulus","","","2","52","","","","","","","","","",""
"","","","","","","","","","","","canvas-button-response","454","480995","0.0-454.0","1253","bridge","","","","","","","","","","","","","","perceptual","","","2","52","","","","","163","bridge","6","0","1",""
"","","","","","","","","","","","canvas-button-response","455","481587","0.0-455.0","591","5","","","","","","","","","","","","","","confidence","","","2","52","","","","","","","","","","1"
"","","","","","","","","","","","preload","456","481587","0.0-456.0","","","","","true","","","","","","","","","","","preload","","","2","53","false","[]","[]","[]","","","","","",""
"","","","","","","","","","","","canvas-keyboard-response","457","481889","0.0-457.0","null","null","","","","","","","","","","","","","","fixation","","","2","53","","","","","","","","","",""
"","","","","","","","","","","","canvas-keyboard-response","458","482192","0.0-458.0","null","null","","","","","","","","","","","","","","stimulus","","","2","53","","","","","","","","","",""
"","","","","","","","","","","","canvas-button-response","459","482845","0.0-459.0","651","car","","","","","","","","","","","","","","perceptual","","","2","53","","","","","89","phone","6","0","0",""
"","","","","","","","","","","","canvas-button-response","460","483517","0.0-460.0","671","0","","","","","","","","","","","","","","confidence","","","2","53","","","","","","","","","","1"
"","","","","","","","","","","","preload","461","483518","0.0-461.0","","","","","true","","","","","","","","","","","preload","","","2","54","false","[]","[]","[]","","","","","",""
"","","","","","","","","","","","canvas-keyboard-response","462","483819","0.0-462.0","null","null","","","","","","","","","","","","","","fixation","","","2","54","","","","","","","","","",""
"","","","","","","","","","","","canvas-keyboard-response","463","484121","0.0-463.0","null","null","","","","","","","","","","","","","","stimulus","","","2","54","","","","","","","","","",""
"","","","","","","","","","","","canvas-button-response","464","484767","0.0-464.0","644","knife","","","","","","","","","","","","","","perceptual","","","2","54","","","","","147","bed","10","0","0",""
"","","","","","","","","","","","canvas-button-response","465","485346","0.0-465.0","578","0","","","","","","","","","","","","","","confidence","","","2","54","","","","","","","","","","1"
"","","","","","","","","","","","preload","466","485346","0.0-466.0","","","","","true","","","","","","","","","","","preload","","","2","55","false","[]","[]","[]","","","","","",""
"","","","","","","","","","","","canvas-keyboard-response","467","485649","0.0-467.0","null","null","","","","","","","","","","","","","","fixation","","","2","55","","","","","","","","","",""
"","","","","","","","","","","","canvas-keyboard-response","468","485951","0.0-468.0","null","null","","","","","","","","","","","","","","stimulus","","","2","55","","","","","","","","","",""
"","","","","","","","","","","","canvas-button-response","469","486673","0.0-469.0","721","knife","","","","","","","","","","","","","","perceptual","","","2","55","","","","","115","phone","10","0","0",""
"","","","","","","","","","","","canvas-button-response","470","487251","0.0-470.0","577","0","","","","","","","","","","","","","","confidence","","","2","55","","","","","","","","","","1"
"","","","","","","","","","","","preload","471","487252","0.0-471.0","","","","","true","","","","","","","","","","","preload","","","2","56","false","[]","[]","[]","","","","","",""
"","","","","","","","","","","","canvas-keyboard-response","472","487552","0.0-472.0","null","null","","","","","","","","","","","","","","fixation","","","2","56","","","","","","","","","",""
"","","","","","","","","","","","canvas-keyboard-response","473","487854","0.0-473.0","null","null","","","","","","","","","","","","","","stimulus","","","2","56","","","","","","","","","",""
"","","","","","","","","","","","canvas-button-response","474","488508","0.0-474.0","652","car","","","","","","","","","","","","","","perceptual","","","2","56","","","","","329","elephant","6","0","0",""
"","","","","","","","","","","","canvas-button-response","475","489149","0.0-475.0","640","0","","","","","","","","","","","","","","confidence","","","2","56","","","","","","","","","","1"
"","","","","","","","","","","","preload","476","489150","0.0-476.0","","","","","true","","","","","","","","","","","preload","","","2","57","false","[]","[]","[]","","","","","",""
"","","","","","","","","","","","canvas-keyboard-response","477","489451","0.0-477.0","null","null","","","","","","","","","","","","","","fixation","","","2","57","","","","","","","","","",""
"","","","","","","","","","","","canvas-keyboard-response","478","489752","0.0-478.0","null","null","","","","","","","","","","","","","","stimulus","","","2","57","","","","","","","","","",""
"","","","","","","","","","","","canvas-button-response","479","490570","0.0-479.0","817","car","","","","","","","","","","","","","","perceptual","","","2","57","","","","","57","car","6","0","1",""
"","","","","","","","","","","","canvas-button-response","480","491178","0.0-480.0","607","0","","","","","","","","","","","","","","confidence","","","2","57","","","","","","","","","","2"
"","","","","","","","","","","","preload","481","491179","0.0-481.0","","","","","true","","","","","","","","","","","preload","","","2","58","false","[]","[]","[]","","","","","",""
"","","","","","","","","","","","canvas-keyboard-response","482","491480","0.0-482.0","null","null","","","","","","","","","","","","","","fixation","","","2","58","","","","","","","","","",""
"","","","","","","","","","","","canvas-keyboard-response","483","491782","0.0-483.0","null","null","","","","","","","","","","","","","","stimulus","","","2","58","","","","","","","","","",""
"","","","","","","","","","","","canvas-button-response","484","492395","0.0-484.0","612","house","","","","","","","","","","","","","","perceptual","","","2","58","","","","","28","house","10","0","1",""
"","","","","","","","","","","","canvas-button-response","485","492916","0.0-485.0","520","0","","","","","","","","","","","","","","confidence","","","2","58","","","","","","","","","","3"
"","","","","","","","","","","","preload","486","492917","0.0-486.0","","","","","true","","","","","","","","","","","preload","","","2","59","false","[]","[]","[]","","","","","",""
"","","","","","","","","","","","canvas-keyboard-response","487","493218","0.0-487.0","null","null","","","","","","","","","","","","","","fixation","","","2","59","","","","","","","","","",""
"","","","","","","","","","","","canvas-keyboard-response","488","493521","0.0-488.0","null","null","","","","","","","","","","","","","","stimulus","","","2","59","","","","","","","","","",""
"","","","","","","","","","","","canvas-button-response","489","494387","0.0-489.0","865","cat","","","","","","","","","","","","","","perceptual","","","2","59","","","","","314","cat","10","0","1",""
"","","","","","","","","","","","canvas-button-response","490","495329","0.0-490.0","941","0","","","","","","","","","","","","","","confidence","","","2","59","","","","","","","","","","4"
"","","","","","","","","","","","preload","491","495330","0.0-491.0","","","","","true","","","","","","","","","","","preload","","","2","60","false","[]","[]","[]","","","","","",""
"","","","","","","","","","","","canvas-keyboard-response","492","495632","0.0-492.0","null","null","","","","","","","","","","","","","","fixation","","","2","60","","","","","","","","","",""
