"width","height","webaudio","browser","browser_version","mobile","os","fullscreen","vsync_rate","webcam","microphone","trial_type","trial_index","time_elapsed","internal_node_id","rt","response","accuracy","view_history","success","item_width_mm","item_height_mm","item_width_px","px2mm","view_dist_mm","item_width_deg","px2deg","scale_factor","win_width_deg","win_height_deg","stimulus","datetime","subjectID","curr_triallist","trial_no","timeout","failed_images","failed_audio","failed_video","image_index","category","blur","reps","correct","running_score"
"1440","778","true","chrome","140.0.0","false","Mac OS","true","59.93","true","true","browser-check","0","1016","0.0-0.0","","","","","","","","","","","","","","","","","","","","","","","","","","","","","",""
"","","","","","","","","","","","survey","1","31774","0.0-1.0","30712","{""P0_Q0"":""904095514"",""P0_Q1"":""18"",""P1_Q0"":""Female"",""P1_Q1"":""Not Hispanic or Latino"",""P1_Q2"":""White"",""P1_Q3"":""Normal"",""P1_Q4"":""Right-Handed""}","[]","","","","","","","","","","","","","","","","","","","","","","","","","","",""
"","","","","","","","","","","","instructions","2","77093","0.0-2.0","45320","","","[{""page_index"":0,""viewing_time"":25252},{""page_index"":1,""viewing_time"":8200},{""page_index"":2,""viewing_time"":6900},{""page_index"":3,""viewing_time"":4968}]","","","","","","","","","","","","","","","","","","","","","","","","","",""
"","","","","","","","","","","","fullscreen","3","79829","0.0-3.0","1732","","","","true","","","","","","","","","","","","","","","","","","","","","","","","",""
"","","","","","","","","","","","virtual-chinrest","4","226989","0.0-4.0","147163","","","","","85.6","53.98","259.63210643713086","3.0311728682561587","565.63","8.654403547904362","30","1.563751130672707","48","30","","","","","","","","","","","","","","",""
"","","","","","","","","","","","instructions","5","401245","0.0-5.0","174263","","","[{""page_index"":0,""viewing_time"":63624},{""page_index"":1,""viewing_time"":18017},{""page_index"":2,""viewing_time"":16202},{""page_index"":3,""viewing_time"":6133},{""page_index"":4,""viewing_time"":10933},{""page_index"":5,""viewing_time"":56837},{""page_index"":6,""viewing_time"":2517}]","","","","","","","","","","","","","","","","","","","","","","","","","",""
"","","","","","","","","","","","html-button-response","6","406262","0.0-6.0","5013","0","","","","","","","","","","","","","","start_practice","Sat Oct 18 2025 12:13:05 GMT-0400 (Eastern Daylight Time)","27023","","","","","","","","","","","",""
"","","","","","","","","","","","preload","7","406264","0.0-7.0","","","","","true","","","","","","","","","","","preload","","","0","0","false","[]","[]","[]","","","","","",""
"","","","","","","","","","","","canvas-keyboard-response","8","406571","0.0-8.0","null","null","","","","","","","","","","","","","","fixation","","","0","0","","","","","","","","","",""
"","","","","","","","","","","","canvas-keyboard-response","9","406874","0.0-9.0","null","null","","","","","","","","","","","","","","stimulus","","","0","0","","","","","","","","","",""
"","","","","","","","","","","","canvas-button-response","10","408480","0.0-10.0","1602","cat","","","","","","","","","","","","","","perceptual","","","0","0","","","","","72","cat","1","","1",""
"","","","","","","","","","","","canvas-button-response","11","410463","0.0-11.0","1980","10","","","","","","","","","","","","","","confidence","","","0","0","","","","","","","","","","1"
"","","","","","","","","","","","html-keyboard-response","12","411467","0.0-12.0","null","null","","","","","","","","","","","","","","feedback","Sat Oct 18 2025 12:13:14 GMT-0400 (Eastern Daylight Time)","27023","0","0","","","","","","","","","",""
"","","","","","","","","","","","preload","13","411468","0.0-13.0","","","","","true","","","","","","","","","","","preload","","","0","1","false","[]","[]","[]","","","","","",""
"","","","","","","","","","","","canvas-keyboard-response","14","411771","0.0-14.0","null","null","","","","","","","","","","","","","","fixation","","","0","1","","","","","","","","","",""
"","","","","","","","","","","","canvas-keyboard-response","15","412073","0.0-15.0","null","null","","","","","","","","","","","","","","stimulus","","","0","1","","","","","","","","","",""
"","","","","","","","","","","","canvas-button-response","16","413195","0.0-16.0","1120","car","","","","","","","","","","","","","","perceptual","","","0","1","","","","","12","car","1","","1",""
"","","","","","","","","","","","canvas-button-response","17","415150","0.0-17.0","1952","10","","","","","","","","","","","","","","confidence","","","0","1","","","","","","","","","","2"
"","","","","","","","","","","","html-keyboard-response","18","416153","0.0-18.0","null","null","","","","","","","","","","","","","","feedback","Sat Oct 18 2025 12:13:19 GMT-0400 (Eastern Daylight Time)","27023","0","1","","","","","","","","","",""
"","","","","","","","","","","","preload","19","416153","0.0-19.0","","","","","true","","","","","","","","","","","preload","","","0","2","false","[]","[]","[]","","","","","",""
"","","","","","","","","","","","canvas-keyboard-response","20","416456","0.0-20.0","null","null","","","","","","","","","","","","","","fixation","","","0","2","","","","","","","","","",""
"","","","","","","","","","","","canvas-keyboard-response","21","416760","0.0-21.0","null","null","","","","","","","","","","","","","","stimulus","","","0","2","","","","","","","","","",""
"","","","","","","","","","","","canvas-button-response","22","419611","0.0-22.0","2848","knife","","","","","","","","","","","","","","perceptual","","","0","2","","","","","92","knife","1","","1",""
"","","","","","","","","","","","canvas-button-response","23","420661","0.0-23.0","1048","9","","","","","","","","","","","","","","confidence","","","0","2","","","","","","","","","","3"
"","","","","","","","","","","","html-keyboard-response","24","421664","0.0-24.0","null","null","","","","","","","","","","","","","","feedback","Sat Oct 18 2025 12:13:25 GMT-0400 (Eastern Daylight Time)","27023","0","2","","","","","","","","","",""
"","","","","","","","","","","","preload","25","421665","0.0-25.0","","","","","true","","","","","","","","","","","preload","","","0","3","false","[]","[]","[]","","","","","",""
"","","","","","","","","","","","canvas-keyboard-response","26","421968","0.0-26.0","null","null","","","","","","","","","","","","","","fixation","","","0","3","","","","","","","","","",""
"","","","","","","","","","","","canvas-keyboard-response","27","422272","0.0-27.0","null","null","","","","","","","","","","","","","","stimulus","","","0","3","","","","","","","","","",""
"","","","","","","","","","","","canvas-button-response","28","423428","0.0-28.0","1154","bridge","","","","","","","","","","","","","","perceptual","","","0","3","","","","","42","bridge","1","","1",""
"","","","","","","","","","","","canvas-button-response","29","424478","0.0-29.0","1048","10","","","","","","","","","","","","","","confidence","","","0","3","","","","","","","","","","4"
"","","","","","","","","","","","html-keyboard-response","30","425481","0.0-30.0","null","null","","","","","","","","","","","","","","feedback","Sat Oct 18 2025 12:13:28 GMT-0400 (Eastern Daylight Time)","27023","0","3","","","","","","","","","",""
"","","","","","","","","","","","preload","31","425482","0.0-31.0","","","","","true","","","","","","","","","","","preload","","","0","4","false","[]","[]","[]","","","","","",""
"","","","","","","","","","","","canvas-keyboard-response","32","425785","0.0-32.0","null","null","","","","","","","","","","","","","","fixation","","","0","4","","","","","","","","","",""
"","","","","","","","","","","","canvas-keyboard-response","33","426089","0.0-33.0","null","null","","","","","","","","","","","","","","stimulus","","","0","4","","","","","","","","","",""
"","","","","","","","","","","","canvas-button-response","34","428214","0.0-34.0","2122","train","","","","","","","","","","","","","","perceptual","","","0","4","","","","","62","train","1","","1",""
"","","","","","","","","","","","canvas-button-response","35","430363","0.0-35.0","2146","10","","","","","","","","","","","","","","confidence","","","0","4","","","","","","","","","","5"
"","","","","","","","","","","","html-keyboard-response","36","431366","0.0-36.0","null","null","","","","","","","","","","","","","","feedback","Sat Oct 18 2025 12:13:34 GMT-0400 (Eastern Daylight Time)","27023","0","4","","","","","","","","","",""
"","","","","","","","","","","","preload","37","431368","0.0-37.0","","","","","true","","","","","","","","","","","preload","","","0","5","false","[]","[]","[]","","","","","",""
"","","","","","","","","","","","canvas-keyboard-response","38","431670","0.0-38.0","null","null","","","","","","","","","","","","","","fixation","","","0","5","","","","","","","","","",""
"","","","","","","","","","","","canvas-keyboard-response","39","431974","0.0-39.0","null","null","","","","","","","","","","","","","","stimulus","","","0","5","","","","","","","","","",""
"","","","","","","","","","","","canvas-button-response","40","433462","0.0-40.0","1485","bed","","","","","","","","","","","","","","perceptual","","","0","5","","","","","32","bed","1","","1",""
"","","","","","","","","","","","canvas-button-response","41","434869","0.0-41.0","1403","10","","","","","","","","","","","","","","confidence","","","0","5","","","","","","","","","","6"
"","","","","","","","","","","","html-keyboard-response","42","435872","0.0-42.0","null","null","","","","","","","","","","","","","","feedback","Sat Oct 18 2025 12:13:39 GMT-0400 (Eastern Daylight Time)","27023","0","5","","","","","","","","","",""
"","","","","","","","","","","","preload","43","435873","0.0-43.0","","","","","true","","","","","","","","","","","preload","","","0","6","false","[]","[]","[]","","","","","",""
"","","","","","","","","","","","canvas-keyboard-response","44","436176","0.0-44.0","null","null","","","","","","","","","","","","","","fixation","","","0","6","","","","","","","","","",""
"","","","","","","","","","","","canvas-keyboard-response","45","436478","0.0-45.0","null","null","","","","","","","","","","","","","","stimulus","","","0","6","","","","","","","","","",""
"","","","","","","","","","","","canvas-button-response","46","437728","0.0-46.0","1248","house","","","","","","","","","","","","","","perceptual","","","0","6","","","","","2","house","1","","1",""
"","","","","","","","","","","","canvas-button-response","47","438913","0.0-47.0","1183","10","","","","","","","","","","","","","","confidence","","","0","6","","","","","","","","","","7"
"","","","","","","","","","","","html-keyboard-response","48","439917","0.0-48.0","null","null","","","","","","","","","","","","","","feedback","Sat Oct 18 2025 12:13:43 GMT-0400 (Eastern Daylight Time)","27023","0","6","","","","","","","","","",""
"","","","","","","","","","","","preload","49","439918","0.0-49.0","","","","","true","","","","","","","","","","","preload","","","0","7","false","[]","[]","[]","","","","","",""
"","","","","","","","","","","","canvas-keyboard-response","50","440222","0.0-50.0","null","null","","","","","","","","","","","","","","fixation","","","0","7","","","","","","","","","",""
"","","","","","","","","","","","canvas-keyboard-response","51","440525","0.0-51.0","null","null","","","","","","","","","","","","","","stimulus","","","0","7","","","","","","","","","",""
"","","","","","","","","","","","canvas-button-response","52","442980","0.0-52.0","2452","flower","","","","","","","","","","","","","","perceptual","","","0","7","","","","","52","flower","1","","1",""
"","","","","","","","","","","","canvas-button-response","53","443962","0.0-53.0","979","9","","","","","","","","","","","","","","confidence","","","0","7","","","","","","","","","","8"
"","","","","","","","","","","","html-keyboard-response","54","444964","0.0-54.0","null","null","","","","","","","","","","","","","","feedback","Sat Oct 18 2025 12:13:48 GMT-0400 (Eastern Daylight Time)","27023","0","7","","","","","","","","","",""
"","","","","","","","","","","","preload","55","444966","0.0-55.0","","","","","true","","","","","","","","","","","preload","","","0","8","false","[]","[]","[]","","","","","",""
"","","","","","","","","","","","canvas-keyboard-response","56","445268","0.0-56.0","null","null","","","","","","","","","","","","","","fixation","","","0","8","","","","","","","","","",""
"","","","","","","","","","","","canvas-keyboard-response","57","445572","0.0-57.0","null","null","","","","","","","","","","","","","","stimulus","","","0","8","","","","","","","","","",""
"","","","","","","","","","","","canvas-button-response","58","446745","0.0-58.0","1171","elephant","","","","","","","","","","","","","","perceptual","","","0","8","","","","","82","elephant","1","","1",""
"","","","","","","","","","","","canvas-button-response","59","447511","0.0-59.0","764","9","","","","","","","","","","","","","","confidence","","","0","8","","","","","","","","","","9"
"","","","","","","","","","","","html-keyboard-response","60","448513","0.0-60.0","null","null","","","","","","","","","","","","","","feedback","Sat Oct 18 2025 12:13:51 GMT-0400 (Eastern Daylight Time)","27023","0","8","","","","","","","","","",""
"","","","","","","","","","","","preload","61","448514","0.0-61.0","","","","","true","","","","","","","","","","","preload","","","0","9","false","[]","[]","[]","","","","","",""
"","","","","","","","","","","","canvas-keyboard-response","62","448817","0.0-62.0","null","null","","","","","","","","","","","","","","fixation","","","0","9","","","","","","","","","",""
"","","","","","","","","","","","canvas-keyboard-response","63","449120","0.0-63.0","null","null","","","","","","","","","","","","","","stimulus","","","0","9","","","","","","","","","",""
"","","","","","","","","","","","canvas-button-response","64","450646","0.0-64.0","1523","phone","","","","","","","","","","","","","","perceptual","","","0","9","","","","","22","phone","1","","1",""
"","","","","","","","","","","","canvas-button-response","65","451912","0.0-65.0","1263","10","","","","","","","","","","","","","","confidence","","","0","9","","","","","","","","","","10"
"","","","","","","","","","","","html-keyboard-response","66","452915","0.0-66.0","null","null","","","","","","","","","","","","","","feedback","Sat Oct 18 2025 12:13:56 GMT-0400 (Eastern Daylight Time)","27023","0","9","","","","","","","","","",""
"","","","","","","","","","","","html-button-response","67","477880","0.0-67.0","24963","0","","","","","","","","","","","","","","start_practice","Sat Oct 18 2025 12:13:57 GMT-0400 (Eastern Daylight Time)","27023","0","9","","","","","","","","","",""
"","","","","","","","","","","","preload","68","477882","0.0-68.0","","","","","true","","","","","","","","","","","preload","","","1","0","false","[]","[]","[]","","","","","",""
"","","","","","","","","","","","canvas-keyboard-response","69","478184","0.0-69.0","null","null","","","","","","","","","","","","","","fixation","","","1","0","","","","","","","","","",""
"","","","","","","","","","","","canvas-keyboard-response","70","478487","0.0-70.0","null","null","","","","","","","","","","","","","","stimulus","","","1","0","","","","","","","","","",""
"","","","","","","","","","","","canvas-button-response","71","480080","0.0-71.0","1590","knife","","","","","","","","","","","","","","perceptual","","","1","0","","","","","97","knife","10","","1",""
"","","","","","","","","","","","canvas-button-response","72","481629","0.0-72.0","1546","6","","","","","","","","","","","","","","confidence","","","1","0","","","","","","","","","","1"
"","","","","","","","","","","","html-keyboard-response","73","482631","0.0-73.0","null","null","","","","","","","","","","","","","","feedback","Sat Oct 18 2025 12:14:25 GMT-0400 (Eastern Daylight Time)","27023","1","0","","","","","","","","","",""
"","","","","","","","","","","","preload","74","482633","0.0-74.0","","","","","true","","","","","","","","","","","preload","","","1","1","false","[]","[]","[]","","","","","",""
"","","","","","","","","","","","canvas-keyboard-response","75","482935","0.0-75.0","null","null","","","","","","","","","","","","","","fixation","","","1","1","","","","","","","","","",""
"","","","","","","","","","","","canvas-keyboard-response","76","483238","0.0-76.0","null","null","","","","","","","","","","","","","","stimulus","","","1","1","","","","","","","","","",""
"","","","","","","","","","","","canvas-button-response","77","484563","0.0-77.0","1322","cat","","","","","","","","","","","","","","perceptual","","","1","1","","","","","77","cat","10","","1",""
"","","","","","","","","","","","canvas-button-response","78","485946","0.0-78.0","1380","5","","","","","","","","","","","","","","confidence","","","1","1","","","","","","","","","","2"
"","","","","","","","","","","","html-keyboard-response","79","486949","0.0-79.0","null","null","","","","","","","","","","","","","","feedback","Sat Oct 18 2025 12:14:30 GMT-0400 (Eastern Daylight Time)","27023","1","1","","","","","","","","","",""
"","","","","","","","","","","","preload","80","486950","0.0-80.0","","","","","true","","","","","","","","","","","preload","","","1","2","false","[]","[]","[]","","","","","",""
"","","","","","","","","","","","canvas-keyboard-response","81","487254","0.0-81.0","null","null","","","","","","","","","","","","","","fixation","","","1","2","","","","","","","","","",""
"","","","","","","","","","","","canvas-keyboard-response","82","487557","0.0-82.0","null","null","","","","","","","","","","","","","","stimulus","","","1","2","","","","","","","","","",""
"","","","","","","","","","","","canvas-button-response","83","488563","0.0-83.0","1003","house","","","","","","","","","","","","","","perceptual","","","1","2","","","","","4","house","6","","1",""
"","","","","","","","","","","","canvas-button-response","84","489462","0.0-84.0","897","8","","","","","","","","","","","","","","confidence","","","1","2","","","","","","","","","","3"
"","","","","","","","","","","","html-keyboard-response","85","490466","0.0-85.0","null","null","","","","","","","","","","","","","","feedback","Sat Oct 18 2025 12:14:33 GMT-0400 (Eastern Daylight Time)","27023","1","2","","","","","","","","","",""
"","","","","","","","","","","","preload","86","490467","0.0-86.0","","","","","true","","","","","","","","","","","preload","","","1","3","false","[]","[]","[]","","","","","",""
"","","","","","","","","","","","canvas-keyboard-response","87","490770","0.0-87.0","null","null","","","","","","","","","","","","","","fixation","","","1","3","","","","","","","","","",""
"","","","","","","","","","","","canvas-keyboard-response","88","491072","0.0-88.0","null","null","","","","","","","","","","","","","","stimulus","","","1","3","","","","","","","","","",""
"","","","","","","","","","","","canvas-button-response","89","492695","0.0-89.0","1620","train","","","","","","","","","","","","","","perceptual","","","1","3","","","","","64","train","6","","1",""
"","","","","","","","","","","","canvas-button-response","90","493213","0.0-90.0","515","9","","","","","","","","","","","","","","confidence","","","1","3","","","","","","","","","","4"
"","","","","","","","","","","","html-keyboard-response","91","494215","0.0-91.0","null","null","","","","","","","","","","","","","","feedback","Sat Oct 18 2025 12:14:37 GMT-0400 (Eastern Daylight Time)","27023","1","3","","","","","","","","","",""
"","","","","","","","","","","","preload","92","494217","0.0-92.0","","","","","true","","","","","","","","","","","preload","","","1","4","false","[]","[]","[]","","","","","",""
"","","","","","","","","","","","canvas-keyboard-response","93","494520","0.0-93.0","null","null","","","","","","","","","","","","","","fixation","","","1","4","","","","","","","","","",""
"","","","","","","","","","","","canvas-keyboard-response","94","494823","0.0-94.0","null","null","","","","","","","","","","","","","","stimulus","","","1","4","","","","","","","","","",""
"","","","","","","","","","","","canvas-button-response","95","500964","0.0-95.0","6137","bed","","","","","","","","","","","","","","perceptual","","","1","4","","","","","94","knife","6","","0",""
"","","","","","","","","","","","canvas-button-response","96","502863","0.0-96.0","1897","3","","","","","","","","","","","","","","confidence","","","1","4","","","","","","","","","","4"
"","","","","","","","","","","","html-keyboard-response","97","503866","0.0-97.0","null","null","","","","","","","","","","","","","","feedback","Sat Oct 18 2025 12:14:47 GMT-0400 (Eastern Daylight Time)","27023","1","4","","","","","","","","","",""
"","","","","","","","","","","","preload","98","503868","0.0-98.0","","","","","true","","","","","","","","","","","preload","","","1","5","false","[]","[]","[]","","","","","",""
"","","","","","","","","","","","canvas-keyboard-response","99","504171","0.0-99.0","null","null","","","","","","","","","","","","","","fixation","","","1","5","","","","","","","","","",""
"","","","","","","","","","","","canvas-keyboard-response","100","504473","0.0-100.0","null","null","","","","","","","","","","","","","","stimulus","","","1","5","","","","","","","","","",""
"","","","","","","","","","","","canvas-button-response","101","505328","0.0-101.0","853","elephant","","","","","","","","","","","","","","perceptual","","","1","5","","","","","84","elephant","6","","1",""
"","","","","","","","","","","","canvas-button-response","102","505895","0.0-102.0","565","9","","","","","","","","","","","","","","confidence","","","1","5","","","","","","","","","","5"
"","","","","","","","","","","","html-keyboard-response","103","506897","0.0-103.0","null","null","","","","","","","","","","","","","","feedback","Sat Oct 18 2025 12:14:50 GMT-0400 (Eastern Daylight Time)","27023","1","5","","","","","","","","","",""
"","","","","","","","","","","","preload","104","506899","0.0-104.0","","","","","true","","","","","","","","","","","preload","","","1","6","false","[]","[]","[]","","","","","",""
"","","","","","","","","","","","canvas-keyboard-response","105","507201","0.0-105.0","null","null","","","","","","","","","","","","","","fixation","","","1","6","","","","","","","","","",""
"","","","","","","","","","","","canvas-keyboard-response","106","507504","0.0-106.0","null","null","","","","","","","","","","","","","","stimulus","","","1","6","","","","","","","","","",""
"","","","","","","","","","","","canvas-button-response","107","508329","0.0-107.0","823","cat","","","","","","","","","","","","","","perceptual","","","1","6","","","","","74","cat","6","","1",""
"","","","","","","","","","","","canvas-button-response","108","509181","0.0-108.0","849","9","","","","","","","","","","","","","","confidence","","","1","6","","","","","","","","","","6"
"","","","","","","","","","","","html-keyboard-response","109","510185","0.0-109.0","null","null","","","","","","","","","","","","","","feedback","Sat Oct 18 2025 12:14:53 GMT-0400 (Eastern Daylight Time)","27023","1","6","","","","","","","","","",""
"","","","","","","","","","","","preload","110","510186","0.0-110.0","","","","","true","","","","","","","","","","","preload","","","1","7","false","[]","[]","[]","","","","","",""
"","","","","","","","","","","","canvas-keyboard-response","111","510489","0.0-111.0","null","null","","","","","","","","","","","","","","fixation","","","1","7","","","","","","","","","",""
"","","","","","","","","","","","canvas-keyboard-response","112","510793","0.0-112.0","null","null","","","","","","","","","","","","","","stimulus","","","1","7","","","","","","","","","",""
"","","","","","","","","","","","canvas-button-response","113","512496","0.0-113.0","1701","bed","","","","","","","","","","","","","","perceptual","","","1","7","","","","","37","bed","10","","1",""
"","","","","","","","","","","","canvas-button-response","114","513662","0.0-114.0","1163","4","","","","","","","","","","","","","","confidence","","","1","7","","","","","","","","","","7"
"","","","","","","","","","","","html-keyboard-response","115","514663","0.0-115.0","null","null","","","","","","","","","","","","","","feedback","Sat Oct 18 2025 12:14:58 GMT-0400 (Eastern Daylight Time)","27023","1","7","","","","","","","","","",""
"","","","","","","","","","","","preload","116","514665","0.0-116.0","","","","","true","","","","","","","","","","","preload","","","1","8","false","[]","[]","[]","","","","","",""
"","","","","","","","","","","","canvas-keyboard-response","117","514968","0.0-117.0","null","null","","","","","","","","","","","","","","fixation","","","1","8","","","","","","","","","",""
"","","","","","","","","","","","canvas-keyboard-response","118","515272","0.0-118.0","null","null","","","","","","","","","","","","","","stimulus","","","1","8","","","","","","","","","",""
"","","","","","","","","","","","canvas-button-response","119","516378","0.0-119.0","1104","flower","","","","","","","","","","","","","","perceptual","","","1","8","","","","","57","flower","10","","1",""
"","","","","","","","","","","","canvas-button-response","120","517461","0.0-120.0","1082","7","","","","","","","","","","","","","","confidence","","","1","8","","","","","","","","","","8"
"","","","","","","","","","","","html-keyboard-response","121","518463","0.0-121.0","null","null","","","","","","","","","","","","","","feedback","Sat Oct 18 2025 12:15:01 GMT-0400 (Eastern Daylight Time)","27023","1","8","","","","","","","","","",""
"","","","","","","","","","","","preload","122","518465","0.0-122.0","","","","","true","","","","","","","","","","","preload","","","1","9","false","[]","[]","[]","","","","","",""
"","","","","","","","","","","","canvas-keyboard-response","123","518767","0.0-123.0","null","null","","","","","","","","","","","","","","fixation","","","1","9","","","","","","","","","",""
"","","","","","","","","","","","canvas-keyboard-response","124","519070","0.0-124.0","null","null","","","","","","","","","","","","","","stimulus","","","1","9","","","","","","","","","",""
"","","","","","","","","","","","canvas-button-response","125","522064","0.0-125.0","2991","car","","","","","","","","","","","","","","perceptual","","","1","9","","","","","14","car","6","","1",""
"","","","","","","","","","","","canvas-button-response","126","523229","0.0-126.0","1163","6","","","","","","","","","","","","","","confidence","","","1","9","","","","","","","","","","9"
"","","","","","","","","","","","html-keyboard-response","127","524232","0.0-127.0","null","null","","","","","","","","","","","","","","feedback","Sat Oct 18 2025 12:15:07 GMT-0400 (Eastern Daylight Time)","27023","1","9","","","","","","","","","",""
"","","","","","","","","","","","preload","128","524233","0.0-128.0","","","","","true","","","","","","","","","","","preload","","","1","10","false","[]","[]","[]","","","","","",""
"","","","","","","","","","","","canvas-keyboard-response","129","524536","0.0-129.0","null","null","","","","","","","","","","","","","","fixation","","","1","10","","","","","","","","","",""
"","","","","","","","","","","","canvas-keyboard-response","130","524839","0.0-130.0","null","null","","","","","","","","","","","","","","stimulus","","","1","10","","","","","","","","","",""
"","","","","","","","","","","","canvas-button-response","131","526978","0.0-131.0","2136","bridge","","","","","","","","","","","","","","perceptual","","","1","10","","","","","44","bridge","6","","1",""
"","","","","","","","","","","","canvas-button-response","132","528146","0.0-132.0","1166","5","","","","","","","","","","","","","","confidence","","","1","10","","","","","","","","","","10"
"","","","","","","","","","","","html-keyboard-response","133","529149","0.0-133.0","null","null","","","","","","","","","","","","","","feedback","Sat Oct 18 2025 12:15:12 GMT-0400 (Eastern Daylight Time)","27023","1","10","","","","","","","","","",""
"","","","","","","","","","","","preload","134","529150","0.0-134.0","","","","","true","","","","","","","","","","","preload","","","1","11","false","[]","[]","[]","","","","","",""
"","","","","","","","","","","","canvas-keyboard-response","135","529453","0.0-135.0","null","null","","","","","","","","","","","","","","fixation","","","1","11","","","","","","","","","",""
"","","","","","","","","","","","canvas-keyboard-response","136","529756","0.0-136.0","null","null","","","","","","","","","","","","","","stimulus","","","1","11","","","","","","","","","",""
"","","","","","","","","","","","canvas-button-response","137","534064","0.0-137.0","4305","flower","","","","","","","","","","","","","","perceptual","","","1","11","","","","","54","flower","6","","1",""
"","","","","","","","","","","","canvas-button-response","138","537513","0.0-138.0","3446","0","","","","","","","","","","","","","","confidence","","","1","11","","","","","","","","","","11"
"","","","","","","","","","","","html-keyboard-response","139","538517","0.0-139.0","null","null","","","","","","","","","","","","","","feedback","Sat Oct 18 2025 12:15:21 GMT-0400 (Eastern Daylight Time)","27023","1","11","","","","","","","","","",""
"","","","","","","","","","","","preload","140","538518","0.0-140.0","","","","","true","","","","","","","","","","","preload","","","1","12","false","[]","[]","[]","","","","","",""
"","","","","","","","","","","","canvas-keyboard-response","141","538820","0.0-141.0","null","null","","","","","","","","","","","","","","fixation","","","1","12","","","","","","","","","",""
"","","","","","","","","","","","canvas-keyboard-response","142","539123","0.0-142.0","null","null","","","","","","","","","","","","","","stimulus","","","1","12","","","","","","","","","",""
"","","","","","","","","","","","canvas-button-response","143","542680","0.0-143.0","3553","phone","","","","","","","","","","","","","","perceptual","","","1","12","","","","","27","phone","10","","1",""
"","","","","","","","","","","","canvas-button-response","144","544246","0.0-144.0","1564","3","","","","","","","","","","","","","","confidence","","","1","12","","","","","","","","","","12"
"","","","","","","","","","","","html-keyboard-response","145","545249","0.0-145.0","null","null","","","","","","","","","","","","","","feedback","Sat Oct 18 2025 12:15:28 GMT-0400 (Eastern Daylight Time)","27023","1","12","","","","","","","","","",""
"","","","","","","","","","","","preload","146","545250","0.0-146.0","","","","","true","","","","","","","","","","","preload","","","1","13","false","[]","[]","[]","","","","","",""
"","","","","","","","","","","","canvas-keyboard-response","147","545553","0.0-147.0","null","null","","","","","","","","","","","","","","fixation","","","1","13","","","","","","","","","",""
"","","","","","","","","","","","canvas-keyboard-response","148","545857","0.0-148.0","null","null","","","","","","","","","","","","","","stimulus","","","1","13","","","","","","","","","",""
"","","","","","","","","","","","canvas-button-response","149","547079","0.0-149.0","1219","phone","","","","","","","","","","","","","","perceptual","","","1","13","","","","","24","phone","6","","1",""
"","","","","","","","","","","","canvas-button-response","150","548029","0.0-150.0","948","2","","","","","","","","","","","","","","confidence","","","1","13","","","","","","","","","","13"
"","","","","","","","","","","","html-keyboard-response","151","549032","0.0-151.0","null","null","","","","","","","","","","","","","","feedback","Sat Oct 18 2025 12:15:32 GMT-0400 (Eastern Daylight Time)","27023","1","13","","","","","","","","","",""
"","","","","","","","","","","","preload","152","549034","0.0-152.0","","","","","true","","","","","","","","","","","preload","","","1","14","false","[]","[]","[]","","","","","",""
"","","","","","","","","","","","canvas-keyboard-response","153","549336","0.0-153.0","null","null","","","","","","","","","","","","","","fixation","","","1","14","","","","","","","","","",""
"","","","","","","","","","","","canvas-keyboard-response","154","549640","0.0-154.0","null","null","","","","","","","","","","","","","","stimulus","","","1","14","","","","","","","","","",""
"","","","","","","","","","","","canvas-button-response","155","552980","0.0-155.0","3337","flower","","","","","","","","","","","","","","perceptual","","","1","14","","","","","87","elephant","10","","0",""
"","","","","","","","","","","","canvas-button-response","156","553814","0.0-156.0","831","3","","","","","","","","","","","","","","confidence","","","1","14","","","","","","","","","","13"
"","","","","","","","","","","","html-keyboard-response","157","554817","0.0-157.0","null","null","","","","","","","","","","","","","","feedback","Sat Oct 18 2025 12:15:38 GMT-0400 (Eastern Daylight Time)","27023","1","14","","","","","","","","","",""
"","","","","","","","","","","","preload","158","554818","0.0-158.0","","","","","true","","","","","","","","","","","preload","","","1","15","false","[]","[]","[]","","","","","",""
"","","","","","","","","","","","canvas-keyboard-response","159","555122","0.0-159.0","null","null","","","","","","","","","","","","","","fixation","","","1","15","","","","","","","","","",""
"","","","","","","","","","","","canvas-keyboard-response","160","555425","0.0-160.0","null","null","","","","","","","","","","","","","","stimulus","","","1","15","","","","","","","","","",""
"","","","","","","","","","","","canvas-button-response","161","556513","0.0-161.0","1085","house","","","","","","","","","","","","","","perceptual","","","1","15","","","","","7","house","10","","1",""
"","","","","","","","","","","","canvas-button-response","162","557380","0.0-162.0","864","7","","","","","","","","","","","","","","confidence","","","1","15","","","","","","","","","","14"
"","","","","","","","","","","","html-keyboard-response","163","558383","0.0-163.0","null","null","","","","","","","","","","","","","","feedback","Sat Oct 18 2025 12:15:41 GMT-0400 (Eastern Daylight Time)","27023","1","15","","","","","","","","","",""
"","","","","","","","","","","","preload","164","558384","0.0-164.0","","","","","true","","","","","","","","","","","preload","","","1","16","false","[]","[]","[]","","","","","",""
"","","","","","","","","","","","canvas-keyboard-response","165","558687","0.0-165.0","null","null","","","","","","","","","","","","","","fixation","","","1","16","","","","","","","","","",""
"","","","","","","","","","","","canvas-keyboard-response","166","558990","0.0-166.0","null","null","","","","","","","","","","","","","","stimulus","","","1","16","","","","","","","","","",""
"","","","","","","","","","","","canvas-button-response","167","560980","0.0-167.0","1987","car","","","","","","","","","","","","","","perceptual","","","1","16","","","","","17","car","10","","1",""
"","","","","","","","","","","","canvas-button-response","168","561980","0.0-168.0","997","6","","","","","","","","","","","","","","confidence","","","1","16","","","","","","","","","","15"
"","","","","","","","","","","","html-keyboard-response","169","562983","0.0-169.0","null","null","","","","","","","","","","","","","","feedback","Sat Oct 18 2025 12:15:46 GMT-0400 (Eastern Daylight Time)","27023","1","16","","","","","","","","","",""
"","","","","","","","","","","","preload","170","562984","0.0-170.0","","","","","true","","","","","","","","","","","preload","","","1","17","false","[]","[]","[]","","","","","",""
"","","","","","","","","","","","canvas-keyboard-response","171","563287","0.0-171.0","null","null","","","","","","","","","","","","","","fixation","","","1","17","","","","","","","","","",""
"","","","","","","","","","","","canvas-keyboard-response","172","563590","0.0-172.0","null","null","","","","","","","","","","","","","","stimulus","","","1","17","","","","","","","","","",""
"","","","","","","","","","","","canvas-button-response","173","564697","0.0-173.0","1104","train","","","","","","","","","","","","","","perceptual","","","1","17","","","","","67","train","10","","1",""
"","","","","","","","","","","","canvas-button-response","174","565547","0.0-174.0","847","8","","","","","","","","","","","","","","confidence","","","1","17","","","","","","","","","","16"
"","","","","","","","","","","","html-keyboard-response","175","566550","0.0-175.0","null","null","","","","","","","","","","","","","","feedback","Sat Oct 18 2025 12:15:49 GMT-0400 (Eastern Daylight Time)","27023","1","17","","","","","","","","","",""
"","","","","","","","","","","","preload","176","566552","0.0-176.0","","","","","true","","","","","","","","","","","preload","","","1","18","false","[]","[]","[]","","","","","",""
"","","","","","","","","","","","canvas-keyboard-response","177","566855","0.0-177.0","null","null","","","","","","","","","","","","","","fixation","","","1","18","","","","","","","","","",""
"","","","","","","","","","","","canvas-keyboard-response","178","567158","0.0-178.0","null","null","","","","","","","","","","","","","","stimulus","","","1","18","","","","","","","","","",""
"","","","","","","","","","","","canvas-button-response","179","568196","0.0-179.0","1036","bed","","","","","","","","","","","","","","perceptual","","","1","18","","","","","34","bed","6","","1",""
"","","","","","","","","","","","canvas-button-response","180","568763","0.0-180.0","564","9","","","","","","","","","","","","","","confidence","","","1","18","","","","","","","","","","17"
"","","","","","","","","","","","html-keyboard-response","181","569766","0.0-181.0","null","null","","","","","","","","","","","","","","feedback","Sat Oct 18 2025 12:15:53 GMT-0400 (Eastern Daylight Time)","27023","1","18","","","","","","","","","",""
"","","","","","","","","","","","preload","182","569768","0.0-182.0","","","","","true","","","","","","","","","","","preload","","","1","19","false","[]","[]","[]","","","","","",""
"","","","","","","","","","","","canvas-keyboard-response","183","570071","0.0-183.0","null","null","","","","","","","","","","","","","","fixation","","","1","19","","","","","","","","","",""
"","","","","","","","","","","","canvas-keyboard-response","184","570374","0.0-184.0","null","null","","","","","","","","","","","","","","stimulus","","","1","19","","","","","","","","","",""
"","","","","","","","","","","","canvas-button-response","185","575498","0.0-185.0","5121","knife","","","","","","","","","","","","","","perceptual","","","1","19","","","","","47","bridge","10","","0",""
"","","","","","","","","","","","canvas-button-response","186","577330","0.0-186.0","1830","1","","","","","","","","","","","","","","confidence","","","1","19","","","","","","","","","","17"
"","","","","","","","","","","","html-keyboard-response","187","578333","0.0-187.0","null","null","","","","","","","","","","","","","","feedback","Sat Oct 18 2025 12:16:01 GMT-0400 (Eastern Daylight Time)","27023","1","19","","","","","","","","","",""
"","","","","","","","","","","","html-button-response","188","590130","0.0-188.0","11794","0","","","","","","","","","","","","","","start experiment","Sat Oct 18 2025 12:16:02 GMT-0400 (Eastern Daylight Time)","27023","1","19","","","","","","","","","",""
"","","","","","","","","","","","preload","189","590131","0.0-189.0","","","","","true","","","","","","","","","","","preload","","","2","0","false","[]","[]","[]","","","","","",""
"","","","","","","","","","","","canvas-keyboard-response","190","590435","0.0-190.0","null","null","","","","","","","","","","","","","","fixation","","","2","0","","","","","","","","","",""
"","","","","","","","","","","","canvas-keyboard-response","191","590738","0.0-191.0","null","null","","","","","","","","","","","","","","stimulus","","","2","0","","","","","","","","","",""
"","","","","","","","","","","","canvas-button-response","192","591728","0.0-192.0","988","train","","","","","","","","","","","","","","perceptual","","","2","0","","","","","264","train","10","0","1",""
"","","","","","","","","","","","canvas-button-response","193","592630","0.0-193.0","899","7","","","","","","","","","","","","","","confidence","","","2","0","","","","","","","","","","1"
"","","","","","","","","","","","preload","194","592631","0.0-194.0","","","","","true","","","","","","","","","","","preload","","","2","1","false","[]","[]","[]","","","","","",""
"","","","","","","","","","","","canvas-keyboard-response","195","592934","0.0-195.0","null","null","","","","","","","","","","","","","","fixation","","","2","1","","","","","","","","","",""
"","","","","","","","","","","","canvas-keyboard-response","196","593238","0.0-196.0","null","null","","","","","","","","","","","","","","stimulus","","","2","1","","","","","","","","","",""
"","","","","","","","","","","","canvas-button-response","197","594831","0.0-197.0","1590","cat","","","","","","","","","","","","","","perceptual","","","2","1","","","","","315","cat","10","0","1",""
"","","","","","","","","","","","canvas-button-response","198","596813","0.0-198.0","1979","2","","","","","","","","","","","","","","confidence","","","2","1","","","","","","","","","","2"
"","","","","","","","","","","","preload","199","596815","0.0-199.0","","","","","true","","","","","","","","","","","preload","","","2","2","false","[]","[]","[]","","","","","",""
"","","","","","","","","","","","canvas-keyboard-response","200","597118","0.0-200.0","null","null","","","","","","","","","","","","","","fixation","","","2","2","","","","","","","","","",""
"","","","","","","","","","","","canvas-keyboard-response","201","597420","0.0-201.0","null","null","","","","","","","","","","","","","","stimulus","","","2","2","","","","","","","","","",""
"","","","","","","","","","","","canvas-button-response","202","598295","0.0-202.0","872","bed","","","","","","","","","","","","","","perceptual","","","2","2","","","","","130","bed","6","0","1",""
"","","","","","","","","","","","canvas-button-response","203","599296","0.0-203.0","999","6","","","","","","","","","","","","","","confidence","","","2","2","","","","","","","","","","3"
"","","","","","","","","","","","preload","204","599297","0.0-204.0","","","","","true","","","","","","","","","","","preload","","","2","3","false","[]","[]","[]","","","","","",""
"","","","","","","","","","","","canvas-keyboard-response","205","599600","0.0-205.0","null","null","","","","","","","","","","","","","","fixation","","","2","3","","","","","","","","","",""
"","","","","","","","","","","","canvas-keyboard-response","206","599902","0.0-206.0","null","null","","","","","","","","","","","","","","stimulus","","","2","3","","","","","","","","","",""
"","","","","","","","","","","","canvas-button-response","207","600812","0.0-207.0","907","house","","","","","","","","","","","","","","perceptual","","","2","3","","","","","14","house","6","0","1",""
"","","","","","","","","","","","canvas-button-response","208","601747","0.0-208.0","933","6","","","","","","","","","","","","","","confidence","","","2","3","","","","","","","","","","4"
"","","","","","","","","","","","preload","209","601748","0.0-209.0","","","","","true","","","","","","","","","","","preload","","","2","4","false","[]","[]","[]","","","","","",""
"","","","","","","","","","","","canvas-keyboard-response","210","602051","0.0-210.0","null","null","","","","","","","","","","","","","","fixation","","","2","4","","","","","","","","","",""
"","","","","","","","","","","","canvas-keyboard-response","211","602354","0.0-211.0","null","null","","","","","","","","","","","","","","stimulus","","","2","4","","","","","","","","","",""
"","","","","","","","","","","","canvas-button-response","212","603263","0.0-212.0","906","car","","","","","","","","","","","","","","perceptual","","","2","4","","","","","44","car","6","0","1",""
"","","","","","","","","","","","canvas-button-response","213","604047","0.0-213.0","781","8","","","","","","","","","","","","","","confidence","","","2","4","","","","","","","","","","5"
"","","","","","","","","","","","preload","214","604048","0.0-214.0","","","","","true","","","","","","","","","","","preload","","","2","5","false","[]","[]","[]","","","","","",""
"","","","","","","","","","","","canvas-keyboard-response","215","604349","0.0-215.0","null","null","","","","","","","","","","","","","","fixation","","","2","5","","","","","","","","","",""
"","","","","","","","","","","","canvas-keyboard-response","216","604652","0.0-216.0","null","null","","","","","","","","","","","","","","stimulus","","","2","5","","","","","","","","","",""
"","","","","","","","","","","","canvas-button-response","217","605629","0.0-217.0","974","bed","","","","","","","","","","","","","","perceptual","","","2","5","","","","","121","bed","6","0","1",""
"","","","","","","","","","","","canvas-button-response","218","606480","0.0-218.0","849","8","","","","","","","","","","","","","","confidence","","","2","5","","","","","","","","","","6"
"","","","","","","","","","","","preload","219","606481","0.0-219.0","","","","","true","","","","","","","","","","","preload","","","2","6","false","[]","[]","[]","","","","","",""
"","","","","","","","","","","","canvas-keyboard-response","220","606784","0.0-220.0","null","null","","","","","","","","","","","","","","fixation","","","2","6","","","","","","","","","",""
"","","","","","","","","","","","canvas-keyboard-response","221","607086","0.0-221.0","null","null","","","","","","","","","","","","","","stimulus","","","2","6","","","","","","","","","",""
"","","","","","","","","","","","canvas-button-response","222","609097","0.0-222.0","2009","house","","","","","","","","","","","","","","perceptual","","","2","6","","","","","199","bridge","10","0","0",""
"","","","","","","","","","","","canvas-button-response","223","610248","0.0-223.0","1148","8","","","","","","","","","","","","","","confidence","","","2","6","","","","","","","","","","6"
"","","","","","","","","","","","preload","224","610249","0.0-224.0","","","","","true","","","","","","","","","","","preload","","","2","7","false","[]","[]","[]","","","","","",""
"","","","","","","","","","","","canvas-keyboard-response","225","610552","0.0-225.0","null","null","","","","","","","","","","","","","","fixation","","","2","7","","","","","","","","","",""
"","","","","","","","","","","","canvas-keyboard-response","226","610855","0.0-226.0","null","null","","","","","","","","","","","","","","stimulus","","","2","7","","","","","","","","","",""
"","","","","","","","","","","","canvas-button-response","227","611713","0.0-227.0","856","flower","","","","","","","","","","","","","","perceptual","","","2","7","","","","","234","flower","10","0","1",""
"","","","","","","","","","","","canvas-button-response","228","612246","0.0-228.0","530","9","","","","","","","","","","","","","","confidence","","","2","7","","","","","","","","","","7"
"","","","","","","","","","","","preload","229","612247","0.0-229.0","","","","","true","","","","","","","","","","","preload","","","2","8","false","[]","[]","[]","","","","","",""
"","","","","","","","","","","","canvas-keyboard-response","230","612549","0.0-230.0","null","null","","","","","","","","","","","","","","fixation","","","2","8","","","","","","","","","",""
"","","","","","","","","","","","canvas-keyboard-response","231","612851","0.0-231.0","null","null","","","","","","","","","","","","","","stimulus","","","2","8","","","","","","","","","",""
"","","","","","","","","","","","canvas-button-response","232","615280","0.0-232.0","2426","phone","","","","","","","","","","","","","","perceptual","","","2","8","","","","","218","flower","6","0","0",""
"","","","","","","","","","","","canvas-button-response","233","616263","0.0-233.0","981","7","","","","","","","","","","","","","","confidence","","","2","8","","","","","","","","","","7"
"","","","","","","","","","","","preload","234","616265","0.0-234.0","","","","","true","","","","","","","","","","","preload","","","2","9","false","[]","[]","[]","","","","","",""
"","","","","","","","","","","","canvas-keyboard-response","235","616567","0.0-235.0","null","null","","","","","","","","","","","","","","fixation","","","2","9","","","","","","","","","",""
"","","","","","","","","","","","canvas-keyboard-response","236","616869","0.0-236.0","null","null","","","","","","","","","","","","","","stimulus","","","2","9","","","","","","","","","",""
"","","","","","","","","","","","canvas-button-response","237","620132","0.0-237.0","3260","house","","","","","","","","","","","","","","perceptual","","","2","9","","","","","1","house","6","0","1",""
"","","","","","","","","","","","canvas-button-response","238","621848","0.0-238.0","1713","4","","","","","","","","","","","","","","confidence","","","2","9","","","","","","","","","","8"
"","","","","","","","","","","","preload","239","621850","0.0-239.0","","","","","true","","","","","","","","","","","preload","","","2","10","false","[]","[]","[]","","","","","",""
"","","","","","","","","","","","canvas-keyboard-response","240","622151","0.0-240.0","null","null","","","","","","","","","","","","","","fixation","","","2","10","","","","","","","","","",""
"","","","","","","","","","","","canvas-keyboard-response","241","622454","0.0-241.0","null","null","","","","","","","","","","","","","","stimulus","","","2","10","","","","","","","","","",""
"","","","","","","","","","","","canvas-button-response","242","624614","0.0-242.0","2158","car","","","","","","","","","","","","","","perceptual","","","2","10","","","","","38","house","10","0","0",""
"","","","","","","","","","","","canvas-button-response","243","626248","0.0-243.0","1631","3","","","","","","","","","","","","","","confidence","","","2","10","","","","","","","","","","8"
"","","","","","","","","","","","preload","244","626249","0.0-244.0","","","","","true","","","","","","","","","","","preload","","","2","11","false","[]","[]","[]","","","","","",""
"","","","","","","","","","","","canvas-keyboard-response","245","626552","0.0-245.0","null","null","","","","","","","","","","","","","","fixation","","","2","11","","","","","","","","","",""
"","","","","","","","","","","","canvas-keyboard-response","246","626856","0.0-246.0","null","null","","","","","","","","","","","","","","stimulus","","","2","11","","","","","","","","","",""
"","","","","","","","","","","","canvas-button-response","247","628898","0.0-247.0","2039","flower","","","","","","","","","","","","","","perceptual","","","2","11","","","","","214","flower","6","0","1",""
"","","","","","","","","","","","canvas-button-response","248","629962","0.0-248.0","1061","5","","","","","","","","","","","","","","confidence","","","2","11","","","","","","","","","","9"
"","","","","","","","","","","","preload","249","629963","0.0-249.0","","","","","true","","","","","","","","","","","preload","","","2","12","false","[]","[]","[]","","","","","",""
"","","","","","","","","","","","canvas-keyboard-response","250","630265","0.0-250.0","null","null","","","","","","","","","","","","","","fixation","","","2","12","","","","","","","","","",""
"","","","","","","","","","","","canvas-keyboard-response","251","630568","0.0-251.0","null","null","","","","","","","","","","","","","","stimulus","","","2","12","","","","","","","","","",""
"","","","","","","","","","","","canvas-button-response","252","631531","0.0-252.0","959","car","","","","","","","","","","","","","","perceptual","","","2","12","","","","","60","car","10","0","1",""
"","","","","","","","","","","","canvas-button-response","253","632195","0.0-253.0","662","7","","","","","","","","","","","","","","confidence","","","2","12","","","","","","","","","","10"
"","","","","","","","","","","","preload","254","632196","0.0-254.0","","","","","true","","","","","","","","","","","preload","","","2","13","false","[]","[]","[]","","","","","",""
"","","","","","","","","","","","canvas-keyboard-response","255","632499","0.0-255.0","null","null","","","","","","","","","","","","","","fixation","","","2","13","","","","","","","","","",""
"","","","","","","","","","","","canvas-keyboard-response","256","632802","0.0-256.0","null","null","","","","","","","","","","","","","","stimulus","","","2","13","","","","","","","","","",""
"","","","","","","","","","","","canvas-button-response","257","634164","0.0-257.0","1359","house","","","","","","","","","","","","","","perceptual","","","2","13","","","","","263","train","10","0","0",""
"","","","","","","","","","","","canvas-button-response","258","634946","0.0-258.0","779","6","","","","","","","","","","","","","","confidence","","","2","13","","","","","","","","","","10"
"","","","","","","","","","","","preload","259","634947","0.0-259.0","","","","","true","","","","","","","","","","","preload","","","2","14","false","[]","[]","[]","","","","","",""
"","","","","","","","","","","","canvas-keyboard-response","260","635249","0.0-260.0","null","null","","","","","","","","","","","","","","fixation","","","2","14","","","","","","","","","",""
"","","","","","","","","","","","canvas-keyboard-response","261","635551","0.0-261.0","null","null","","","","","","","","","","","","","","stimulus","","","2","14","","","","","","","","","",""
"","","","","","","","","","","","canvas-button-response","262","641346","0.0-262.0","5792","train","","","","","","","","","","","","","","perceptual","","","2","14","","","","","245","train","6","0","1",""
"","","","","","","","","","","","canvas-button-response","263","642113","0.0-263.0","766","3","","","","","","","","","","","","","","confidence","","","2","14","","","","","","","","","","11"
"","","","","","","","","","","","preload","264","642114","0.0-264.0","","","","","true","","","","","","","","","","","preload","","","2","15","false","[]","[]","[]","","","","","",""
"","","","","","","","","","","","canvas-keyboard-response","265","642417","0.0-265.0","null","null","","","","","","","","","","","","","","fixation","","","2","15","","","","","","","","","",""
"","","","","","","","","","","","canvas-keyboard-response","266","642720","0.0-266.0","null","null","","","","","","","","","","","","","","stimulus","","","2","15","","","","","","","","","",""
"","","","","","","","","","","","canvas-button-response","267","647264","0.0-267.0","4542","bridge","","","","","","","","","","","","","","perceptual","","","2","15","","","","","375","knife","6","0","0",""
"","","","","","","","","","","","canvas-button-response","268","648113","0.0-268.0","847","4","","","","","","","","","","","","","","confidence","","","2","15","","","","","","","","","","11"
"","","","","","","","","","","","preload","269","648115","0.0-269.0","","","","","true","","","","","","","","","","","preload","","","2","16","false","[]","[]","[]","","","","","",""
"","","","","","","","","","","","canvas-keyboard-response","270","648417","0.0-270.0","null","null","","","","","","","","","","","","","","fixation","","","2","16","","","","","","","","","",""
"","","","","","","","","","","","canvas-keyboard-response","271","648721","0.0-271.0","null","null","","","","","","","","","","","","","","stimulus","","","2","16","","","","","","","","","",""
"","","","","","","","","","","","canvas-button-response","272","650297","0.0-272.0","1574","car","","","","","","","","","","","","","","perceptual","","","2","16","","","","","229","flower","10","0","0",""
"","","","","","","","","","","","canvas-button-response","273","652130","0.0-273.0","1830","2","","","","","","","","","","","","","","confidence","","","2","16","","","","","","","","","","11"
"","","","","","","","","","","","preload","274","652132","0.0-274.0","","","","","true","","","","","","","","","","","preload","","","2","17","false","[]","[]","[]","","","","","",""
"","","","","","","","","","","","canvas-keyboard-response","275","652434","0.0-275.0","null","null","","","","","","","","","","","","","","fixation","","","2","17","","","","","","","","","",""
"","","","","","","","","","","","canvas-keyboard-response","276","652738","0.0-276.0","null","null","","","","","","","","","","","","","","stimulus","","","2","17","","","","","","","","","",""
"","","","","","","","","","","","canvas-button-response","277","653830","0.0-277.0","1090","bridge","","","","","","","","","","","","","","perceptual","","","2","17","","","","","182","bridge","10","0","1",""
"","","","","","","","","","","","canvas-button-response","278","655164","0.0-278.0","1330","3","","","","","","","","","","","","","","confidence","","","2","17","","","","","","","","","","12"
"","","","","","","","","","","","preload","279","655165","0.0-279.0","","","","","true","","","","","","","","","","","preload","","","2","18","false","[]","[]","[]","","","","","",""
"","","","","","","","","","","","canvas-keyboard-response","280","655468","0.0-280.0","null","null","","","","","","","","","","","","","","fixation","","","2","18","","","","","","","","","",""
"","","","","","","","","","","","canvas-keyboard-response","281","655770","0.0-281.0","null","null","","","","","","","","","","","","","","stimulus","","","2","18","","","","","","","","","",""
"","","","","","","","","","","","canvas-button-response","282","657513","0.0-282.0","1740","knife","","","","","","","","","","","","","","perceptual","","","2","18","","","","","150","bed","10","0","0",""
"","","","","","","","","","","","canvas-button-response","283","658664","0.0-283.0","1148","3","","","","","","","","","","","","","","confidence","","","2","18","","","","","","","","","","12"
"","","","","","","","","","","","preload","284","658665","0.0-284.0","","","","","true","","","","","","","","","","","preload","","","2","19","false","[]","[]","[]","","","","","",""
"","","","","","","","","","","","canvas-keyboard-response","285","658967","0.0-285.0","null","null","","","","","","","","","","","","","","fixation","","","2","19","","","","","","","","","",""
"","","","","","","","","","","","canvas-keyboard-response","286","659270","0.0-286.0","null","null","","","","","","","","","","","","","","stimulus","","","2","19","","","","","","","","","",""
"","","","","","","","","","","","canvas-button-response","287","660396","0.0-287.0","1123","car","","","","","","","","","","","","","","perceptual","","","2","19","","","","","55","car","6","0","1",""
"","","","","","","","","","","","canvas-button-response","288","661331","0.0-288.0","933","9","","","","","","","","","","","","","","confidence","","","2","19","","","","","","","","","","13"
"","","","","","","","","","","","preload","289","661332","0.0-289.0","","","","","true","","","","","","","","","","","preload","","","2","20","false","[]","[]","[]","","","","","",""
"","","","","","","","","","","","canvas-keyboard-response","290","661635","0.0-290.0","null","null","","","","","","","","","","","","","","fixation","","","2","20","","","","","","","","","",""
"","","","","","","","","","","","canvas-keyboard-response","291","661937","0.0-291.0","null","null","","","","","","","","","","","","","","stimulus","","","2","20","","","","","","","","","",""
"","","","","","","","","","","","canvas-button-response","292","662831","0.0-292.0","890","cat","","","","","","","","","","","","","","perceptual","","","2","20","","","","","286","cat","6","0","1",""
"","","","","","","","","","","","canvas-button-response","293","663596","0.0-293.0","763","8","","","","","","","","","","","","","","confidence","","","2","20","","","","","","","","","","14"
"","","","","","","","","","","","preload","294","663597","0.0-294.0","","","","","true","","","","","","","","","","","preload","","","2","21","false","[]","[]","[]","","","","","",""
"","","","","","","","","","","","canvas-keyboard-response","295","663898","0.0-295.0","null","null","","","","","","","","","","","","","","fixation","","","2","21","","","","","","","","","",""
"","","","","","","","","","","","canvas-keyboard-response","296","664201","0.0-296.0","null","null","","","","","","","","","","","","","","stimulus","","","2","21","","","","","","","","","",""
"","","","","","","","","","","","canvas-button-response","297","664997","0.0-297.0","793","knife","","","","","","","","","","","","","","perceptual","","","2","21","","","","","376","knife","6","0","1",""
"","","","","","","","","","","","canvas-button-response","298","666181","0.0-298.0","1182","7","","","","","","","","","","","","","","confidence","","","2","21","","","","","","","","","","15"
"","","","","","","","","","","","preload","299","666182","0.0-299.0","","","","","true","","","","","","","","","","","preload","","","2","22","false","[]","[]","[]","","","","","",""
"","","","","","","","","","","","canvas-keyboard-response","300","666485","0.0-300.0","null","null","","","","","","","","","","","","","","fixation","","","2","22","","","","","","","","","",""
"","","","","","","","","","","","canvas-keyboard-response","301","666788","0.0-301.0","null","null","","","","","","","","","","","","","","stimulus","","","2","22","","","","","","","","","",""
"","","","","","","","","","","","canvas-button-response","302","670114","0.0-302.0","3323","bed","","","","","","","","","","","","","","perceptual","","","2","22","","","","","384","knife","10","0","0",""
"","","","","","","","","","","","canvas-button-response","303","671114","0.0-303.0","997","2","","","","","","","","","","","","","","confidence","","","2","22","","","","","","","","","","15"
"","","","","","","","","","","","preload","304","671115","0.0-304.0","","","","","true","","","","","","","","","","","preload","","","2","23","false","[]","[]","[]","","","","","",""
"","","","","","","","","","","","canvas-keyboard-response","305","671418","0.0-305.0","null","null","","","","","","","","","","","","","","fixation","","","2","23","","","","","","","","","",""
"","","","","","","","","","","","canvas-keyboard-response","306","671721","0.0-306.0","null","null","","","","","","","","","","","","","","stimulus","","","2","23","","","","","","","","","",""
"","","","","","","","","","","","canvas-button-response","307","672597","0.0-307.0","873","elephant","","","","","","","","","","","","","","perceptual","","","2","23","","","","","335","elephant","6","0","1",""
"","","","","","","","","","","","canvas-button-response","308","673548","0.0-308.0","948","8","","","","","","","","","","","","","","confidence","","","2","23","","","","","","","","","","16"
"","","","","","","","","","","","preload","309","673549","0.0-309.0","","","","","true","","","","","","","","","","","preload","","","2","24","false","[]","[]","[]","","","","","",""
"","","","","","","","","","","","canvas-keyboard-response","310","673851","0.0-310.0","null","null","","","","","","","","","","","","","","fixation","","","2","24","","","","","","","","","",""
"","","","","","","","","","","","canvas-keyboard-response","311","674154","0.0-311.0","null","null","","","","","","","","","","","","","","stimulus","","","2","24","","","","","","","","","",""
"","","","","","","","","","","","canvas-button-response","312","677030","0.0-312.0","2874","bridge","","","","","","","","","","","","","","perceptual","","","2","24","","","","","160","bridge","6","0","1",""
"","","","","","","","","","","","canvas-button-response","313","677913","0.0-313.0","880","4","","","","","","","","","","","","","","confidence","","","2","24","","","","","","","","","","17"
"","","","","","","","","","","","preload","314","677914","0.0-314.0","","","","","true","","","","","","","","","","","preload","","","2","25","false","[]","[]","[]","","","","","",""
"","","","","","","","","","","","canvas-keyboard-response","315","678216","0.0-315.0","null","null","","","","","","","","","","","","","","fixation","","","2","25","","","","","","","","","",""
"","","","","","","","","","","","canvas-keyboard-response","316","678519","0.0-316.0","null","null","","","","","","","","","","","","","","stimulus","","","2","25","","","","","","","","","",""
"","","","","","","","","","","","canvas-button-response","317","679497","0.0-317.0","974","bridge","","","","","","","","","","","","","","perceptual","","","2","25","","","","","166","bridge","6","0","1",""
"","","","","","","","","","","","canvas-button-response","318","680196","0.0-318.0","697","7","","","","","","","","","","","","","","confidence","","","2","25","","","","","","","","","","18"
"","","","","","","","","","","","preload","319","680197","0.0-319.0","","","","","true","","","","","","","","","","","preload","","","2","26","false","[]","[]","[]","","","","","",""
"","","","","","","","","","","","canvas-keyboard-response","320","680499","0.0-320.0","null","null","","","","","","","","","","","","","","fixation","","","2","26","","","","","","","","","",""
"","","","","","","","","","","","canvas-keyboard-response","321","680802","0.0-321.0","null","null","","","","","","","","","","","","","","stimulus","","","2","26","","","","","","","","","",""
"","","","","","","","","","","","canvas-button-response","322","681847","0.0-322.0","1042","flower","","","","","","","","","","","","","","perceptual","","","2","26","","","","","238","flower","10","0","1",""
"","","","","","","","","","","","canvas-button-response","323","682564","0.0-323.0","714","9","","","","","","","","","","","","","","confidence","","","2","26","","","","","","","","","","19"
"","","","","","","","","","","","preload","324","682565","0.0-324.0","","","","","true","","","","","","","","","","","preload","","","2","27","false","[]","[]","[]","","","","","",""
"","","","","","","","","","","","canvas-keyboard-response","325","682868","0.0-325.0","null","null","","","","","","","","","","","","","","fixation","","","2","27","","","","","","","","","",""
"","","","","","","","","","","","canvas-keyboard-response","326","683170","0.0-326.0","null","null","","","","","","","","","","","","","","stimulus","","","2","27","","","","","","","","","",""
"","","","","","","","","","","","canvas-button-response","327","686498","0.0-327.0","3326","train","","","","","","","","","","","","","","perceptual","","","2","27","","","","","31","house","10","0","0",""
"","","","","","","","","","","","canvas-button-response","328","687714","0.0-328.0","1212","5","","","","","","","","","","","","","","confidence","","","2","27","","","","","","","","","","19"
"","","","","","","","","","","","preload","329","687715","0.0-329.0","","","","","true","","","","","","","","","","","preload","","","2","28","false","[]","[]","[]","","","","","",""
"","","","","","","","","","","","canvas-keyboard-response","330","688018","0.0-330.0","null","null","","","","","","","","","","","","","","fixation","","","2","28","","","","","","","","","",""
"","","","","","","","","","","","canvas-keyboard-response","331","688321","0.0-331.0","null","null","","","","","","","","","","","","","","stimulus","","","2","28","","","","","","","","","",""
"","","","","","","","","","","","canvas-button-response","332","689629","0.0-332.0","1305","cat","","","","","","","","","","","","","","perceptual","","","2","28","","","","","343","elephant","10","0","0",""
"","","","","","","","","","","","canvas-button-response","333","690646","0.0-333.0","1015","5","","","","","","","","","","","","","","confidence","","","2","28","","","","","","","","","","19"
"","","","","","","","","","","","preload","334","690646","0.0-334.0","","","","","true","","","","","","","","","","","preload","","","2","29","false","[]","[]","[]","","","","","",""
"","","","","","","","","","","","canvas-keyboard-response","335","690949","0.0-335.0","null","null","","","","","","","","","","","","","","fixation","","","2","29","","","","","","","","","",""
"","","","","","","","","","","","canvas-keyboard-response","336","691252","0.0-336.0","null","null","","","","","","","","","","","","","","stimulus","","","2","29","","","","","","","","","",""
"","","","","","","","","","","","canvas-button-response","337","692531","0.0-337.0","1276","knife","","","","","","","","","","","","","","perceptual","","","2","29","","","","","145","bed","10","0","0",""
"","","","","","","","","","","","canvas-button-response","338","693246","0.0-338.0","712","5","","","","","","","","","","","","","","confidence","","","2","29","","","","","","","","","","19"
"","","","","","","","","","","","preload","339","693246","0.0-339.0","","","","","true","","","","","","","","","","","preload","","","2","30","false","[]","[]","[]","","","","","",""
"","","","","","","","","","","","canvas-keyboard-response","340","693548","0.0-340.0","null","null","","","","","","","","","","","","","","fixation","","","2","30","","","","","","","","","",""
"","","","","","","","","","","","canvas-keyboard-response","341","693851","0.0-341.0","null","null","","","","","","","","","","","","","","stimulus","","","2","30","","","","","","","","","",""
"","","","","","","","","","","","canvas-button-response","342","695146","0.0-342.0","1292","house","","","","","","","","","","","","","","perceptual","","","2","30","","","","","12","house","6","0","1",""
"","","","","","","","","","","","canvas-button-response","343","696397","0.0-343.0","1249","6","","","","","","","","","","","","","","confidence","","","2","30","","","","","","","","","","20"
"","","","","","","","","","","","preload","344","696398","0.0-344.0","","","","","true","","","","","","","","","","","preload","","","2","31","false","[]","[]","[]","","","","","",""
"","","","","","","","","","","","canvas-keyboard-response","345","696701","0.0-345.0","null","null","","","","","","","","","","","","","","fixation","","","2","31","","","","","","","","","",""
"","","","","","","","","","","","canvas-keyboard-response","346","697005","0.0-346.0","null","null","","","","","","","","","","","","","","stimulus","","","2","31","","","","","","","","","",""
"","","","","","","","","","","","canvas-button-response","347","697863","0.0-347.0","855","train","","","","","","","","","","","","","","perceptual","","","2","31","","","","","251","train","6","0","1",""
"","","","","","","","","","","","canvas-button-response","348","698514","0.0-348.0","649","9","","","","","","","","","","","","","","confidence","","","2","31","","","","","","","","","","21"
"","","","","","","","","","","","preload","349","698515","0.0-349.0","","","","","true","","","","","","","","","","","preload","","","2","32","false","[]","[]","[]","","","","","",""
"","","","","","","","","","","","canvas-keyboard-response","350","698817","0.0-350.0","null","null","","","","","","","","","","","","","","fixation","","","2","32","","","","","","","","","",""
"","","","","","","","","","","","canvas-keyboard-response","351","699121","0.0-351.0","null","null","","","","","","","","","","","","","","stimulus","","","2","32","","","","","","","","","",""
"","","","","","","","","","","","canvas-button-response","352","700796","0.0-352.0","1673","phone","","","","","","","","","","","","","","perceptual","","","2","32","","","","","364","knife","6","0","0",""
"","","","","","","","","","","","canvas-button-response","353","701546","0.0-353.0","749","6","","","","","","","","","","","","","","confidence","","","2","32","","","","","","","","","","21"
"","","","","","","","","","","","preload","354","701547","0.0-354.0","","","","","true","","","","","","","","","","","preload","","","2","33","false","[]","[]","[]","","","","","",""
"","","","","","","","","","","","canvas-keyboard-response","355","701849","0.0-355.0","null","null","","","","","","","","","","","","","","fixation","","","2","33","","","","","","","","","",""
"","","","","","","","","","","","canvas-keyboard-response","356","702152","0.0-356.0","null","null","","","","","","","","","","","","","","stimulus","","","2","33","","","","","","","","","",""
"","","","","","","","","","","","canvas-button-response","357","702964","0.0-357.0","809","knife","","","","","","","","","","","","","","perceptual","","","2","33","","","","","383","knife","10","0","1",""
"","","","","","","","","","","","canvas-button-response","358","703613","0.0-358.0","647","7","","","","","","","","","","","","","","confidence","","","2","33","","","","","","","","","","22"
"","","","","","","","","","","","preload","359","703614","0.0-359.0","","","","","true","","","","","","","","","","","preload","","","2","34","false","[]","[]","[]","","","","","",""
"","","","","","","","","","","","canvas-keyboard-response","360","703917","0.0-360.0","null","null","","","","","","","","","","","","","","fixation","","","2","34","","","","","","","","","",""
"","","","","","","","","","","","canvas-keyboard-response","361","704221","0.0-361.0","null","null","","","","","","","","","","","","","","stimulus","","","2","34","","","","","","","","","",""
"","","","","","","","","","","","canvas-button-response","362","709347","0.0-362.0","5124","bridge","","","","","","","","","","","","","","perceptual","","","2","34","","","","","115","phone","10","0","0",""
"","","","","","","","","","","","canvas-button-response","363","710098","0.0-363.0","748","3","","","","","","","","","","","","","","confidence","","","2","34","","","","","","","","","","22"
"","","","","","","","","","","","preload","364","710099","0.0-364.0","","","","","true","","","","","","","","","","","preload","","","2","35","false","[]","[]","[]","","","","","",""
"","","","","","","","","","","","canvas-keyboard-response","365","710402","0.0-365.0","null","null","","","","","","","","","","","","","","fixation","","","2","35","","","","","","","","","",""
"","","","","","","","","","","","canvas-keyboard-response","366","710705","0.0-366.0","null","null","","","","","","","","","","","","","","stimulus","","","2","35","","","","","","","","","",""
"","","","","","","","","","","","canvas-button-response","367","712565","0.0-367.0","1857","cat","","","","","","","","","","","","","","perceptual","","","2","35","","","","","231","flower","10","0","0",""
"","","","","","","","","","","","canvas-button-response","368","713964","0.0-368.0","1396","4","","","","","","","","","","","","","","confidence","","","2","35","","","","","","","","","","22"
"","","","","","","","","","","","preload","369","713965","0.0-369.0","","","","","true","","","","","","","","","","","preload","","","2","36","false","[]","[]","[]","","","","","",""
"","","","","","","","","","","","canvas-keyboard-response","370","714268","0.0-370.0","null","null","","","","","","","","","","","","","","fixation","","","2","36","","","","","","","","","",""
"","","","","","","","","","","","canvas-keyboard-response","371","714571","0.0-371.0","null","null","","","","","","","","","","","","","","stimulus","","","2","36","","","","","","","","","",""
"","","","","","","","","","","","canvas-button-response","372","717982","0.0-372.0","3408","house","","","","","","","","","","","","","","perceptual","","","2","36","","","","","327","elephant","6","0","0",""
"","","","","","","","","","","","canvas-button-response","373","719382","0.0-373.0","1397","3","","","","","","","","","","","","","","confidence","","","2","36","","","","","","","","","","22"
"","","","","","","","","","","","preload","374","719383","0.0-374.0","","","","","true","","","","","","","","","","","preload","","","2","37","false","[]","[]","[]","","","","","",""
"","","","","","","","","","","","canvas-keyboard-response","375","719686","0.0-375.0","null","null","","","","","","","","","","","","","","fixation","","","2","37","","","","","","","","","",""
"","","","","","","","","","","","canvas-keyboard-response","376","719989","0.0-376.0","null","null","","","","","","","","","","","","","","stimulus","","","2","37","","","","","","","","","",""
"","","","","","","","","","","","canvas-button-response","377","722380","0.0-377.0","2388","knife","","","","","","","","","","","","","","perceptual","","","2","37","","","","","363","knife","6","0","1",""
"","","","","","","","","","","","canvas-button-response","378","723598","0.0-378.0","1217","4","","","","","","","","","","","","","","confidence","","","2","37","","","","","","","","","","23"
"","","","","","","","","","","","preload","379","723599","0.0-379.0","","","","","true","","","","","","","","","","","preload","","","2","38","false","[]","[]","[]","","","","","",""
"","","","","","","","","","","","canvas-keyboard-response","380","723902","0.0-380.0","null","null","","","","","","","","","","","","","","fixation","","","2","38","","","","","","","","","",""
"","","","","","","","","","","","canvas-keyboard-response","381","724205","0.0-381.0","null","null","","","","","","","","","","","","","","stimulus","","","2","38","","","","","","","","","",""
"","","","","","","","","","","","canvas-button-response","382","725163","0.0-382.0","956","flower","","","","","","","","","","","","","","perceptual","","","2","38","","","","","227","flower","10","0","1",""
"","","","","","","","","","","","canvas-button-response","383","726098","0.0-383.0","933","9","","","","","","","","","","","","","","confidence","","","2","38","","","","","","","","","","24"
"","","","","","","","","","","","preload","384","726099","0.0-384.0","","","","","true","","","","","","","","","","","preload","","","2","39","false","[]","[]","[]","","","","","",""
"","","","","","","","","","","","canvas-keyboard-response","385","726401","0.0-385.0","null","null","","","","","","","","","","","","","","fixation","","","2","39","","","","","","","","","",""
"","","","","","","","","","","","canvas-keyboard-response","386","726703","0.0-386.0","null","null","","","","","","","","","","","","","","stimulus","","","2","39","","","","","","","","","",""
"","","","","","","","","","","","canvas-button-response","387","729632","0.0-387.0","2927","train","","","","","","","","","","","","","","perceptual","","","2","39","","","","","196","bridge","10","0","0",""
"","","","","","","","","","","","canvas-button-response","388","730514","0.0-388.0","879","4","","","","","","","","","","","","","","confidence","","","2","39","","","","","","","","","","24"
"","","","","","","","","","","","preload","389","730515","0.0-389.0","","","","","true","","","","","","","","","","","preload","","","2","40","false","[]","[]","[]","","","","","",""
"","","","","","","","","","","","canvas-keyboard-response","390","730817","0.0-390.0","null","null","","","","","","","","","","","","","","fixation","","","2","40","","","","","","","","","",""
"","","","","","","","","","","","canvas-keyboard-response","391","731120","0.0-391.0","null","null","","","","","","","","","","","","","","stimulus","","","2","40","","","","","","","","","",""
"","","","","","","","","","","","canvas-button-response","392","732081","0.0-392.0","959","flower","","","","","","","","","","","","","","perceptual","","","2","40","","","","","212","flower","6","0","1",""
"","","","","","","","","","","","canvas-button-response","393","733080","0.0-393.0","997","8","","","","","","","","","","","","","","confidence","","","2","40","","","","","","","","","","25"
"","","","","","","","","","","","preload","394","733082","0.0-394.0","","","","","true","","","","","","","","","","","preload","","","2","41","false","[]","[]","[]","","","","","",""
"","","","","","","","","","","","canvas-keyboard-response","395","733385","0.0-395.0","null","null","","","","","","","","","","","","","","fixation","","","2","41","","","","","","","","","",""
"","","","","","","","","","","","canvas-keyboard-response","396","733688","0.0-396.0","null","null","","","","","","","","","","","","","","stimulus","","","2","41","","","","","","","","","",""
"","","","","","","","","","","","canvas-button-response","397","735383","0.0-397.0","1691","bridge","","","","","","","","","","","","","","perceptual","","","2","41","","","","","183","bridge","10","0","1",""
"","","","","","","","","","","","canvas-button-response","398","736831","0.0-398.0","1446","4","","","","","","","","","","","","","","confidence","","","2","41","","","","","","","","","","26"
"","","","","","","","","","","","preload","399","736833","0.0-399.0","","","","","true","","","","","","","","","","","preload","","","2","42","false","[]","[]","[]","","","","","",""
"","","","","","","","","","","","canvas-keyboard-response","400","737135","0.0-400.0","null","null","","","","","","","","","","","","","","fixation","","","2","42","","","","","","","","","",""
"","","","","","","","","","","","canvas-keyboard-response","401","737439","0.0-401.0","null","null","","","","","","","","","","","","","","stimulus","","","2","42","","","","","","","","","",""
"","","","","","","","","","","","canvas-button-response","402","738246","0.0-402.0","805","house","","","","","","","","","","","","","","perceptual","","","2","42","","","","","15","house","6","0","1",""
"","","","","","","","","","","","canvas-button-response","403","738948","0.0-403.0","700","9","","","","","","","","","","","","","","confidence","","","2","42","","","","","","","","","","27"
"","","","","","","","","","","","preload","404","738950","0.0-404.0","","","","","true","","","","","","","","","","","preload","","","2","43","false","[]","[]","[]","","","","","",""
"","","","","","","","","","","","canvas-keyboard-response","405","739253","0.0-405.0","null","null","","","","","","","","","","","","","","fixation","","","2","43","","","","","","","","","",""
"","","","","","","","","","","","canvas-keyboard-response","406","739556","0.0-406.0","null","null","","","","","","","","","","","","","","stimulus","","","2","43","","","","","","","","","",""
"","","","","","","","","","","","canvas-button-response","407","740396","0.0-407.0","837","cat","","","","","","","","","","","","","","perceptual","","","2","43","","","","","282","cat","6","0","1",""
"","","","","","","","","","","","canvas-button-response","408","741281","0.0-408.0","883","9","","","","","","","","","","","","","","confidence","","","2","43","","","","","","","","","","28"
"","","","","","","","","","","","preload","409","741282","0.0-409.0","","","","","true","","","","","","","","","","","preload","","","2","44","false","[]","[]","[]","","","","","",""
"","","","","","","","","","","","canvas-keyboard-response","410","741585","0.0-410.0","null","null","","","","","","","","","","","","","","fixation","","","2","44","","","","","","","","","",""
"","","","","","","","","","","","canvas-keyboard-response","411","741888","0.0-411.0","null","null","","","","","","","","","","","","","","stimulus","","","2","44","","","","","","","","","",""
"","","","","","","","","","","","canvas-button-response","412","744182","0.0-412.0","2290","elephant","","","","","","","","","","","","","","perceptual","","","2","44","","","","","157","bed","10","0","0",""
"","","","","","","","","","","","canvas-button-response","413","745264","0.0-413.0","1080","4","","","","","","","","","","","","","","confidence","","","2","44","","","","","","","","","","28"
"","","","","","","","","","","","preload","414","745265","0.0-414.0","","","","","true","","","","","","","","","","","preload","","","2","45","false","[]","[]","[]","","","","","",""
"","","","","","","","","","","","canvas-keyboard-response","415","745566","0.0-415.0","null","null","","","","","","","","","","","","","","fixation","","","2","45","","","","","","","","","",""
"","","","","","","","","","","","canvas-keyboard-response","416","745868","0.0-416.0","null","null","","","","","","","","","","","","","","stimulus","","","2","45","","","","","","","","","",""
"","","","","","","","","","","","canvas-button-response","417","746765","0.0-417.0","895","flower","","","","","","","","","","","","","","perceptual","","","2","45","","","","","205","flower","6","0","1",""
"","","","","","","","","","","","canvas-button-response","418","747949","0.0-418.0","1181","9","","","","","","","","","","","","","","confidence","","","2","45","","","","","","","","","","29"
"","","","","","","","","","","","preload","419","747950","0.0-419.0","","","","","true","","","","","","","","","","","preload","","","2","46","false","[]","[]","[]","","","","","",""
"","","","","","","","","","","","canvas-keyboard-response","420","748252","0.0-420.0","null","null","","","","","","","","","","","","","","fixation","","","2","46","","","","","","","","","",""
"","","","","","","","","","","","canvas-keyboard-response","421","748556","0.0-421.0","null","null","","","","","","","","","","","","","","stimulus","","","2","46","","","","","","","","","",""
"","","","","","","","","","","","canvas-button-response","422","749416","0.0-422.0","857","train","","","","","","","","","","","","","","perceptual","","","2","46","","","","","276","train","10","0","1",""
"","","","","","","","","","","","canvas-button-response","423","750514","0.0-423.0","1096","7","","","","","","","","","","","","","","confidence","","","2","46","","","","","","","","","","30"
"","","","","","","","","","","","preload","424","750515","0.0-424.0","","","","","true","","","","","","","","","","","preload","","","2","47","false","[]","[]","[]","","","","","",""
"","","","","","","","","","","","canvas-keyboard-response","425","750818","0.0-425.0","null","null","","","","","","","","","","","","","","fixation","","","2","47","","","","","","","","","",""
"","","","","","","","","","","","canvas-keyboard-response","426","751121","0.0-426.0","null","null","","","","","","","","","","","","","","stimulus","","","2","47","","","","","","","","","",""
"","","","","","","","","","","","canvas-button-response","427","752548","0.0-427.0","1424","elephant","","","","","","","","","","","","","","perceptual","","","2","47","","","","","337","elephant","6","0","1",""
"","","","","","","","","","","","canvas-button-response","428","753198","0.0-428.0","647","8","","","","","","","","","","","","","","confidence","","","2","47","","","","","","","","","","31"
"","","","","","","","","","","","preload","429","753199","0.0-429.0","","","","","true","","","","","","","","","","","preload","","","2","48","false","[]","[]","[]","","","","","",""
"","","","","","","","","","","","canvas-keyboard-response","430","753502","0.0-430.0","null","null","","","","","","","","","","","","","","fixation","","","2","48","","","","","","","","","",""
"","","","","","","","","","","","canvas-keyboard-response","431","753804","0.0-431.0","null","null","","","","","","","","","","","","","","stimulus","","","2","48","","","","","","","","","",""
"","","","","","","","","","","","canvas-button-response","432","754782","0.0-432.0","975","train","","","","","","","","","","","","","","perceptual","","","2","48","","","","","25","house","10","0","0",""
"","","","","","","","","","","","canvas-button-response","433","755982","0.0-433.0","1196","6","","","","","","","","","","","","","","confidence","","","2","48","","","","","","","","","","31"
"","","","","","","","","","","","preload","434","755983","0.0-434.0","","","","","true","","","","","","","","","","","preload","","","2","49","false","[]","[]","[]","","","","","",""
"","","","","","","","","","","","canvas-keyboard-response","435","756285","0.0-435.0","null","null","","","","","","","","","","","","","","fixation","","","2","49","","","","","","","","","",""
"","","","","","","","","","","","canvas-keyboard-response","436","756588","0.0-436.0","null","null","","","","","","","","","","","","","","stimulus","","","2","49","","","","","","","","","",""
"","","","","","","","","","","","canvas-button-response","437","757398","0.0-437.0","806","cat","","","","","","","","","","","","","","perceptual","","","2","49","","","","","289","cat","6","0","1",""
"","","","","","","","","","","","canvas-button-response","438","758031","0.0-438.0","630","6","","","","","","","","","","","","","","confidence","","","2","49","","","","","","","","","","32"
"","","","","","","","","","","","html-button-response","439","1087461","0.0-439.0","329449","0","","","","","","","","","","","","","","<p style=""font-size:20px;color:#000000"">You got 32 out of 50 trials correct in this block.<br><br>You have completed 6% of the experiment.<br><br>Take a short break.<br><br>When you are ready, click Continue to proceed.","","","2","49","","","","","","","","","",""
"","","","","","","","","","","","html-keyboard-response","440","1088465","0.0-440.0","null","null","","","","","","","","","","","","","","<p style=""font-size:32px;color:#000000""><br><br> RUN: &nbsp 1/4 <br><br> BLOCK: 2/4 ","","","2","49","","","","","","","","","",""
"","","","","","","","","","","","preload","441","1088466","0.0-441.0","","","","","true","","","","","","","","","","","preload","","","2","50","false","[]","[]","[]","","","","","",""
"","","","","","","","","","","","canvas-keyboard-response","442","1088770","0.0-442.0","null","null","","","","","","","","","","","","","","fixation","","","2","50","","","","","","","","","",""
"","","","","","","","","","","","canvas-keyboard-response","443","1089073","0.0-443.0","null","null","","","","","","","","","","","","","","stimulus","","","2","50","","","","","","","","","",""
"","","","","","","","","","","","canvas-button-response","444","1093757","0.0-444.0","4684","car","","","","","","","","","","","","","","perceptual","","","2","50","","","","","159","bed","10","0","0",""
"","","","","","","","","","","","canvas-button-response","445","1094623","0.0-445.0","863","3","","","","","","","","","","","","","","confidence","","","2","50","","","","","","","","","","0"
"","","","","","","","","","","","preload","446","1094625","0.0-446.0","","","","","true","","","","","","","","","","","preload","","","2","51","false","[]","[]","[]","","","","","",""
"","","","","","","","","","","","canvas-keyboard-response","447","1094927","0.0-447.0","null","null","","","","","","","","","","","","","","fixation","","","2","51","","","","","","","","","",""
"","","","","","","","","","","","canvas-keyboard-response","448","1095228","0.0-448.0","null","null","","","","","","","","","","","","","","stimulus","","","2","51","","","","","","","","","",""
"","","","","","","","","","","","canvas-button-response","449","1095906","0.0-449.0","675","knife","","","","","","","","","","","","","","perceptual","","","2","51","","","","","379","knife","6","0","1",""
"","","","","","","","","","","","canvas-button-response","450","1096823","0.0-450.0","915","9","","","","","","","","","","","","","","confidence","","","2","51","","","","","","","","","","1"
"","","","","","","","","","","","preload","451","1096825","0.0-451.0","","","","","true","","","","","","","","","","","preload","","","2","52","false","[]","[]","[]","","","","","",""
"","","","","","","","","","","","canvas-keyboard-response","452","1097128","0.0-452.0","null","null","","","","","","","","","","","","","","fixation","","","2","52","","","","","","","","","",""
"","","","","","","","","","","","canvas-keyboard-response","453","1097430","0.0-453.0","null","null","","","","","","","","","","","","","","stimulus","","","2","52","","","","","","","","","",""
"","","","","","","","","","","","canvas-button-response","454","1098407","0.0-454.0","975","bed","","","","","","","","","","","","","","perceptual","","","2","52","","","","","154","bed","10","0","1",""
"","","","","","","","","","","","canvas-button-response","455","1099806","0.0-455.0","1398","9","","","","","","","","","","","","","","confidence","","","2","52","","","","","","","","","","2"
"","","","","","","","","","","","preload","456","1099808","0.0-456.0","","","","","true","","","","","","","","","","","preload","","","2","53","false","[]","[]","[]","","","","","",""
"","","","","","","","","","","","canvas-keyboard-response","457","1100110","0.0-457.0","null","null","","","","","","","","","","","","","","fixation","","","2","53","","","","","","","","","",""
"","","","","","","","","","","","canvas-keyboard-response","458","1100414","0.0-458.0","null","null","","","","","","","","","","","","","","stimulus","","","2","53","","","","","","","","","",""
"","","","","","","","","","","","canvas-button-response","459","1103070","0.0-459.0","2655","bridge","","","","","","","","","","","","","","perceptual","","","2","53","","","","","258","train","6","0","0",""
"","","","","","","","","","","","canvas-button-response","460","1104070","0.0-460.0","998","5","","","","","","","","","","","","","","confidence","","","2","53","","","","","","","","","","2"
"","","","","","","","","","","","preload","461","1104071","0.0-461.0","","","","","true","","","","","","","","","","","preload","","","2","54","false","[]","[]","[]","","","","","",""
"","","","","","","","","","","","canvas-keyboard-response","462","1104373","0.0-462.0","null","null","","","","","","","","","","","","","","fixation","","","2","54","","","","","","","","","",""
"","","","","","","","","","","","canvas-keyboard-response","463","1104676","0.0-463.0","null","null","","","","","","","","","","","","","","stimulus","","","2","54","","","","","","","","","",""
"","","","","","","","","","","","canvas-button-response","464","1105568","0.0-464.0","890","house","","","","","","","","","","","","","","perceptual","","","2","54","","","","","171","bridge","6","0","0",""
"","","","","","","","","","","","canvas-button-response","465","1108270","0.0-465.0","2700","2","","","","","","","","","","","","","","confidence","","","2","54","","","","","","","","","","2"
"","","","","","","","","","","","preload","466","1108271","0.0-466.0","","","","","true","","","","","","","","","","","preload","","","2","55","false","[]","[]","[]","","","","","",""
"","","","","","","","","","","","canvas-keyboard-response","467","1108573","0.0-467.0","null","null","","","","","","","","","","","","","","fixation","","","2","55","","","","","","","","","",""
"","","","","","","","","","","","canvas-keyboard-response","468","1108876","0.0-468.0","null","null","","","","","","","","","","","","","","stimulus","","","2","55","","","","","","","","","",""
"","","","","","","","","","","","canvas-button-response","469","1110153","0.0-469.0","1274","knife","","","","","","","","","","","","","","perceptual","","","2","55","","","","","371","knife","6","0","1",""
"","","","","","","","","","","","canvas-button-response","470","1111185","0.0-470.0","1030","6","","","","","","","","","","","","","","confidence","","","2","55","","","","","","","","","","3"
"","","","","","","","","","","","preload","471","1111186","0.0-471.0","","","","","true","","","","","","","","","","","preload","","","2","56","false","[]","[]","[]","","","","","",""
"","","","","","","","","","","","canvas-keyboard-response","472","1111488","0.0-472.0","null","null","","","","","","","","","","","","","","fixation","","","2","56","","","","","","","","","",""
"","","","","","","","","","","","canvas-keyboard-response","473","1111790","0.0-473.0","null","null","","","","","","","","","","","","","","stimulus","","","2","56","","","","","","","","","",""
"","","","","","","","","","","","canvas-button-response","474","1112704","0.0-474.0","910","house","","","","","","","","","","","","","","perceptual","","","2","56","","","","","35","house","10","0","1",""
"","","","","","","","","","","","canvas-button-response","475","1113219","0.0-475.0","513","8","","","","","","","","","","","","","","confidence","","","2","56","","","","","","","","","","4"
"","","","","","","","","","","","preload","476","1113220","0.0-476.0","","","","","true","","","","","","","","","","","preload","","","2","57","false","[]","[]","[]","","","","","",""
"","","","","","","","","","","","canvas-keyboard-response","477","1113523","0.0-477.0","null","null","","","","","","","","","","","","","","fixation","","","2","57","","","","","","","","","",""
"","","","","","","","","","","","canvas-keyboard-response","478","1113826","0.0-478.0","null","null","","","","","","","","","","","","","","stimulus","","","2","57","","","","","","","","","",""
"","","","","","","","","","","","canvas-button-response","479","1118136","0.0-479.0","4308","cat","","","","","","","","","","","","","","perceptual","","","2","57","","","","","141","bed","10","0","0",""
"","","","","","","","","","","","canvas-button-response","480","1119287","0.0-480.0","1148","4","","","","","","","","","","","","","","confidence","","","2","57","","","","","","","","","","4"
"","","","","","","","","","","","preload","481","1119288","0.0-481.0","","","","","true","","","","","","","","","","","preload","","","2","58","false","[]","[]","[]","","","","","",""
"","","","","","","","","","","","canvas-keyboard-response","482","1119590","0.0-482.0","null","null","","","","","","","","","","","","","","fixation","","","2","58","","","","","","","","","",""
"","","","","","","","","","","","canvas-keyboard-response","483","1119894","0.0-483.0","null","null","","","","","","","","","","","","","","stimulus","","","2","58","","","","","","","","","",""
"","","","","","","","","","","","canvas-button-response","484","1120818","0.0-484.0","921","house","","","","","","","","","","","","","","perceptual","","","2","58","","","","","5","house","6","0","1",""
"","","","","","","","","","","","canvas-button-response","485","1121385","0.0-485.0","565","8","","","","","","","","","","","","","","confidence","","","2","58","","","","","","","","","","5"
"","","","","","","","","","","","preload","486","1121385","0.0-486.0","","","","","true","","","","","","","","","","","preload","","","2","59","false","[]","[]","[]","","","","","",""
"","","","","","","","","","","","canvas-keyboard-response","487","1121687","0.0-487.0","null","null","","","","","","","","","","","","","","fixation","","","2","59","","","","","","","","","",""
"","","","","","","","","","","","canvas-keyboard-response","488","1121991","0.0-488.0","null","null","","","","","","","","","","","","","","stimulus","","","2","59","","","","","","","","","",""
"","","","","","","","","","","","canvas-button-response","489","1123070","0.0-489.0","1077","phone","","","","","","","","","","","","","","perceptual","","","2","59","","","","","117","phone","10","0","1",""
"","","","","","","","","","","","canvas-button-response","490","1123869","0.0-490.0","796","8","","","","","","","","","","","","","","confidence","","","2","59","","","","","","","","","","6"
"","","","","","","","","","","","preload","491","1123870","0.0-491.0","","","","","true","","","","","","","","","","","preload","","","2","60","false","[]","[]","[]","","","","","",""
