"width","height","webaudio","browser","browser_version","mobile","os","fullscreen","vsync_rate","webcam","microphone","trial_type","trial_index","time_elapsed","internal_node_id","rt","response","accuracy","view_history","success","item_width_mm","item_height_mm","item_width_px","px2mm","view_dist_mm","item_width_deg","px2deg","scale_factor","win_width_deg","win_height_deg","stimulus","datetime","subjectID","curr_triallist","trial_no","timeout","failed_images","failed_audio","failed_video","image_index","category","blur","reps","correct","running_score"
"1440","812","true","chrome","141.0.0","false","Mac OS","true","60.87","true","true","browser-check","0","993","0.0-0.0","","","","","","","","","","","","","","","","","","","","","","","","","","","","","",""
"","","","","","","","","","","","survey","1","41567","0.0-1.0","40526","{""P0_Q0"":""904093006"",""P0_Q1"":""19"",""P1_Q0"":""Female"",""P1_Q1"":""Not Hispanic or Latino"",""P1_Q2"":""White"",""P1_Q3"":""Normal"",""P1_Q4"":""Right-Handed""}","[]","","","","","","","","","","","","","","","","","","","","","","","","","","",""
"","","","","","","","","","","","instructions","2","68636","0.0-2.0","27069","","","[{""page_index"":0,""viewing_time"":3285},{""page_index"":1,""viewing_time"":12500},{""page_index"":2,""viewing_time"":7800},{""page_index"":3,""viewing_time"":3484}]","","","","","","","","","","","","","","","","","","","","","","","","","",""
"","","","","","","","","","","","fullscreen","3","74021","0.0-3.0","4381","","","","true","","","","","","","","","","","","","","","","","","","","","","","","",""
"","","","","","","","","","","","virtual-chinrest","4","197000","0.0-4.0","122978","","","","","85.6","53.98","146.8536735711155","1.7167893743670883","1001.31","4.895122452370517","30","2.8599897420789437","48","30","","","","","","","","","","","","","","",""
"","","","","","","","","","","","instructions","5","251152","0.0-5.0","54151","","","[{""page_index"":0,""viewing_time"":6034},{""page_index"":1,""viewing_time"":11800},{""page_index"":2,""viewing_time"":10117},{""page_index"":3,""viewing_time"":4333},{""page_index"":4,""viewing_time"":5051},{""page_index"":5,""viewing_time"":13633},{""page_index"":6,""viewing_time"":3183}]","","","","","","","","","","","","","","","","","","","","","","","","","",""
"","","","","","","","","","","","html-button-response","6","254721","0.0-6.0","3563","0","","","","","","","","","","","","","","start_practice","Thu Oct 23 2025 10:06:05 GMT-0400 (Eastern Daylight Time)","27268","","","","","","","","","","","",""
"","","","","","","","","","","","preload","7","254723","0.0-7.0","","","","","true","","","","","","","","","","","preload","","","0","0","false","[]","[]","[]","","","","","",""
"","","","","","","","","","","","canvas-keyboard-response","8","255027","0.0-8.0","null","null","","","","","","","","","","","","","","fixation","","","0","0","","","","","","","","","",""
"","","","","","","","","","","","canvas-keyboard-response","9","255331","0.0-9.0","null","null","","","","","","","","","","","","","","stimulus","","","0","0","","","","","","","","","",""
"","","","","","","","","","","","canvas-button-response","10","261069","0.0-10.0","5733","elephant","","","","","","","","","","","","","","perceptual","","","0","0","","","","","82","elephant","1","","1",""
"","","","","","","","","","","","canvas-button-response","11","262937","0.0-11.0","1865","5","","","","","","","","","","","","","","confidence","","","0","0","","","","","","","","","","1"
"","","","","","","","","","","","html-keyboard-response","12","263941","0.0-12.0","null","null","","","","","","","","","","","","","","feedback","Thu Oct 23 2025 10:06:17 GMT-0400 (Eastern Daylight Time)","27268","0","0","","","","","","","","","",""
"","","","","","","","","","","","preload","13","263943","0.0-13.0","","","","","true","","","","","","","","","","","preload","","","0","1","false","[]","[]","[]","","","","","",""
"","","","","","","","","","","","canvas-keyboard-response","14","264245","0.0-14.0","null","null","","","","","","","","","","","","","","fixation","","","0","1","","","","","","","","","",""
"","","","","","","","","","","","canvas-keyboard-response","15","264549","0.0-15.0","null","null","","","","","","","","","","","","","","stimulus","","","0","1","","","","","","","","","",""
"","","","","","","","","","","","canvas-button-response","16","265720","0.0-16.0","1168","car","","","","","","","","","","","","","","perceptual","","","0","1","","","","","12","car","1","","1",""
"","","","","","","","","","","","canvas-button-response","17","268086","0.0-17.0","2363","10","","","","","","","","","","","","","","confidence","","","0","1","","","","","","","","","","2"
"","","","","","","","","","","","html-keyboard-response","18","269089","0.0-18.0","null","null","","","","","","","","","","","","","","feedback","Thu Oct 23 2025 10:06:22 GMT-0400 (Eastern Daylight Time)","27268","0","1","","","","","","","","","",""
"","","","","","","","","","","","preload","19","269091","0.0-19.0","","","","","true","","","","","","","","","","","preload","","","0","2","false","[]","[]","[]","","","","","",""
"","","","","","","","","","","","canvas-keyboard-response","20","269394","0.0-20.0","null","null","","","","","","","","","","","","","","fixation","","","0","2","","","","","","","","","",""
"","","","","","","","","","","","canvas-keyboard-response","21","269698","0.0-21.0","null","null","","","","","","","","","","","","","","stimulus","","","0","2","","","","","","","","","",""
"","","","","","","","","","","","canvas-button-response","22","271469","0.0-22.0","1768","phone","","","","","","","","","","","","","","perceptual","","","0","2","","","","","22","phone","1","","1",""
"","","","","","","","","","","","canvas-button-response","23","273170","0.0-23.0","1699","10","","","","","","","","","","","","","","confidence","","","0","2","","","","","","","","","","3"
"","","","","","","","","","","","html-keyboard-response","24","274173","0.0-24.0","null","null","","","","","","","","","","","","","","feedback","Thu Oct 23 2025 10:06:27 GMT-0400 (Eastern Daylight Time)","27268","0","2","","","","","","","","","",""
"","","","","","","","","","","","preload","25","274175","0.0-25.0","","","","","true","","","","","","","","","","","preload","","","0","3","false","[]","[]","[]","","","","","",""
"","","","","","","","","","","","canvas-keyboard-response","26","274478","0.0-26.0","null","null","","","","","","","","","","","","","","fixation","","","0","3","","","","","","","","","",""
"","","","","","","","","","","","canvas-keyboard-response","27","274781","0.0-27.0","null","null","","","","","","","","","","","","","","stimulus","","","0","3","","","","","","","","","",""
"","","","","","","","","","","","canvas-button-response","28","286886","0.0-28.0","12102","bed","","","","","","","","","","","","","","perceptual","","","0","3","","","","","92","knife","1","","0",""
"","","","","","","","","","","","canvas-button-response","29","288453","0.0-29.0","1564","3","","","","","","","","","","","","","","confidence","","","0","3","","","","","","","","","","3"
"","","","","","","","","","","","html-keyboard-response","30","289457","0.0-30.0","null","null","","","","","","","","","","","","","","feedback","Thu Oct 23 2025 10:06:43 GMT-0400 (Eastern Daylight Time)","27268","0","3","","","","","","","","","",""
"","","","","","","","","","","","preload","31","289458","0.0-31.0","","","","","true","","","","","","","","","","","preload","","","0","4","false","[]","[]","[]","","","","","",""
"","","","","","","","","","","","canvas-keyboard-response","32","289761","0.0-32.0","null","null","","","","","","","","","","","","","","fixation","","","0","4","","","","","","","","","",""
"","","","","","","","","","","","canvas-keyboard-response","33","290064","0.0-33.0","null","null","","","","","","","","","","","","","","stimulus","","","0","4","","","","","","","","","",""
"","","","","","","","","","","","canvas-button-response","34","294719","0.0-34.0","4652","flower","","","","","","","","","","","","","","perceptual","","","0","4","","","","","52","flower","1","","1",""
"","","","","","","","","","","","canvas-button-response","35","295887","0.0-35.0","1164","3","","","","","","","","","","","","","","confidence","","","0","4","","","","","","","","","","4"
"","","","","","","","","","","","html-keyboard-response","36","296890","0.0-36.0","null","null","","","","","","","","","","","","","","feedback","Thu Oct 23 2025 10:06:50 GMT-0400 (Eastern Daylight Time)","27268","0","4","","","","","","","","","",""
"","","","","","","","","","","","preload","37","296891","0.0-37.0","","","","","true","","","","","","","","","","","preload","","","0","5","false","[]","[]","[]","","","","","",""
"","","","","","","","","","","","canvas-keyboard-response","38","297194","0.0-38.0","null","null","","","","","","","","","","","","","","fixation","","","0","5","","","","","","","","","",""
"","","","","","","","","","","","canvas-keyboard-response","39","297497","0.0-39.0","null","null","","","","","","","","","","","","","","stimulus","","","0","5","","","","","","","","","",""
"","","","","","","","","","","","canvas-button-response","40","302970","0.0-40.0","5470","house","","","","","","","","","","","","","","perceptual","","","0","5","","","","","42","bridge","1","","0",""
"","","","","","","","","","","","canvas-button-response","41","304120","0.0-41.0","1147","5","","","","","","","","","","","","","","confidence","","","0","5","","","","","","","","","","4"
"","","","","","","","","","","","html-keyboard-response","42","305124","0.0-42.0","null","null","","","","","","","","","","","","","","feedback","Thu Oct 23 2025 10:06:58 GMT-0400 (Eastern Daylight Time)","27268","0","5","","","","","","","","","",""
"","","","","","","","","","","","preload","43","305125","0.0-43.0","","","","","true","","","","","","","","","","","preload","","","0","6","false","[]","[]","[]","","","","","",""
"","","","","","","","","","","","canvas-keyboard-response","44","305428","0.0-44.0","null","null","","","","","","","","","","","","","","fixation","","","0","6","","","","","","","","","",""
"","","","","","","","","","","","canvas-keyboard-response","45","305732","0.0-45.0","null","null","","","","","","","","","","","","","","stimulus","","","0","6","","","","","","","","","",""
"","","","","","","","","","","","canvas-button-response","46","307185","0.0-46.0","1451","house","","","","","","","","","","","","","","perceptual","","","0","6","","","","","2","house","1","","1",""
"","","","","","","","","","","","canvas-button-response","47","309085","0.0-47.0","1898","10","","","","","","","","","","","","","","confidence","","","0","6","","","","","","","","","","5"
"","","","","","","","","","","","html-keyboard-response","48","310087","0.0-48.0","null","null","","","","","","","","","","","","","","feedback","Thu Oct 23 2025 10:07:03 GMT-0400 (Eastern Daylight Time)","27268","0","6","","","","","","","","","",""
"","","","","","","","","","","","preload","49","310088","0.0-49.0","","","","","true","","","","","","","","","","","preload","","","0","7","false","[]","[]","[]","","","","","",""
"","","","","","","","","","","","canvas-keyboard-response","50","310392","0.0-50.0","null","null","","","","","","","","","","","","","","fixation","","","0","7","","","","","","","","","",""
"","","","","","","","","","","","canvas-keyboard-response","51","310695","0.0-51.0","null","null","","","","","","","","","","","","","","stimulus","","","0","7","","","","","","","","","",""
"","","","","","","","","","","","canvas-button-response","52","313169","0.0-52.0","2471","train","","","","","","","","","","","","","","perceptual","","","0","7","","","","","62","train","1","","1",""
"","","","","","","","","","","","canvas-button-response","53","314469","0.0-53.0","1297","10","","","","","","","","","","","","","","confidence","","","0","7","","","","","","","","","","6"
"","","","","","","","","","","","html-keyboard-response","54","315473","0.0-54.0","null","null","","","","","","","","","","","","","","feedback","Thu Oct 23 2025 10:07:09 GMT-0400 (Eastern Daylight Time)","27268","0","7","","","","","","","","","",""
"","","","","","","","","","","","preload","55","315474","0.0-55.0","","","","","true","","","","","","","","","","","preload","","","0","8","false","[]","[]","[]","","","","","",""
"","","","","","","","","","","","canvas-keyboard-response","56","315777","0.0-56.0","null","null","","","","","","","","","","","","","","fixation","","","0","8","","","","","","","","","",""
"","","","","","","","","","","","canvas-keyboard-response","57","316081","0.0-57.0","null","null","","","","","","","","","","","","","","stimulus","","","0","8","","","","","","","","","",""
"","","","","","","","","","","","canvas-button-response","58","317019","0.0-58.0","935","cat","","","","","","","","","","","","","","perceptual","","","0","8","","","","","72","cat","1","","1",""
"","","","","","","","","","","","canvas-button-response","59","319936","0.0-59.0","2915","10","","","","","","","","","","","","","","confidence","","","0","8","","","","","","","","","","7"
"","","","","","","","","","","","html-keyboard-response","60","320939","0.0-60.0","null","null","","","","","","","","","","","","","","feedback","Thu Oct 23 2025 10:07:14 GMT-0400 (Eastern Daylight Time)","27268","0","8","","","","","","","","","",""
"","","","","","","","","","","","preload","61","320940","0.0-61.0","","","","","true","","","","","","","","","","","preload","","","0","9","false","[]","[]","[]","","","","","",""
"","","","","","","","","","","","canvas-keyboard-response","62","321242","0.0-62.0","null","null","","","","","","","","","","","","","","fixation","","","0","9","","","","","","","","","",""
"","","","","","","","","","","","canvas-keyboard-response","63","321546","0.0-63.0","null","null","","","","","","","","","","","","","","stimulus","","","0","9","","","","","","","","","",""
"","","","","","","","","","","","canvas-button-response","64","325702","0.0-64.0","4154","bed","","","","","","","","","","","","","","perceptual","","","0","9","","","","","32","bed","1","","1",""
"","","","","","","","","","","","canvas-button-response","65","327336","0.0-65.0","1631","8","","","","","","","","","","","","","","confidence","","","0","9","","","","","","","","","","8"
"","","","","","","","","","","","html-keyboard-response","66","328340","0.0-66.0","null","null","","","","","","","","","","","","","","feedback","Thu Oct 23 2025 10:07:21 GMT-0400 (Eastern Daylight Time)","27268","0","9","","","","","","","","","",""
"","","","","","","","","","","","html-button-response","67","333786","0.0-67.0","5443","0","","","","","","","","","","","","","","start_practice","Thu Oct 23 2025 10:07:22 GMT-0400 (Eastern Daylight Time)","27268","0","9","","","","","","","","","",""
"","","","","","","","","","","","preload","68","333788","0.0-68.0","","","","","true","","","","","","","","","","","preload","","","1","0","false","[]","[]","[]","","","","","",""
"","","","","","","","","","","","canvas-keyboard-response","69","334091","0.0-69.0","null","null","","","","","","","","","","","","","","fixation","","","1","0","","","","","","","","","",""
"","","","","","","","","","","","canvas-keyboard-response","70","334393","0.0-70.0","null","null","","","","","","","","","","","","","","stimulus","","","1","0","","","","","","","","","",""
"","","","","","","","","","","","canvas-button-response","71","337402","0.0-71.0","3007","house","","","","","","","","","","","","","","perceptual","","","1","0","","","","","87","elephant","10","","0",""
"","","","","","","","","","","","canvas-button-response","72","338837","0.0-72.0","1432","5","","","","","","","","","","","","","","confidence","","","1","0","","","","","","","","","","0"
"","","","","","","","","","","","html-keyboard-response","73","339841","0.0-73.0","null","null","","","","","","","","","","","","","","feedback","Thu Oct 23 2025 10:07:33 GMT-0400 (Eastern Daylight Time)","27268","1","0","","","","","","","","","",""
"","","","","","","","","","","","preload","74","339842","0.0-74.0","","","","","true","","","","","","","","","","","preload","","","1","1","false","[]","[]","[]","","","","","",""
"","","","","","","","","","","","canvas-keyboard-response","75","340145","0.0-75.0","null","null","","","","","","","","","","","","","","fixation","","","1","1","","","","","","","","","",""
"","","","","","","","","","","","canvas-keyboard-response","76","340449","0.0-76.0","null","null","","","","","","","","","","","","","","stimulus","","","1","1","","","","","","","","","",""
"","","","","","","","","","","","canvas-button-response","77","352152","0.0-77.0","11701","phone","","","","","","","","","","","","","","perceptual","","","1","1","","","","","4","house","6","","0",""
"","","","","","","","","","","","canvas-button-response","78","353537","0.0-78.0","1383","2","","","","","","","","","","","","","","confidence","","","1","1","","","","","","","","","","0"
"","","","","","","","","","","","html-keyboard-response","79","354540","0.0-79.0","null","null","","","","","","","","","","","","","","feedback","Thu Oct 23 2025 10:07:48 GMT-0400 (Eastern Daylight Time)","27268","1","1","","","","","","","","","",""
"","","","","","","","","","","","preload","80","354541","0.0-80.0","","","","","true","","","","","","","","","","","preload","","","1","2","false","[]","[]","[]","","","","","",""
"","","","","","","","","","","","canvas-keyboard-response","81","354844","0.0-81.0","null","null","","","","","","","","","","","","","","fixation","","","1","2","","","","","","","","","",""
"","","","","","","","","","","","canvas-keyboard-response","82","355147","0.0-82.0","null","null","","","","","","","","","","","","","","stimulus","","","1","2","","","","","","","","","",""
"","","","","","","","","","","","canvas-button-response","83","366070","0.0-83.0","10919","knife","","","","","","","","","","","","","","perceptual","","","1","2","","","","","7","house","10","","0",""
"","","","","","","","","","","","canvas-button-response","84","367820","0.0-84.0","1747","2","","","","","","","","","","","","","","confidence","","","1","2","","","","","","","","","","0"
"","","","","","","","","","","","html-keyboard-response","85","368824","0.0-85.0","null","null","","","","","","","","","","","","","","feedback","Thu Oct 23 2025 10:08:02 GMT-0400 (Eastern Daylight Time)","27268","1","2","","","","","","","","","",""
"","","","","","","","","","","","preload","86","368825","0.0-86.0","","","","","true","","","","","","","","","","","preload","","","1","3","false","[]","[]","[]","","","","","",""
"","","","","","","","","","","","canvas-keyboard-response","87","369128","0.0-87.0","null","null","","","","","","","","","","","","","","fixation","","","1","3","","","","","","","","","",""
"","","","","","","","","","","","canvas-keyboard-response","88","369431","0.0-88.0","null","null","","","","","","","","","","","","","","stimulus","","","1","3","","","","","","","","","",""
"","","","","","","","","","","","canvas-button-response","89","370653","0.0-89.0","1219","house","","","","","","","","","","","","","","perceptual","","","1","3","","","","","37","bed","10","","0",""
"","","","","","","","","","","","canvas-button-response","90","371886","0.0-90.0","1230","2","","","","","","","","","","","","","","confidence","","","1","3","","","","","","","","","","0"
"","","","","","","","","","","","html-keyboard-response","91","372890","0.0-91.0","null","null","","","","","","","","","","","","","","feedback","Thu Oct 23 2025 10:08:06 GMT-0400 (Eastern Daylight Time)","27268","1","3","","","","","","","","","",""
"","","","","","","","","","","","preload","92","372891","0.0-92.0","","","","","true","","","","","","","","","","","preload","","","1","4","false","[]","[]","[]","","","","","",""
"","","","","","","","","","","","canvas-keyboard-response","93","373194","0.0-93.0","null","null","","","","","","","","","","","","","","fixation","","","1","4","","","","","","","","","",""
"","","","","","","","","","","","canvas-keyboard-response","94","373497","0.0-94.0","null","null","","","","","","","","","","","","","","stimulus","","","1","4","","","","","","","","","",""
"","","","","","","","","","","","canvas-button-response","95","385235","0.0-95.0","11736","car","","","","","","","","","","","","","","perceptual","","","1","4","","","","","57","flower","10","","0",""
"","","","","","","","","","","","canvas-button-response","96","386586","0.0-96.0","1348","2","","","","","","","","","","","","","","confidence","","","1","4","","","","","","","","","","0"
"","","","","","","","","","","","html-keyboard-response","97","387590","0.0-97.0","null","null","","","","","","","","","","","","","","feedback","Thu Oct 23 2025 10:08:21 GMT-0400 (Eastern Daylight Time)","27268","1","4","","","","","","","","","",""
"","","","","","","","","","","","preload","98","387591","0.0-98.0","","","","","true","","","","","","","","","","","preload","","","1","5","false","[]","[]","[]","","","","","",""
"","","","","","","","","","","","canvas-keyboard-response","99","387894","0.0-99.0","null","null","","","","","","","","","","","","","","fixation","","","1","5","","","","","","","","","",""
"","","","","","","","","","","","canvas-keyboard-response","100","388197","0.0-100.0","null","null","","","","","","","","","","","","","","stimulus","","","1","5","","","","","","","","","",""
"","","","","","","","","","","","canvas-button-response","101","391936","0.0-101.0","3736","house","","","","","","","","","","","","","","perceptual","","","1","5","","","","","84","elephant","6","","0",""
"","","","","","","","","","","","canvas-button-response","102","393236","0.0-102.0","1297","2","","","","","","","","","","","","","","confidence","","","1","5","","","","","","","","","","0"
"","","","","","","","","","","","html-keyboard-response","103","394239","0.0-103.0","null","null","","","","","","","","","","","","","","feedback","Thu Oct 23 2025 10:08:27 GMT-0400 (Eastern Daylight Time)","27268","1","5","","","","","","","","","",""
"","","","","","","","","","","","preload","104","394240","0.0-104.0","","","","","true","","","","","","","","","","","preload","","","1","6","false","[]","[]","[]","","","","","",""
"","","","","","","","","","","","canvas-keyboard-response","105","394544","0.0-105.0","null","null","","","","","","","","","","","","","","fixation","","","1","6","","","","","","","","","",""
"","","","","","","","","","","","canvas-keyboard-response","106","394847","0.0-106.0","null","null","","","","","","","","","","","","","","stimulus","","","1","6","","","","","","","","","",""
"","","","","","","","","","","","canvas-button-response","107","396835","0.0-107.0","1986","train","","","","","","","","","","","","","","perceptual","","","1","6","","","","","64","train","6","","1",""
"","","","","","","","","","","","canvas-button-response","108","398070","0.0-108.0","1232","8","","","","","","","","","","","","","","confidence","","","1","6","","","","","","","","","","1"
"","","","","","","","","","","","html-keyboard-response","109","399073","0.0-109.0","null","null","","","","","","","","","","","","","","feedback","Thu Oct 23 2025 10:08:32 GMT-0400 (Eastern Daylight Time)","27268","1","6","","","","","","","","","",""
"","","","","","","","","","","","preload","110","399075","0.0-110.0","","","","","true","","","","","","","","","","","preload","","","1","7","false","[]","[]","[]","","","","","",""
"","","","","","","","","","","","canvas-keyboard-response","111","399378","0.0-111.0","null","null","","","","","","","","","","","","","","fixation","","","1","7","","","","","","","","","",""
"","","","","","","","","","","","canvas-keyboard-response","112","399682","0.0-112.0","null","null","","","","","","","","","","","","","","stimulus","","","1","7","","","","","","","","","",""
"","","","","","","","","","","","canvas-button-response","113","401736","0.0-113.0","2051","cat","","","","","","","","","","","","","","perceptual","","","1","7","","","","","74","cat","6","","1",""
"","","","","","","","","","","","canvas-button-response","114","402953","0.0-114.0","1214","3","","","","","","","","","","","","","","confidence","","","1","7","","","","","","","","","","2"
"","","","","","","","","","","","html-keyboard-response","115","403956","0.0-115.0","null","null","","","","","","","","","","","","","","feedback","Thu Oct 23 2025 10:08:37 GMT-0400 (Eastern Daylight Time)","27268","1","7","","","","","","","","","",""
"","","","","","","","","","","","preload","116","403958","0.0-116.0","","","","","true","","","","","","","","","","","preload","","","1","8","false","[]","[]","[]","","","","","",""
"","","","","","","","","","","","canvas-keyboard-response","117","404261","0.0-117.0","null","null","","","","","","","","","","","","","","fixation","","","1","8","","","","","","","","","",""
"","","","","","","","","","","","canvas-keyboard-response","118","404564","0.0-118.0","null","null","","","","","","","","","","","","","","stimulus","","","1","8","","","","","","","","","",""
"","","","","","","","","","","","canvas-button-response","119","412885","0.0-119.0","8318","train","","","","","","","","","","","","","","perceptual","","","1","8","","","","","17","car","10","","0",""
"","","","","","","","","","","","canvas-button-response","120","414570","0.0-120.0","1682","3","","","","","","","","","","","","","","confidence","","","1","8","","","","","","","","","","2"
"","","","","","","","","","","","html-keyboard-response","121","415574","0.0-121.0","null","null","","","","","","","","","","","","","","feedback","Thu Oct 23 2025 10:08:49 GMT-0400 (Eastern Daylight Time)","27268","1","8","","","","","","","","","",""
"","","","","","","","","","","","preload","122","415575","0.0-122.0","","","","","true","","","","","","","","","","","preload","","","1","9","false","[]","[]","[]","","","","","",""
"","","","","","","","","","","","canvas-keyboard-response","123","415878","0.0-123.0","null","null","","","","","","","","","","","","","","fixation","","","1","9","","","","","","","","","",""
"","","","","","","","","","","","canvas-keyboard-response","124","416182","0.0-124.0","null","null","","","","","","","","","","","","","","stimulus","","","1","9","","","","","","","","","",""
"","","","","","","","","","","","canvas-button-response","125","419069","0.0-125.0","2885","car","","","","","","","","","","","","","","perceptual","","","1","9","","","","","14","car","6","","1",""
"","","","","","","","","","","","canvas-button-response","126","420536","0.0-126.0","1464","3","","","","","","","","","","","","","","confidence","","","1","9","","","","","","","","","","3"
"","","","","","","","","","","","html-keyboard-response","127","421539","0.0-127.0","null","null","","","","","","","","","","","","","","feedback","Thu Oct 23 2025 10:08:55 GMT-0400 (Eastern Daylight Time)","27268","1","9","","","","","","","","","",""
"","","","","","","","","","","","preload","128","421540","0.0-128.0","","","","","true","","","","","","","","","","","preload","","","1","10","false","[]","[]","[]","","","","","",""
"","","","","","","","","","","","canvas-keyboard-response","129","421843","0.0-129.0","null","null","","","","","","","","","","","","","","fixation","","","1","10","","","","","","","","","",""
"","","","","","","","","","","","canvas-keyboard-response","130","422146","0.0-130.0","null","null","","","","","","","","","","","","","","stimulus","","","1","10","","","","","","","","","",""
"","","","","","","","","","","","canvas-button-response","131","426285","0.0-131.0","4136","flower","","","","","","","","","","","","","","perceptual","","","1","10","","","","","34","bed","6","","0",""
"","","","","","","","","","","","canvas-button-response","132","427452","0.0-132.0","1164","2","","","","","","","","","","","","","","confidence","","","1","10","","","","","","","","","","3"
"","","","","","","","","","","","html-keyboard-response","133","428454","0.0-133.0","null","null","","","","","","","","","","","","","","feedback","Thu Oct 23 2025 10:09:02 GMT-0400 (Eastern Daylight Time)","27268","1","10","","","","","","","","","",""
"","","","","","","","","","","","preload","134","428456","0.0-134.0","","","","","true","","","","","","","","","","","preload","","","1","11","false","[]","[]","[]","","","","","",""
"","","","","","","","","","","","canvas-keyboard-response","135","428758","0.0-135.0","null","null","","","","","","","","","","","","","","fixation","","","1","11","","","","","","","","","",""
"","","","","","","","","","","","canvas-keyboard-response","136","429061","0.0-136.0","null","null","","","","","","","","","","","","","","stimulus","","","1","11","","","","","","","","","",""
"","","","","","","","","","","","canvas-button-response","137","431219","0.0-137.0","2155","phone","","","","","","","","","","","","","","perceptual","","","1","11","","","","","24","phone","6","","1",""
"","","","","","","","","","","","canvas-button-response","138","432835","0.0-138.0","1613","4","","","","","","","","","","","","","","confidence","","","1","11","","","","","","","","","","4"
"","","","","","","","","","","","html-keyboard-response","139","433838","0.0-139.0","null","null","","","","","","","","","","","","","","feedback","Thu Oct 23 2025 10:09:07 GMT-0400 (Eastern Daylight Time)","27268","1","11","","","","","","","","","",""
"","","","","","","","","","","","preload","140","433840","0.0-140.0","","","","","true","","","","","","","","","","","preload","","","1","12","false","[]","[]","[]","","","","","",""
"","","","","","","","","","","","canvas-keyboard-response","141","434143","0.0-141.0","null","null","","","","","","","","","","","","","","fixation","","","1","12","","","","","","","","","",""
"","","","","","","","","","","","canvas-keyboard-response","142","434446","0.0-142.0","null","null","","","","","","","","","","","","","","stimulus","","","1","12","","","","","","","","","",""
"","","","","","","","","","","","canvas-button-response","143","436303","0.0-143.0","1854","knife","","","","","","","","","","","","","","perceptual","","","1","12","","","","","97","knife","10","","1",""
"","","","","","","","","","","","canvas-button-response","144","437369","0.0-144.0","1063","4","","","","","","","","","","","","","","confidence","","","1","12","","","","","","","","","","5"
"","","","","","","","","","","","html-keyboard-response","145","438372","0.0-145.0","null","null","","","","","","","","","","","","","","feedback","Thu Oct 23 2025 10:09:11 GMT-0400 (Eastern Daylight Time)","27268","1","12","","","","","","","","","",""
"","","","","","","","","","","","preload","146","438373","0.0-146.0","","","","","true","","","","","","","","","","","preload","","","1","13","false","[]","[]","[]","","","","","",""
"","","","","","","","","","","","canvas-keyboard-response","147","438677","0.0-147.0","null","null","","","","","","","","","","","","","","fixation","","","1","13","","","","","","","","","",""
"","","","","","","","","","","","canvas-keyboard-response","148","438980","0.0-148.0","null","null","","","","","","","","","","","","","","stimulus","","","1","13","","","","","","","","","",""
"","","","","","","","","","","","canvas-button-response","149","449269","0.0-149.0","10286","bridge","","","","","","","","","","","","","","perceptual","","","1","13","","","","","67","train","10","","0",""
"","","","","","","","","","","","canvas-button-response","150","450002","0.0-150.0","731","4","","","","","","","","","","","","","","confidence","","","1","13","","","","","","","","","","5"
"","","","","","","","","","","","html-keyboard-response","151","451005","0.0-151.0","null","null","","","","","","","","","","","","","","feedback","Thu Oct 23 2025 10:09:24 GMT-0400 (Eastern Daylight Time)","27268","1","13","","","","","","","","","",""
"","","","","","","","","","","","preload","152","451006","0.0-152.0","","","","","true","","","","","","","","","","","preload","","","1","14","false","[]","[]","[]","","","","","",""
"","","","","","","","","","","","canvas-keyboard-response","153","451309","0.0-153.0","null","null","","","","","","","","","","","","","","fixation","","","1","14","","","","","","","","","",""
"","","","","","","","","","","","canvas-keyboard-response","154","451612","0.0-154.0","null","null","","","","","","","","","","","","","","stimulus","","","1","14","","","","","","","","","",""
"","","","","","","","","","","","canvas-button-response","155","455869","0.0-155.0","4254","bed","","","","","","","","","","","","","","perceptual","","","1","14","","","","","27","phone","10","","0",""
"","","","","","","","","","","","canvas-button-response","156","457084","0.0-156.0","1213","2","","","","","","","","","","","","","","confidence","","","1","14","","","","","","","","","","5"
"","","","","","","","","","","","html-keyboard-response","157","458087","0.0-157.0","null","null","","","","","","","","","","","","","","feedback","Thu Oct 23 2025 10:09:31 GMT-0400 (Eastern Daylight Time)","27268","1","14","","","","","","","","","",""
"","","","","","","","","","","","preload","158","458088","0.0-158.0","","","","","true","","","","","","","","","","","preload","","","1","15","false","[]","[]","[]","","","","","",""
"","","","","","","","","","","","canvas-keyboard-response","159","458392","0.0-159.0","null","null","","","","","","","","","","","","","","fixation","","","1","15","","","","","","","","","",""
"","","","","","","","","","","","canvas-keyboard-response","160","458695","0.0-160.0","null","null","","","","","","","","","","","","","","stimulus","","","1","15","","","","","","","","","",""
"","","","","","","","","","","","canvas-button-response","161","460120","0.0-161.0","1421","house","","","","","","","","","","","","","","perceptual","","","1","15","","","","","77","cat","10","","0",""
"","","","","","","","","","","","canvas-button-response","162","461236","0.0-162.0","1113","3","","","","","","","","","","","","","","confidence","","","1","15","","","","","","","","","","5"
"","","","","","","","","","","","html-keyboard-response","163","462238","0.0-163.0","null","null","","","","","","","","","","","","","","feedback","Thu Oct 23 2025 10:09:35 GMT-0400 (Eastern Daylight Time)","27268","1","15","","","","","","","","","",""
"","","","","","","","","","","","preload","164","462239","0.0-164.0","","","","","true","","","","","","","","","","","preload","","","1","16","false","[]","[]","[]","","","","","",""
"","","","","","","","","","","","canvas-keyboard-response","165","462542","0.0-165.0","null","null","","","","","","","","","","","","","","fixation","","","1","16","","","","","","","","","",""
"","","","","","","","","","","","canvas-keyboard-response","166","462845","0.0-166.0","null","null","","","","","","","","","","","","","","stimulus","","","1","16","","","","","","","","","",""
"","","","","","","","","","","","canvas-button-response","167","466635","0.0-167.0","3788","knife","","","","","","","","","","","","","","perceptual","","","1","16","","","","","94","knife","6","","1",""
"","","","","","","","","","","","canvas-button-response","168","467535","0.0-168.0","897","3","","","","","","","","","","","","","","confidence","","","1","16","","","","","","","","","","6"
"","","","","","","","","","","","html-keyboard-response","169","468538","0.0-169.0","null","null","","","","","","","","","","","","","","feedback","Thu Oct 23 2025 10:09:42 GMT-0400 (Eastern Daylight Time)","27268","1","16","","","","","","","","","",""
"","","","","","","","","","","","preload","170","468540","0.0-170.0","","","","","true","","","","","","","","","","","preload","","","1","17","false","[]","[]","[]","","","","","",""
"","","","","","","","","","","","canvas-keyboard-response","171","468843","0.0-171.0","null","null","","","","","","","","","","","","","","fixation","","","1","17","","","","","","","","","",""
"","","","","","","","","","","","canvas-keyboard-response","172","469146","0.0-172.0","null","null","","","","","","","","","","","","","","stimulus","","","1","17","","","","","","","","","",""
"","","","","","","","","","","","canvas-button-response","173","472086","0.0-173.0","2937","elephant","","","","","","","","","","","","","","perceptual","","","1","17","","","","","44","bridge","6","","0",""
"","","","","","","","","","","","canvas-button-response","174","472935","0.0-174.0","847","3","","","","","","","","","","","","","","confidence","","","1","17","","","","","","","","","","6"
"","","","","","","","","","","","html-keyboard-response","175","473938","0.0-175.0","null","null","","","","","","","","","","","","","","feedback","Thu Oct 23 2025 10:09:47 GMT-0400 (Eastern Daylight Time)","27268","1","17","","","","","","","","","",""
"","","","","","","","","","","","preload","176","473939","0.0-176.0","","","","","true","","","","","","","","","","","preload","","","1","18","false","[]","[]","[]","","","","","",""
"","","","","","","","","","","","canvas-keyboard-response","177","474241","0.0-177.0","null","null","","","","","","","","","","","","","","fixation","","","1","18","","","","","","","","","",""
"","","","","","","","","","","","canvas-keyboard-response","178","474544","0.0-178.0","null","null","","","","","","","","","","","","","","stimulus","","","1","18","","","","","","","","","",""
"","","","","","","","","","","","canvas-button-response","179","480702","0.0-179.0","6155","bed","","","","","","","","","","","","","","perceptual","","","1","18","","","","","54","flower","6","","0",""
"","","","","","","","","","","","canvas-button-response","180","481669","0.0-180.0","964","2","","","","","","","","","","","","","","confidence","","","1","18","","","","","","","","","","6"
"","","","","","","","","","","","html-keyboard-response","181","482672","0.0-181.0","null","null","","","","","","","","","","","","","","feedback","Thu Oct 23 2025 10:09:56 GMT-0400 (Eastern Daylight Time)","27268","1","18","","","","","","","","","",""
"","","","","","","","","","","","preload","182","482673","0.0-182.0","","","","","true","","","","","","","","","","","preload","","","1","19","false","[]","[]","[]","","","","","",""
"","","","","","","","","","","","canvas-keyboard-response","183","482976","0.0-183.0","null","null","","","","","","","","","","","","","","fixation","","","1","19","","","","","","","","","",""
"","","","","","","","","","","","canvas-keyboard-response","184","483279","0.0-184.0","null","null","","","","","","","","","","","","","","stimulus","","","1","19","","","","","","","","","",""
"","","","","","","","","","","","canvas-button-response","185","492270","0.0-185.0","8988","car","","","","","","","","","","","","","","perceptual","","","1","19","","","","","47","bridge","10","","0",""
"","","","","","","","","","","","canvas-button-response","186","493219","0.0-186.0","946","3","","","","","","","","","","","","","","confidence","","","1","19","","","","","","","","","","6"
"","","","","","","","","","","","html-keyboard-response","187","494223","0.0-187.0","null","null","","","","","","","","","","","","","","feedback","Thu Oct 23 2025 10:10:07 GMT-0400 (Eastern Daylight Time)","27268","1","19","","","","","","","","","",""
"","","","","","","","","","","","html-button-response","188","501685","0.0-188.0","7460","0","","","","","","","","","","","","","","start experiment","Thu Oct 23 2025 10:10:08 GMT-0400 (Eastern Daylight Time)","27268","1","19","","","","","","","","","",""
"","","","","","","","","","","","preload","189","501686","0.0-189.0","","","","","true","","","","","","","","","","","preload","","","2","0","false","[]","[]","[]","","","","","",""
"","","","","","","","","","","","canvas-keyboard-response","190","501989","0.0-190.0","null","null","","","","","","","","","","","","","","fixation","","","2","0","","","","","","","","","",""
"","","","","","","","","","","","canvas-keyboard-response","191","502291","0.0-191.0","null","null","","","","","","","","","","","","","","stimulus","","","2","0","","","","","","","","","",""
"","","","","","","","","","","","canvas-button-response","192","505270","0.0-192.0","2975","car","","","","","","","","","","","","","","perceptual","","","2","0","","","","","30","house","10","0","0",""
"","","","","","","","","","","","canvas-button-response","193","506303","0.0-193.0","1031","3","","","","","","","","","","","","","","confidence","","","2","0","","","","","","","","","","0"
"","","","","","","","","","","","preload","194","506304","0.0-194.0","","","","","true","","","","","","","","","","","preload","","","2","1","false","[]","[]","[]","","","","","",""
"","","","","","","","","","","","canvas-keyboard-response","195","506607","0.0-195.0","null","null","","","","","","","","","","","","","","fixation","","","2","1","","","","","","","","","",""
"","","","","","","","","","","","canvas-keyboard-response","196","506910","0.0-196.0","null","null","","","","","","","","","","","","","","stimulus","","","2","1","","","","","","","","","",""
"","","","","","","","","","","","canvas-button-response","197","509986","0.0-197.0","3073","train","","","","","","","","","","","","","","perceptual","","","2","1","","","","","8","house","6","0","0",""
"","","","","","","","","","","","canvas-button-response","198","510952","0.0-198.0","964","3","","","","","","","","","","","","","","confidence","","","2","1","","","","","","","","","","0"
"","","","","","","","","","","","preload","199","510953","0.0-199.0","","","","","true","","","","","","","","","","","preload","","","2","2","false","[]","[]","[]","","","","","",""
"","","","","","","","","","","","canvas-keyboard-response","200","511256","0.0-200.0","null","null","","","","","","","","","","","","","","fixation","","","2","2","","","","","","","","","",""
"","","","","","","","","","","","canvas-keyboard-response","201","511559","0.0-201.0","null","null","","","","","","","","","","","","","","stimulus","","","2","2","","","","","","","","","",""
"","","","","","","","","","","","canvas-button-response","202","519619","0.0-202.0","8058","house","","","","","","","","","","","","","","perceptual","","","2","2","","","","","33","house","10","0","1",""
"","","","","","","","","","","","canvas-button-response","203","520336","0.0-203.0","715","3","","","","","","","","","","","","","","confidence","","","2","2","","","","","","","","","","1"
"","","","","","","","","","","","preload","204","520338","0.0-204.0","","","","","true","","","","","","","","","","","preload","","","2","3","false","[]","[]","[]","","","","","",""
"","","","","","","","","","","","canvas-keyboard-response","205","520640","0.0-205.0","null","null","","","","","","","","","","","","","","fixation","","","2","3","","","","","","","","","",""
"","","","","","","","","","","","canvas-keyboard-response","206","520943","0.0-206.0","null","null","","","","","","","","","","","","","","stimulus","","","2","3","","","","","","","","","",""
"","","","","","","","","","","","canvas-button-response","207","526619","0.0-207.0","5673","phone","","","","","","","","","","","","","","perceptual","","","2","3","","","","","195","bridge","10","0","0",""
"","","","","","","","","","","","canvas-button-response","208","527452","0.0-208.0","831","3","","","","","","","","","","","","","","confidence","","","2","3","","","","","","","","","","1"
"","","","","","","","","","","","preload","209","527454","0.0-209.0","","","","","true","","","","","","","","","","","preload","","","2","4","false","[]","[]","[]","","","","","",""
"","","","","","","","","","","","canvas-keyboard-response","210","527757","0.0-210.0","null","null","","","","","","","","","","","","","","fixation","","","2","4","","","","","","","","","",""
"","","","","","","","","","","","canvas-keyboard-response","211","528060","0.0-211.0","null","null","","","","","","","","","","","","","","stimulus","","","2","4","","","","","","","","","",""
"","","","","","","","","","","","canvas-button-response","212","529318","0.0-212.0","1255","cat","","","","","","","","","","","","","","perceptual","","","2","4","","","","","103","phone","10","0","0",""
"","","","","","","","","","","","canvas-button-response","213","530435","0.0-213.0","1114","2","","","","","","","","","","","","","","confidence","","","2","4","","","","","","","","","","1"
"","","","","","","","","","","","preload","214","530436","0.0-214.0","","","","","true","","","","","","","","","","","preload","","","2","5","false","[]","[]","[]","","","","","",""
"","","","","","","","","","","","canvas-keyboard-response","215","530738","0.0-215.0","null","null","","","","","","","","","","","","","","fixation","","","2","5","","","","","","","","","",""
"","","","","","","","","","","","canvas-keyboard-response","216","531040","0.0-216.0","null","null","","","","","","","","","","","","","","stimulus","","","2","5","","","","","","","","","",""
"","","","","","","","","","","","canvas-button-response","217","532535","0.0-217.0","1492","train","","","","","","","","","","","","","","perceptual","","","2","5","","","","","390","knife","10","0","0",""
"","","","","","","","","","","","canvas-button-response","218","533803","0.0-218.0","1265","3","","","","","","","","","","","","","","confidence","","","2","5","","","","","","","","","","1"
"","","","","","","","","","","","preload","219","533804","0.0-219.0","","","","","true","","","","","","","","","","","preload","","","2","6","false","[]","[]","[]","","","","","",""
"","","","","","","","","","","","canvas-keyboard-response","220","534106","0.0-220.0","null","null","","","","","","","","","","","","","","fixation","","","2","6","","","","","","","","","",""
"","","","","","","","","","","","canvas-keyboard-response","221","534409","0.0-221.0","null","null","","","","","","","","","","","","","","stimulus","","","2","6","","","","","","","","","",""
"","","","","","","","","","","","canvas-button-response","222","537052","0.0-222.0","2640","bed","","","","","","","","","","","","","","perceptual","","","2","6","","","","","51","car","6","0","0",""
"","","","","","","","","","","","canvas-button-response","223","537901","0.0-223.0","847","2","","","","","","","","","","","","","","confidence","","","2","6","","","","","","","","","","1"
"","","","","","","","","","","","preload","224","537903","0.0-224.0","","","","","true","","","","","","","","","","","preload","","","2","7","false","[]","[]","[]","","","","","",""
"","","","","","","","","","","","canvas-keyboard-response","225","538205","0.0-225.0","null","null","","","","","","","","","","","","","","fixation","","","2","7","","","","","","","","","",""
"","","","","","","","","","","","canvas-keyboard-response","226","538507","0.0-226.0","null","null","","","","","","","","","","","","","","stimulus","","","2","7","","","","","","","","","",""
"","","","","","","","","","","","canvas-button-response","227","540452","0.0-227.0","1942","flower","","","","","","","","","","","","","","perceptual","","","2","7","","","","","261","train","10","0","0",""
"","","","","","","","","","","","canvas-button-response","228","541153","0.0-228.0","698","2","","","","","","","","","","","","","","confidence","","","2","7","","","","","","","","","","1"
"","","","","","","","","","","","preload","229","541154","0.0-229.0","","","","","true","","","","","","","","","","","preload","","","2","8","false","[]","[]","[]","","","","","",""
"","","","","","","","","","","","canvas-keyboard-response","230","541457","0.0-230.0","null","null","","","","","","","","","","","","","","fixation","","","2","8","","","","","","","","","",""
"","","","","","","","","","","","canvas-keyboard-response","231","541759","0.0-231.0","null","null","","","","","","","","","","","","","","stimulus","","","2","8","","","","","","","","","",""
"","","","","","","","","","","","canvas-button-response","232","544819","0.0-232.0","3057","bridge","","","","","","","","","","","","","","perceptual","","","2","8","","","","","112","phone","10","0","0",""
"","","","","","","","","","","","canvas-button-response","233","545902","0.0-233.0","1080","2","","","","","","","","","","","","","","confidence","","","2","8","","","","","","","","","","1"
"","","","","","","","","","","","preload","234","545903","0.0-234.0","","","","","true","","","","","","","","","","","preload","","","2","9","false","[]","[]","[]","","","","","",""
"","","","","","","","","","","","canvas-keyboard-response","235","546206","0.0-235.0","null","null","","","","","","","","","","","","","","fixation","","","2","9","","","","","","","","","",""
"","","","","","","","","","","","canvas-keyboard-response","236","546510","0.0-236.0","null","null","","","","","","","","","","","","","","stimulus","","","2","9","","","","","","","","","",""
"","","","","","","","","","","","canvas-button-response","237","547686","0.0-237.0","1173","house","","","","","","","","","","","","","","perceptual","","","2","9","","","","","160","bridge","6","0","0",""
"","","","","","","","","","","","canvas-button-response","238","548435","0.0-238.0","747","2","","","","","","","","","","","","","","confidence","","","2","9","","","","","","","","","","1"
"","","","","","","","","","","","preload","239","548436","0.0-239.0","","","","","true","","","","","","","","","","","preload","","","2","10","false","[]","[]","[]","","","","","",""
"","","","","","","","","","","","canvas-keyboard-response","240","548739","0.0-240.0","null","null","","","","","","","","","","","","","","fixation","","","2","10","","","","","","","","","",""
"","","","","","","","","","","","canvas-keyboard-response","241","549042","0.0-241.0","null","null","","","","","","","","","","","","","","stimulus","","","2","10","","","","","","","","","",""
"","","","","","","","","","","","canvas-button-response","242","553236","0.0-242.0","4191","bed","","","","","","","","","","","","","","perceptual","","","2","10","","","","","203","flower","6","0","0",""
"","","","","","","","","","","","canvas-button-response","243","554119","0.0-243.0","879","2","","","","","","","","","","","","","","confidence","","","2","10","","","","","","","","","","1"
"","","","","","","","","","","","preload","244","554120","0.0-244.0","","","","","true","","","","","","","","","","","preload","","","2","11","false","[]","[]","[]","","","","","",""
"","","","","","","","","","","","canvas-keyboard-response","245","554423","0.0-245.0","null","null","","","","","","","","","","","","","","fixation","","","2","11","","","","","","","","","",""
"","","","","","","","","","","","canvas-keyboard-response","246","554724","0.0-246.0","null","null","","","","","","","","","","","","","","stimulus","","","2","11","","","","","","","","","",""
"","","","","","","","","","","","canvas-button-response","247","556452","0.0-247.0","1726","knife","","","","","","","","","","","","","","perceptual","","","2","11","","","","","304","cat","10","0","0",""
"","","","","","","","","","","","canvas-button-response","248","557336","0.0-248.0","882","2","","","","","","","","","","","","","","confidence","","","2","11","","","","","","","","","","1"
"","","","","","","","","","","","preload","249","557338","0.0-249.0","","","","","true","","","","","","","","","","","preload","","","2","12","false","[]","[]","[]","","","","","",""
"","","","","","","","","","","","canvas-keyboard-response","250","557640","0.0-250.0","null","null","","","","","","","","","","","","","","fixation","","","2","12","","","","","","","","","",""
"","","","","","","","","","","","canvas-keyboard-response","251","557943","0.0-251.0","null","null","","","","","","","","","","","","","","stimulus","","","2","12","","","","","","","","","",""
"","","","","","","","","","","","canvas-button-response","252","561336","0.0-252.0","3390","train","","","","","","","","","","","","","","perceptual","","","2","12","","","","","194","bridge","10","0","0",""
"","","","","","","","","","","","canvas-button-response","253","562251","0.0-253.0","913","2","","","","","","","","","","","","","","confidence","","","2","12","","","","","","","","","","1"
"","","","","","","","","","","","preload","254","562253","0.0-254.0","","","","","true","","","","","","","","","","","preload","","","2","13","false","[]","[]","[]","","","","","",""
"","","","","","","","","","","","canvas-keyboard-response","255","562555","0.0-255.0","null","null","","","","","","","","","","","","","","fixation","","","2","13","","","","","","","","","",""
"","","","","","","","","","","","canvas-keyboard-response","256","562857","0.0-256.0","null","null","","","","","","","","","","","","","","stimulus","","","2","13","","","","","","","","","",""
"","","","","","","","","","","","canvas-button-response","257","564602","0.0-257.0","1742","elephant","","","","","","","","","","","","","","perceptual","","","2","13","","","","","247","train","6","0","0",""
"","","","","","","","","","","","canvas-button-response","258","565519","0.0-258.0","915","2","","","","","","","","","","","","","","confidence","","","2","13","","","","","","","","","","1"
"","","","","","","","","","","","preload","259","565520","0.0-259.0","","","","","true","","","","","","","","","","","preload","","","2","14","false","[]","[]","[]","","","","","",""
"","","","","","","","","","","","canvas-keyboard-response","260","565821","0.0-260.0","null","null","","","","","","","","","","","","","","fixation","","","2","14","","","","","","","","","",""
"","","","","","","","","","","","canvas-keyboard-response","261","566124","0.0-261.0","null","null","","","","","","","","","","","","","","stimulus","","","2","14","","","","","","","","","",""
"","","","","","","","","","","","canvas-button-response","262","567469","0.0-262.0","1341","knife","","","","","","","","","","","","","","perceptual","","","2","14","","","","","139","bed","6","0","0",""
"","","","","","","","","","","","canvas-button-response","263","568236","0.0-263.0","764","2","","","","","","","","","","","","","","confidence","","","2","14","","","","","","","","","","1"
"","","","","","","","","","","","preload","264","568238","0.0-264.0","","","","","true","","","","","","","","","","","preload","","","2","15","false","[]","[]","[]","","","","","",""
"","","","","","","","","","","","canvas-keyboard-response","265","568558","0.0-265.0","null","null","","","","","","","","","","","","","","fixation","","","2","15","","","","","","","","","",""
"","","","","","","","","","","","canvas-keyboard-response","266","568861","0.0-266.0","null","null","","","","","","","","","","","","","","stimulus","","","2","15","","","","","","","","","",""
"","","","","","","","","","","","canvas-button-response","267","571469","0.0-267.0","2605","train","","","","","","","","","","","","","","perceptual","","","2","15","","","","","288","cat","6","0","0",""
"","","","","","","","","","","","canvas-button-response","268","573086","0.0-268.0","1614","4","","","","","","","","","","","","","","confidence","","","2","15","","","","","","","","","","1"
"","","","","","","","","","","","preload","269","573088","0.0-269.0","","","","","true","","","","","","","","","","","preload","","","2","16","false","[]","[]","[]","","","","","",""
"","","","","","","","","","","","canvas-keyboard-response","270","573391","0.0-270.0","null","null","","","","","","","","","","","","","","fixation","","","2","16","","","","","","","","","",""
"","","","","","","","","","","","canvas-keyboard-response","271","573693","0.0-271.0","null","null","","","","","","","","","","","","","","stimulus","","","2","16","","","","","","","","","",""
"","","","","","","","","","","","canvas-button-response","272","574969","0.0-272.0","1272","house","","","","","","","","","","","","","","perceptual","","","2","16","","","","","344","elephant","10","0","0",""
"","","","","","","","","","","","canvas-button-response","273","575718","0.0-273.0","746","4","","","","","","","","","","","","","","confidence","","","2","16","","","","","","","","","","1"
"","","","","","","","","","","","preload","274","575719","0.0-274.0","","","","","true","","","","","","","","","","","preload","","","2","17","false","[]","[]","[]","","","","","",""
"","","","","","","","","","","","canvas-keyboard-response","275","576021","0.0-275.0","null","null","","","","","","","","","","","","","","fixation","","","2","17","","","","","","","","","",""
"","","","","","","","","","","","canvas-keyboard-response","276","576324","0.0-276.0","null","null","","","","","","","","","","","","","","stimulus","","","2","17","","","","","","","","","",""
"","","","","","","","","","","","canvas-button-response","277","577384","0.0-277.0","1057","house","","","","","","","","","","","","","","perceptual","","","2","17","","","","","177","bridge","6","0","0",""
"","","","","","","","","","","","canvas-button-response","278","578119","0.0-278.0","733","4","","","","","","","","","","","","","","confidence","","","2","17","","","","","","","","","","1"
"","","","","","","","","","","","preload","279","578120","0.0-279.0","","","","","true","","","","","","","","","","","preload","","","2","18","false","[]","[]","[]","","","","","",""
"","","","","","","","","","","","canvas-keyboard-response","280","578423","0.0-280.0","null","null","","","","","","","","","","","","","","fixation","","","2","18","","","","","","","","","",""
"","","","","","","","","","","","canvas-keyboard-response","281","578727","0.0-281.0","null","null","","","","","","","","","","","","","","stimulus","","","2","18","","","","","","","","","",""
"","","","","","","","","","","","canvas-button-response","282","588919","0.0-282.0","10189","cat","","","","","","","","","","","","","","perceptual","","","2","18","","","","","163","bridge","6","0","0",""
"","","","","","","","","","","","canvas-button-response","283","590236","0.0-283.0","1315","2","","","","","","","","","","","","","","confidence","","","2","18","","","","","","","","","","1"
"","","","","","","","","","","","preload","284","590237","0.0-284.0","","","","","true","","","","","","","","","","","preload","","","2","19","false","[]","[]","[]","","","","","",""
"","","","","","","","","","","","canvas-keyboard-response","285","590540","0.0-285.0","null","null","","","","","","","","","","","","","","fixation","","","2","19","","","","","","","","","",""
"","","","","","","","","","","","canvas-keyboard-response","286","590843","0.0-286.0","null","null","","","","","","","","","","","","","","stimulus","","","2","19","","","","","","","","","",""
"","","","","","","","","","","","canvas-button-response","287","593186","0.0-287.0","2340","phone","","","","","","","","","","","","","","perceptual","","","2","19","","","","","17","house","6","0","0",""
"","","","","","","","","","","","canvas-button-response","288","593903","0.0-288.0","714","4","","","","","","","","","","","","","","confidence","","","2","19","","","","","","","","","","1"
"","","","","","","","","","","","preload","289","593904","0.0-289.0","","","","","true","","","","","","","","","","","preload","","","2","20","false","[]","[]","[]","","","","","",""
"","","","","","","","","","","","canvas-keyboard-response","290","594207","0.0-290.0","null","null","","","","","","","","","","","","","","fixation","","","2","20","","","","","","","","","",""
"","","","","","","","","","","","canvas-keyboard-response","291","594511","0.0-291.0","null","null","","","","","","","","","","","","","","stimulus","","","2","20","","","","","","","","","",""
"","","","","","","","","","","","canvas-button-response","292","596986","0.0-292.0","2472","flower","","","","","","","","","","","","","","perceptual","","","2","20","","","","","213","flower","6","0","1",""
"","","","","","","","","","","","canvas-button-response","293","598320","0.0-293.0","1331","4","","","","","","","","","","","","","","confidence","","","2","20","","","","","","","","","","2"
"","","","","","","","","","","","preload","294","598321","0.0-294.0","","","","","true","","","","","","","","","","","preload","","","2","21","false","[]","[]","[]","","","","","",""
"","","","","","","","","","","","canvas-keyboard-response","295","598624","0.0-295.0","null","null","","","","","","","","","","","","","","fixation","","","2","21","","","","","","","","","",""
"","","","","","","","","","","","canvas-keyboard-response","296","598927","0.0-296.0","null","null","","","","","","","","","","","","","","stimulus","","","2","21","","","","","","","","","",""
"","","","","","","","","","","","canvas-button-response","297","600635","0.0-297.0","1704","car","","","","","","","","","","","","","","perceptual","","","2","21","","","","","355","elephant","10","0","0",""
"","","","","","","","","","","","canvas-button-response","298","601720","0.0-298.0","1083","4","","","","","","","","","","","","","","confidence","","","2","21","","","","","","","","","","2"
"","","","","","","","","","","","preload","299","601722","0.0-299.0","","","","","true","","","","","","","","","","","preload","","","2","22","false","[]","[]","[]","","","","","",""
"","","","","","","","","","","","canvas-keyboard-response","300","602025","0.0-300.0","null","null","","","","","","","","","","","","","","fixation","","","2","22","","","","","","","","","",""
"","","","","","","","","","","","canvas-keyboard-response","301","602328","0.0-301.0","null","null","","","","","","","","","","","","","","stimulus","","","2","22","","","","","","","","","",""
"","","","","","","","","","","","canvas-button-response","302","607218","0.0-302.0","4888","bridge","","","","","","","","","","","","","","perceptual","","","2","22","","","","","83","phone","6","0","0",""
"","","","","","","","","","","","canvas-button-response","303","607836","0.0-303.0","614","3","","","","","","","","","","","","","","confidence","","","2","22","","","","","","","","","","2"
"","","","","","","","","","","","preload","304","607837","0.0-304.0","","","","","true","","","","","","","","","","","preload","","","2","23","false","[]","[]","[]","","","","","",""
"","","","","","","","","","","","canvas-keyboard-response","305","608140","0.0-305.0","null","null","","","","","","","","","","","","","","fixation","","","2","23","","","","","","","","","",""
"","","","","","","","","","","","canvas-keyboard-response","306","608443","0.0-306.0","null","null","","","","","","","","","","","","","","stimulus","","","2","23","","","","","","","","","",""
"","","","","","","","","","","","canvas-button-response","307","611168","0.0-307.0","2722","car","","","","","","","","","","","","","","perceptual","","","2","23","","","","","320","elephant","6","0","0",""
"","","","","","","","","","","","canvas-button-response","308","611919","0.0-308.0","748","3","","","","","","","","","","","","","","confidence","","","2","23","","","","","","","","","","2"
"","","","","","","","","","","","preload","309","611920","0.0-309.0","","","","","true","","","","","","","","","","","preload","","","2","24","false","[]","[]","[]","","","","","",""
"","","","","","","","","","","","canvas-keyboard-response","310","612223","0.0-310.0","null","null","","","","","","","","","","","","","","fixation","","","2","24","","","","","","","","","",""
"","","","","","","","","","","","canvas-keyboard-response","311","612527","0.0-311.0","null","null","","","","","","","","","","","","","","stimulus","","","2","24","","","","","","","","","",""
"","","","","","","","","","","","canvas-button-response","312","618235","0.0-312.0","5706","elephant","","","","","","","","","","","","","","perceptual","","","2","24","","","","","130","bed","6","0","0",""
"","","","","","","","","","","","canvas-button-response","313","618953","0.0-313.0","715","3","","","","","","","","","","","","","","confidence","","","2","24","","","","","","","","","","2"
"","","","","","","","","","","","preload","314","618954","0.0-314.0","","","","","true","","","","","","","","","","","preload","","","2","25","false","[]","[]","[]","","","","","",""
"","","","","","","","","","","","canvas-keyboard-response","315","619258","0.0-315.0","null","null","","","","","","","","","","","","","","fixation","","","2","25","","","","","","","","","",""
"","","","","","","","","","","","canvas-keyboard-response","316","619560","0.0-316.0","null","null","","","","","","","","","","","","","","stimulus","","","2","25","","","","","","","","","",""
"","","","","","","","","","","","canvas-button-response","317","621286","0.0-317.0","1722","train","","","","","","","","","","","","","","perceptual","","","2","25","","","","","37","house","10","0","0",""
"","","","","","","","","","","","canvas-button-response","318","622519","0.0-318.0","1230","3","","","","","","","","","","","","","","confidence","","","2","25","","","","","","","","","","2"
"","","","","","","","","","","","preload","319","622521","0.0-319.0","","","","","true","","","","","","","","","","","preload","","","2","26","false","[]","[]","[]","","","","","",""
"","","","","","","","","","","","canvas-keyboard-response","320","622824","0.0-320.0","null","null","","","","","","","","","","","","","","fixation","","","2","26","","","","","","","","","",""
"","","","","","","","","","","","canvas-keyboard-response","321","623128","0.0-321.0","null","null","","","","","","","","","","","","","","stimulus","","","2","26","","","","","","","","","",""
"","","","","","","","","","","","canvas-button-response","322","625003","0.0-322.0","1872","flower","","","","","","","","","","","","","","perceptual","","","2","26","","","","","245","train","6","0","0",""
"","","","","","","","","","","","canvas-button-response","323","625969","0.0-323.0","963","2","","","","","","","","","","","","","","confidence","","","2","26","","","","","","","","","","2"
"","","","","","","","","","","","preload","324","625970","0.0-324.0","","","","","true","","","","","","","","","","","preload","","","2","27","false","[]","[]","[]","","","","","",""
"","","","","","","","","","","","canvas-keyboard-response","325","626272","0.0-325.0","null","null","","","","","","","","","","","","","","fixation","","","2","27","","","","","","","","","",""
"","","","","","","","","","","","canvas-keyboard-response","326","626576","0.0-326.0","null","null","","","","","","","","","","","","","","stimulus","","","2","27","","","","","","","","","",""
"","","","","","","","","","","","canvas-button-response","327","627869","0.0-327.0","1290","bridge","","","","","","","","","","","","","","perceptual","","","2","27","","","","","291","cat","6","0","0",""
"","","","","","","","","","","","canvas-button-response","328","628702","0.0-328.0","831","3","","","","","","","","","","","","","","confidence","","","2","27","","","","","","","","","","2"
"","","","","","","","","","","","preload","329","628704","0.0-329.0","","","","","true","","","","","","","","","","","preload","","","2","28","false","[]","[]","[]","","","","","",""
"","","","","","","","","","","","canvas-keyboard-response","330","629006","0.0-330.0","null","null","","","","","","","","","","","","","","fixation","","","2","28","","","","","","","","","",""
"","","","","","","","","","","","canvas-keyboard-response","331","629309","0.0-331.0","null","null","","","","","","","","","","","","","","stimulus","","","2","28","","","","","","","","","",""
"","","","","","","","","","","","canvas-button-response","332","647119","0.0-332.0","17807","bridge","","","","","","","","","","","","","","perceptual","","","2","28","","","","","225","flower","10","0","0",""
"","","","","","","","","","","","canvas-button-response","333","651619","0.0-333.0","4498","1","","","","","","","","","","","","","","confidence","","","2","28","","","","","","","","","","2"
"","","","","","","","","","","","preload","334","651621","0.0-334.0","","","","","true","","","","","","","","","","","preload","","","2","29","false","[]","[]","[]","","","","","",""
"","","","","","","","","","","","canvas-keyboard-response","335","651923","0.0-335.0","null","null","","","","","","","","","","","","","","fixation","","","2","29","","","","","","","","","",""
"","","","","","","","","","","","canvas-keyboard-response","336","652226","0.0-336.0","null","null","","","","","","","","","","","","","","stimulus","","","2","29","","","","","","","","","",""
"","","","","","","","","","","","canvas-button-response","337","654118","0.0-337.0","1889","bed","","","","","","","","","","","","","","perceptual","","","2","29","","","","","164","bridge","6","0","0",""
"","","","","","","","","","","","canvas-button-response","338","654835","0.0-338.0","714","1","","","","","","","","","","","","","","confidence","","","2","29","","","","","","","","","","2"
"","","","","","","","","","","","preload","339","654837","0.0-339.0","","","","","true","","","","","","","","","","","preload","","","2","30","false","[]","[]","[]","","","","","",""
"","","","","","","","","","","","canvas-keyboard-response","340","655139","0.0-340.0","null","null","","","","","","","","","","","","","","fixation","","","2","30","","","","","","","","","",""
"","","","","","","","","","","","canvas-keyboard-response","341","655443","0.0-341.0","null","null","","","","","","","","","","","","","","stimulus","","","2","30","","","","","","","","","",""
"","","","","","","","","","","","canvas-button-response","342","658936","0.0-342.0","3490","house","","","","","","","","","","","","","","perceptual","","","2","30","","","","","342","elephant","10","0","0",""
"","","","","","","","","","","","canvas-button-response","343","659901","0.0-343.0","963","1","","","","","","","","","","","","","","confidence","","","2","30","","","","","","","","","","2"
"","","","","","","","","","","","preload","344","659903","0.0-344.0","","","","","true","","","","","","","","","","","preload","","","2","31","false","[]","[]","[]","","","","","",""
"","","","","","","","","","","","canvas-keyboard-response","345","660206","0.0-345.0","null","null","","","","","","","","","","","","","","fixation","","","2","31","","","","","","","","","",""
"","","","","","","","","","","","canvas-keyboard-response","346","660509","0.0-346.0","null","null","","","","","","","","","","","","","","stimulus","","","2","31","","","","","","","","","",""
"","","","","","","","","","","","canvas-button-response","347","663969","0.0-347.0","3457","house","","","","","","","","","","","","","","perceptual","","","2","31","","","","","244","train","6","0","0",""
"","","","","","","","","","","","canvas-button-response","348","664952","0.0-348.0","980","2","","","","","","","","","","","","","","confidence","","","2","31","","","","","","","","","","2"
"","","","","","","","","","","","preload","349","664953","0.0-349.0","","","","","true","","","","","","","","","","","preload","","","2","32","false","[]","[]","[]","","","","","",""
"","","","","","","","","","","","canvas-keyboard-response","350","665257","0.0-350.0","null","null","","","","","","","","","","","","","","fixation","","","2","32","","","","","","","","","",""
"","","","","","","","","","","","canvas-keyboard-response","351","665560","0.0-351.0","null","null","","","","","","","","","","","","","","stimulus","","","2","32","","","","","","","","","",""
"","","","","","","","","","","","canvas-button-response","352","668535","0.0-352.0","2972","bed","","","","","","","","","","","","","","perceptual","","","2","32","","","","","186","bridge","10","0","0",""
"","","","","","","","","","","","canvas-button-response","353","669152","0.0-353.0","614","2","","","","","","","","","","","","","","confidence","","","2","32","","","","","","","","","","2"
"","","","","","","","","","","","preload","354","669154","0.0-354.0","","","","","true","","","","","","","","","","","preload","","","2","33","false","[]","[]","[]","","","","","",""
"","","","","","","","","","","","canvas-keyboard-response","355","669456","0.0-355.0","null","null","","","","","","","","","","","","","","fixation","","","2","33","","","","","","","","","",""
"","","","","","","","","","","","canvas-keyboard-response","356","669759","0.0-356.0","null","null","","","","","","","","","","","","","","stimulus","","","2","33","","","","","","","","","",""
"","","","","","","","","","","","canvas-button-response","357","670869","0.0-357.0","1107","car","","","","","","","","","","","","","","perceptual","","","2","33","","","","","64","car","10","0","1",""
"","","","","","","","","","","","canvas-button-response","358","671819","0.0-358.0","947","4","","","","","","","","","","","","","","confidence","","","2","33","","","","","","","","","","3"
"","","","","","","","","","","","preload","359","671820","0.0-359.0","","","","","true","","","","","","","","","","","preload","","","2","34","false","[]","[]","[]","","","","","",""
"","","","","","","","","","","","canvas-keyboard-response","360","672123","0.0-360.0","null","null","","","","","","","","","","","","","","fixation","","","2","34","","","","","","","","","",""
"","","","","","","","","","","","canvas-keyboard-response","361","672426","0.0-361.0","null","null","","","","","","","","","","","","","","stimulus","","","2","34","","","","","","","","","",""
"","","","","","","","","","","","canvas-button-response","362","673419","0.0-362.0","990","flower","","","","","","","","","","","","","","perceptual","","","2","34","","","","","222","flower","10","0","1",""
"","","","","","","","","","","","canvas-button-response","363","674453","0.0-363.0","1030","2","","","","","","","","","","","","","","confidence","","","2","34","","","","","","","","","","4"
"","","","","","","","","","","","preload","364","674454","0.0-364.0","","","","","true","","","","","","","","","","","preload","","","2","35","false","[]","[]","[]","","","","","",""
"","","","","","","","","","","","canvas-keyboard-response","365","674757","0.0-365.0","null","null","","","","","","","","","","","","","","fixation","","","2","35","","","","","","","","","",""
"","","","","","","","","","","","canvas-keyboard-response","366","675060","0.0-366.0","null","null","","","","","","","","","","","","","","stimulus","","","2","35","","","","","","","","","",""
"","","","","","","","","","","","canvas-button-response","367","676419","0.0-367.0","1356","house","","","","","","","","","","","","","","perceptual","","","2","35","","","","","4","house","6","0","1",""
"","","","","","","","","","","","canvas-button-response","368","677269","0.0-368.0","848","2","","","","","","","","","","","","","","confidence","","","2","35","","","","","","","","","","5"
"","","","","","","","","","","","preload","369","677270","0.0-369.0","","","","","true","","","","","","","","","","","preload","","","2","36","false","[]","[]","[]","","","","","",""
"","","","","","","","","","","","canvas-keyboard-response","370","677574","0.0-370.0","null","null","","","","","","","","","","","","","","fixation","","","2","36","","","","","","","","","",""
"","","","","","","","","","","","canvas-keyboard-response","371","677877","0.0-371.0","null","null","","","","","","","","","","","","","","stimulus","","","2","36","","","","","","","","","",""
"","","","","","","","","","","","canvas-button-response","372","679102","0.0-372.0","1222","cat","","","","","","","","","","","","","","perceptual","","","2","36","","","","","119","phone","10","0","0",""
"","","","","","","","","","","","canvas-button-response","373","680435","0.0-373.0","1330","2","","","","","","","","","","","","","","confidence","","","2","36","","","","","","","","","","5"
"","","","","","","","","","","","preload","374","680437","0.0-374.0","","","","","true","","","","","","","","","","","preload","","","2","37","false","[]","[]","[]","","","","","",""
"","","","","","","","","","","","canvas-keyboard-response","375","680740","0.0-375.0","null","null","","","","","","","","","","","","","","fixation","","","2","37","","","","","","","","","",""
"","","","","","","","","","","","canvas-keyboard-response","376","681043","0.0-376.0","null","null","","","","","","","","","","","","","","stimulus","","","2","37","","","","","","","","","",""
"","","","","","","","","","","","canvas-button-response","377","683852","0.0-377.0","2806","bed","","","","","","","","","","","","","","perceptual","","","2","37","","","","","218","flower","6","0","0",""
"","","","","","","","","","","","canvas-button-response","378","684885","0.0-378.0","1031","2","","","","","","","","","","","","","","confidence","","","2","37","","","","","","","","","","5"
"","","","","","","","","","","","preload","379","684887","0.0-379.0","","","","","true","","","","","","","","","","","preload","","","2","38","false","[]","[]","[]","","","","","",""
"","","","","","","","","","","","canvas-keyboard-response","380","685190","0.0-380.0","null","null","","","","","","","","","","","","","","fixation","","","2","38","","","","","","","","","",""
"","","","","","","","","","","","canvas-keyboard-response","381","685493","0.0-381.0","null","null","","","","","","","","","","","","","","stimulus","","","2","38","","","","","","","","","",""
"","","","","","","","","","","","canvas-button-response","382","687636","0.0-382.0","2140","knife","","","","","","","","","","","","","","perceptual","","","2","38","","","","","300","cat","10","0","0",""
"","","","","","","","","","","","canvas-button-response","383","688519","0.0-383.0","880","2","","","","","","","","","","","","","","confidence","","","2","38","","","","","","","","","","5"
"","","","","","","","","","","","preload","384","688520","0.0-384.0","","","","","true","","","","","","","","","","","preload","","","2","39","false","[]","[]","[]","","","","","",""
"","","","","","","","","","","","canvas-keyboard-response","385","688823","0.0-385.0","null","null","","","","","","","","","","","","","","fixation","","","2","39","","","","","","","","","",""
"","","","","","","","","","","","canvas-keyboard-response","386","689127","0.0-386.0","null","null","","","","","","","","","","","","","","stimulus","","","2","39","","","","","","","","","",""
"","","","","","","","","","","","canvas-button-response","387","690202","0.0-387.0","1072","house","","","","","","","","","","","","","","perceptual","","","2","39","","","","","199","bridge","10","0","0",""
"","","","","","","","","","","","canvas-button-response","388","691036","0.0-388.0","831","2","","","","","","","","","","","","","","confidence","","","2","39","","","","","","","","","","5"
"","","","","","","","","","","","preload","389","691037","0.0-389.0","","","","","true","","","","","","","","","","","preload","","","2","40","false","[]","[]","[]","","","","","",""
"","","","","","","","","","","","canvas-keyboard-response","390","691339","0.0-390.0","null","null","","","","","","","","","","","","","","fixation","","","2","40","","","","","","","","","",""
"","","","","","","","","","","","canvas-keyboard-response","391","691643","0.0-391.0","null","null","","","","","","","","","","","","","","stimulus","","","2","40","","","","","","","","","",""
"","","","","","","","","","","","canvas-button-response","392","694469","0.0-392.0","2823","cat","","","","","","","","","","","","","","perceptual","","","2","40","","","","","368","knife","6","0","0",""
"","","","","","","","","","","","canvas-button-response","393","696402","0.0-393.0","1931","0","","","","","","","","","","","","","","confidence","","","2","40","","","","","","","","","","5"
"","","","","","","","","","","","preload","394","696404","0.0-394.0","","","","","true","","","","","","","","","","","preload","","","2","41","false","[]","[]","[]","","","","","",""
"","","","","","","","","","","","canvas-keyboard-response","395","696706","0.0-395.0","null","null","","","","","","","","","","","","","","fixation","","","2","41","","","","","","","","","",""
"","","","","","","","","","","","canvas-keyboard-response","396","697009","0.0-396.0","null","null","","","","","","","","","","","","","","stimulus","","","2","41","","","","","","","","","",""
"","","","","","","","","","","","canvas-button-response","397","699235","0.0-397.0","2223","bridge","","","","","","","","","","","","","","perceptual","","","2","41","","","","","395","knife","10","0","0",""
"","","","","","","","","","","","canvas-button-response","398","700636","0.0-398.0","1398","2","","","","","","","","","","","","","","confidence","","","2","41","","","","","","","","","","5"
"","","","","","","","","","","","preload","399","700637","0.0-399.0","","","","","true","","","","","","","","","","","preload","","","2","42","false","[]","[]","[]","","","","","",""
"","","","","","","","","","","","canvas-keyboard-response","400","700940","0.0-400.0","null","null","","","","","","","","","","","","","","fixation","","","2","42","","","","","","","","","",""
"","","","","","","","","","","","canvas-keyboard-response","401","701243","0.0-401.0","null","null","","","","","","","","","","","","","","stimulus","","","2","42","","","","","","","","","",""
"","","","","","","","","","","","canvas-button-response","402","702669","0.0-402.0","1422","elephant","","","","","","","","","","","","","","perceptual","","","2","42","","","","","189","bridge","10","0","0",""
"","","","","","","","","","","","canvas-button-response","403","703451","0.0-403.0","780","2","","","","","","","","","","","","","","confidence","","","2","42","","","","","","","","","","5"
"","","","","","","","","","","","preload","404","703452","0.0-404.0","","","","","true","","","","","","","","","","","preload","","","2","43","false","[]","[]","[]","","","","","",""
"","","","","","","","","","","","canvas-keyboard-response","405","703756","0.0-405.0","null","null","","","","","","","","","","","","","","fixation","","","2","43","","","","","","","","","",""
"","","","","","","","","","","","canvas-keyboard-response","406","704059","0.0-406.0","null","null","","","","","","","","","","","","","","stimulus","","","2","43","","","","","","","","","",""
"","","","","","","","","","","","canvas-button-response","407","705402","0.0-407.0","1341","bed","","","","","","","","","","","","","","perceptual","","","2","43","","","","","21","house","10","0","0",""
"","","","","","","","","","","","canvas-button-response","408","706236","0.0-408.0","831","2","","","","","","","","","","","","","","confidence","","","2","43","","","","","","","","","","5"
"","","","","","","","","","","","preload","409","706237","0.0-409.0","","","","","true","","","","","","","","","","","preload","","","2","44","false","[]","[]","[]","","","","","",""
"","","","","","","","","","","","canvas-keyboard-response","410","706541","0.0-410.0","null","null","","","","","","","","","","","","","","fixation","","","2","44","","","","","","","","","",""
"","","","","","","","","","","","canvas-keyboard-response","411","706844","0.0-411.0","null","null","","","","","","","","","","","","","","stimulus","","","2","44","","","","","","","","","",""
"","","","","","","","","","","","canvas-button-response","412","707785","0.0-412.0","939","bed","","","","","","","","","","","","","","perceptual","","","2","44","","","","","123","bed","6","0","1",""
"","","","","","","","","","","","canvas-button-response","413","708302","0.0-413.0","513","2","","","","","","","","","","","","","","confidence","","","2","44","","","","","","","","","","6"
"","","","","","","","","","","","preload","414","708303","0.0-414.0","","","","","true","","","","","","","","","","","preload","","","2","45","false","[]","[]","[]","","","","","",""
"","","","","","","","","","","","canvas-keyboard-response","415","708606","0.0-415.0","null","null","","","","","","","","","","","","","","fixation","","","2","45","","","","","","","","","",""
"","","","","","","","","","","","canvas-keyboard-response","416","708909","0.0-416.0","null","null","","","","","","","","","","","","","","stimulus","","","2","45","","","","","","","","","",""
"","","","","","","","","","","","canvas-button-response","417","711502","0.0-417.0","2590","house","","","","","","","","","","","","","","perceptual","","","2","45","","","","","176","bridge","6","0","0",""
"","","","","","","","","","","","canvas-button-response","418","712552","0.0-418.0","1047","4","","","","","","","","","","","","","","confidence","","","2","45","","","","","","","","","","6"
"","","","","","","","","","","","preload","419","712553","0.0-419.0","","","","","true","","","","","","","","","","","preload","","","2","46","false","[]","[]","[]","","","","","",""
"","","","","","","","","","","","canvas-keyboard-response","420","712856","0.0-420.0","null","null","","","","","","","","","","","","","","fixation","","","2","46","","","","","","","","","",""
"","","","","","","","","","","","canvas-keyboard-response","421","713159","0.0-421.0","null","null","","","","","","","","","","","","","","stimulus","","","2","46","","","","","","","","","",""
"","","","","","","","","","","","canvas-button-response","422","714819","0.0-422.0","1657","phone","","","","","","","","","","","","","","perceptual","","","2","46","","","","","349","elephant","10","0","0",""
"","","","","","","","","","","","canvas-button-response","423","715635","0.0-423.0","814","2","","","","","","","","","","","","","","confidence","","","2","46","","","","","","","","","","6"
"","","","","","","","","","","","preload","424","715637","0.0-424.0","","","","","true","","","","","","","","","","","preload","","","2","47","false","[]","[]","[]","","","","","",""
"","","","","","","","","","","","canvas-keyboard-response","425","715939","0.0-425.0","null","null","","","","","","","","","","","","","","fixation","","","2","47","","","","","","","","","",""
"","","","","","","","","","","","canvas-keyboard-response","426","716243","0.0-426.0","null","null","","","","","","","","","","","","","","stimulus","","","2","47","","","","","","","","","",""
"","","","","","","","","","","","canvas-button-response","427","718903","0.0-427.0","2656","knife","","","","","","","","","","","","","","perceptual","","","2","47","","","","","374","knife","6","0","1",""
"","","","","","","","","","","","canvas-button-response","428","719552","0.0-428.0","646","2","","","","","","","","","","","","","","confidence","","","2","47","","","","","","","","","","7"
"","","","","","","","","","","","preload","429","719553","0.0-429.0","","","","","true","","","","","","","","","","","preload","","","2","48","false","[]","[]","[]","","","","","",""
"","","","","","","","","","","","canvas-keyboard-response","430","719856","0.0-430.0","null","null","","","","","","","","","","","","","","fixation","","","2","48","","","","","","","","","",""
"","","","","","","","","","","","canvas-keyboard-response","431","720159","0.0-431.0","null","null","","","","","","","","","","","","","","stimulus","","","2","48","","","","","","","","","",""
"","","","","","","","","","","","canvas-button-response","432","721052","0.0-432.0","890","bridge","","","","","","","","","","","","","","perceptual","","","2","48","","","","","278","train","10","0","0",""
"","","","","","","","","","","","canvas-button-response","433","721702","0.0-433.0","647","2","","","","","","","","","","","","","","confidence","","","2","48","","","","","","","","","","7"
"","","","","","","","","","","","preload","434","721703","0.0-434.0","","","","","true","","","","","","","","","","","preload","","","2","49","false","[]","[]","[]","","","","","",""
"","","","","","","","","","","","canvas-keyboard-response","435","722006","0.0-435.0","null","null","","","","","","","","","","","","","","fixation","","","2","49","","","","","","","","","",""
"","","","","","","","","","","","canvas-keyboard-response","436","722309","0.0-436.0","null","null","","","","","","","","","","","","","","stimulus","","","2","49","","","","","","","","","",""
"","","","","","","","","","","","canvas-button-response","437","723201","0.0-437.0","889","car","","","","","","","","","","","","","","perceptual","","","2","49","","","","","137","bed","6","0","0",""
"","","","","","","","","","","","canvas-button-response","438","724151","0.0-438.0","948","2","","","","","","","","","","","","","","confidence","","","2","49","","","","","","","","","","7"
"","","","","","","","","","","","html-button-response","439","728102","0.0-439.0","3949","0","","","","","","","","","","","","","","<p style=""font-size:20px;color:#000000"">You got 7 out of 50 trials correct in this block.<br><br>You have completed 6% of the experiment.<br><br>Take a short break.<br><br>When you are ready, click Continue to proceed.","","","2","49","","","","","","","","","",""
"","","","","","","","","","","","html-keyboard-response","440","729106","0.0-440.0","null","null","","","","","","","","","","","","","","<p style=""font-size:32px;color:#000000""><br><br> RUN: &nbsp 1/4 <br><br> BLOCK: 2/4 ","","","2","49","","","","","","","","","",""
"","","","","","","","","","","","preload","441","729107","0.0-441.0","","","","","true","","","","","","","","","","","preload","","","2","50","false","[]","[]","[]","","","","","",""
"","","","","","","","","","","","canvas-keyboard-response","442","729411","0.0-442.0","null","null","","","","","","","","","","","","","","fixation","","","2","50","","","","","","","","","",""
"","","","","","","","","","","","canvas-keyboard-response","443","729714","0.0-443.0","null","null","","","","","","","","","","","","","","stimulus","","","2","50","","","","","","","","","",""
"","","","","","","","","","","","canvas-button-response","444","732419","0.0-444.0","2702","house","","","","","","","","","","","","","","perceptual","","","2","50","","","","","264","train","10","0","0",""
"","","","","","","","","","","","canvas-button-response","445","733419","0.0-445.0","997","2","","","","","","","","","","","","","","confidence","","","2","50","","","","","","","","","","0"
"","","","","","","","","","","","preload","446","733420","0.0-446.0","","","","","true","","","","","","","","","","","preload","","","2","51","false","[]","[]","[]","","","","","",""
"","","","","","","","","","","","canvas-keyboard-response","447","733723","0.0-447.0","null","null","","","","","","","","","","","","","","fixation","","","2","51","","","","","","","","","",""
"","","","","","","","","","","","canvas-keyboard-response","448","734026","0.0-448.0","null","null","","","","","","","","","","","","","","stimulus","","","2","51","","","","","","","","","",""
"","","","","","","","","","","","canvas-button-response","449","734936","0.0-449.0","907","car","","","","","","","","","","","","","","perceptual","","","2","51","","","","","46","car","6","0","1",""
"","","","","","","","","","","","canvas-button-response","450","735652","0.0-450.0","713","2","","","","","","","","","","","","","","confidence","","","2","51","","","","","","","","","","1"
"","","","","","","","","","","","preload","451","735653","0.0-451.0","","","","","true","","","","","","","","","","","preload","","","2","52","false","[]","[]","[]","","","","","",""
"","","","","","","","","","","","canvas-keyboard-response","452","735956","0.0-452.0","null","null","","","","","","","","","","","","","","fixation","","","2","52","","","","","","","","","",""
"","","","","","","","","","","","canvas-keyboard-response","453","736258","0.0-453.0","null","null","","","","","","","","","","","","","","stimulus","","","2","52","","","","","","","","","",""
"","","","","","","","","","","","canvas-button-response","454","737119","0.0-454.0","858","car","","","","","","","","","","","","","","perceptual","","","2","52","","","","","191","bridge","10","0","0",""
"","","","","","","","","","","","canvas-button-response","455","737669","0.0-455.0","547","2","","","","","","","","","","","","","","confidence","","","2","52","","","","","","","","","","1"
"","","","","","","","","","","","preload","456","737670","0.0-456.0","","","","","true","","","","","","","","","","","preload","","","2","53","false","[]","[]","[]","","","","","",""
"","","","","","","","","","","","canvas-keyboard-response","457","737973","0.0-457.0","null","null","","","","","","","","","","","","","","fixation","","","2","53","","","","","","","","","",""
"","","","","","","","","","","","canvas-keyboard-response","458","738275","0.0-458.0","null","null","","","","","","","","","","","","","","stimulus","","","2","53","","","","","","","","","",""
"","","","","","","","","","","","canvas-button-response","459","739052","0.0-459.0","774","bridge","","","","","","","","","","","","","","perceptual","","","2","53","","","","","292","cat","6","0","0",""
"","","","","","","","","","","","canvas-button-response","460","739519","0.0-460.0","464","2","","","","","","","","","","","","","","confidence","","","2","53","","","","","","","","","","1"
"","","","","","","","","","","","preload","461","739520","0.0-461.0","","","","","true","","","","","","","","","","","preload","","","2","54","false","[]","[]","[]","","","","","",""
"","","","","","","","","","","","canvas-keyboard-response","462","739824","0.0-462.0","null","null","","","","","","","","","","","","","","fixation","","","2","54","","","","","","","","","",""
"","","","","","","","","","","","canvas-keyboard-response","463","740126","0.0-463.0","null","null","","","","","","","","","","","","","","stimulus","","","2","54","","","","","","","","","",""
"","","","","","","","","","","","canvas-button-response","464","740935","0.0-464.0","806","car","","","","","","","","","","","","","","perceptual","","","2","54","","","","","65","car","10","0","1",""
"","","","","","","","","","","","canvas-button-response","465","741385","0.0-465.0","447","2","","","","","","","","","","","","","","confidence","","","2","54","","","","","","","","","","2"
"","","","","","","","","","","","preload","466","741387","0.0-466.0","","","","","true","","","","","","","","","","","preload","","","2","55","false","[]","[]","[]","","","","","",""
"","","","","","","","","","","","canvas-keyboard-response","467","741690","0.0-467.0","null","null","","","","","","","","","","","","","","fixation","","","2","55","","","","","","","","","",""
"","","","","","","","","","","","canvas-keyboard-response","468","741993","0.0-468.0","null","null","","","","","","","","","","","","","","stimulus","","","2","55","","","","","","","","","",""
"","","","","","","","","","","","canvas-button-response","469","742802","0.0-469.0","806","cat","","","","","","","","","","","","","","perceptual","","","2","55","","","","","343","elephant","10","0","0",""
"","","","","","","","","","","","canvas-button-response","470","743352","0.0-470.0","548","2","","","","","","","","","","","","","","confidence","","","2","55","","","","","","","","","","2"
"","","","","","","","","","","","preload","471","743354","0.0-471.0","","","","","true","","","","","","","","","","","preload","","","2","56","false","[]","[]","[]","","","","","",""
"","","","","","","","","","","","canvas-keyboard-response","472","743656","0.0-472.0","null","null","","","","","","","","","","","","","","fixation","","","2","56","","","","","","","","","",""
"","","","","","","","","","","","canvas-keyboard-response","473","743960","0.0-473.0","null","null","","","","","","","","","","","","","","stimulus","","","2","56","","","","","","","","","",""
"","","","","","","","","","","","canvas-button-response","474","744719","0.0-474.0","756","flower","","","","","","","","","","","","","","perceptual","","","2","56","","","","","219","flower","6","0","1",""
"","","","","","","","","","","","canvas-button-response","475","745102","0.0-475.0","380","2","","","","","","","","","","","","","","confidence","","","2","56","","","","","","","","","","3"
"","","","","","","","","","","","preload","476","745103","0.0-476.0","","","","","true","","","","","","","","","","","preload","","","2","57","false","[]","[]","[]","","","","","",""
"","","","","","","","","","","","canvas-keyboard-response","477","745406","0.0-477.0","null","null","","","","","","","","","","","","","","fixation","","","2","57","","","","","","","","","",""
"","","","","","","","","","","","canvas-keyboard-response","478","745709","0.0-478.0","null","null","","","","","","","","","","","","","","stimulus","","","2","57","","","","","","","","","",""
"","","","","","","","","","","","canvas-button-response","479","746701","0.0-479.0","989","car","","","","","","","","","","","","","","perceptual","","","2","57","","","","","154","bed","10","0","0",""
"","","","","","","","","","","","canvas-button-response","480","748018","0.0-480.0","1314","4","","","","","","","","","","","","","","confidence","","","2","57","","","","","","","","","","3"
"","","","","","","","","","","","preload","481","748020","0.0-481.0","","","","","true","","","","","","","","","","","preload","","","2","58","false","[]","[]","[]","","","","","",""
"","","","","","","","","","","","canvas-keyboard-response","482","748322","0.0-482.0","null","null","","","","","","","","","","","","","","fixation","","","2","58","","","","","","","","","",""
"","","","","","","","","","","","canvas-keyboard-response","483","748625","0.0-483.0","null","null","","","","","","","","","","","","","","stimulus","","","2","58","","","","","","","","","",""
"","","","","","","","","","","","canvas-button-response","484","750135","0.0-484.0","1506","bridge","","","","","","","","","","","","","","perceptual","","","2","58","","","","","322","elephant","6","0","0",""
"","","","","","","","","","","","canvas-button-response","485","750752","0.0-485.0","615","4","","","","","","","","","","","","","","confidence","","","2","58","","","","","","","","","","3"
"","","","","","","","","","","","preload","486","750753","0.0-486.0","","","","","true","","","","","","","","","","","preload","","","2","59","false","[]","[]","[]","","","","","",""
"","","","","","","","","","","","canvas-keyboard-response","487","751055","0.0-487.0","null","null","","","","","","","","","","","","","","fixation","","","2","59","","","","","","","","","",""
"","","","","","","","","","","","canvas-keyboard-response","488","751358","0.0-488.0","null","null","","","","","","","","","","","","","","stimulus","","","2","59","","","","","","","","","",""
"","","","","","","","","","","","canvas-button-response","489","752835","0.0-489.0","1474","elephant","","","","","","","","","","","","","","perceptual","","","2","59","","","","","43","car","6","0","0",""
"","","","","","","","","","","","canvas-button-response","490","753435","0.0-490.0","597","3","","","","","","","","","","","","","","confidence","","","2","59","","","","","","","","","","3"
"","","","","","","","","","","","preload","491","753437","0.0-491.0","","","","","true","","","","","","","","","","","preload","","","2","60","false","[]","[]","[]","","","","","",""
"","","","","","","","","","","","canvas-keyboard-response","492","753739","0.0-492.0","null","null","","","","","","","","","","","","","","fixation","","","2","60","","","","","","","","","",""
