"width","height","webaudio","browser","browser_version","mobile","os","fullscreen","vsync_rate","webcam","microphone","trial_type","trial_index","time_elapsed","internal_node_id","rt","response","accuracy","view_history","success","item_width_mm","item_height_mm","item_width_px","px2mm","view_dist_mm","item_width_deg","px2deg","scale_factor","win_width_deg","win_height_deg","stimulus","datetime","subjectID","curr_triallist","trial_no","timeout","failed_images","failed_audio","failed_video","image_index","category","blur","reps","correct","running_score"
"1729","872","true","chrome","140.0.0","false","Mac OS","true","120.22","true","true","browser-check","0","504","0.0-0.0","","","","","","","","","","","","","","","","","","","","","","","","","","","","","",""
"","","","","","","","","","","","survey","1","22908","0.0-1.0","22373","{""P0_Q0"":""904103305"",""P0_Q1"":""18"",""P1_Q0"":""Female"",""P1_Q1"":""Not Hispanic or Latino"",""P1_Q2"":""Asian"",""P1_Q3"":""Corrected-to-Normal (using glasses/contacts)"",""P1_Q4"":""Right-Handed""}","[]","","","","","","","","","","","","","","","","","","","","","","","","","","",""
"","","","","","","","","","","","instructions","2","96735","0.0-2.0","73827","","","[{""page_index"":0,""viewing_time"":12836},{""page_index"":1,""viewing_time"":23776},{""page_index"":2,""viewing_time"":8195},{""page_index"":3,""viewing_time"":29021}]","","","","","","","","","","","","","","","","","","","","","","","","","",""
"","","","","","","","","","","","fullscreen","3","99415","0.0-3.0","1675","","","","true","","","","","","","","","","","","","","","","","","","","","","","","",""
"","","","","","","","","","","","virtual-chinrest","4","165295","0.0-4.0","65879","","","","","85.6","53.98","236.44911287312243","2.7604318601932927","621.29","7.881637095770747","30","1.7931976772842306","57.6","36.13333333333333","","","","","","","","","","","","","","",""
"","","","","","","","","","","","instructions","5","286041","0.0-5.0","120747","","","[{""page_index"":0,""viewing_time"":7684},{""page_index"":1,""viewing_time"":3320},{""page_index"":2,""viewing_time"":5508},{""page_index"":3,""viewing_time"":4493},{""page_index"":4,""viewing_time"":6237},{""page_index"":5,""viewing_time"":89369},{""page_index"":6,""viewing_time"":2297},{""page_index"":5,""viewing_time"":1147},{""page_index"":6,""viewing_time"":692}]","","","","","","","","","","","","","","","","","","","","","","","","","",""
"","","","","","","","","","","","html-button-response","6","290697","0.0-6.0","4654","0","","","","","","","","","","","","","","start_practice","Tue Oct 14 2025 16:33:19 GMT-0400 (Eastern Daylight Time)","27227","","","","","","","","","","","",""
"","","","","","","","","","","","preload","7","290698","0.0-7.0","","","","","true","","","","","","","","","","","preload","","","0","0","false","[]","[]","[]","","","","","",""
"","","","","","","","","","","","canvas-keyboard-response","8","291002","0.0-8.0","null","null","","","","","","","","","","","","","","fixation","","","0","0","","","","","","","","","",""
"","","","","","","","","","","","canvas-keyboard-response","9","291304","0.0-9.0","null","null","","","","","","","","","","","","","","stimulus","","","0","0","","","","","","","","","",""
"","","","","","","","","","","","canvas-button-response","10","300613","0.0-10.0","9308","car","","","","","","","","","","","","","","perceptual","","","0","0","","","","","82","elephant","1","","0",""
"","","","","","","","","","","","canvas-button-response","11","302438","0.0-11.0","1824","0","","","","","","","","","","","","","","confidence","","","0","0","","","","","","","","","","0"
"","","","","","","","","","","","html-keyboard-response","12","303441","0.0-12.0","null","null","","","","","","","","","","","","","","feedback","Tue Oct 14 2025 16:33:35 GMT-0400 (Eastern Daylight Time)","27227","0","0","","","","","","","","","",""
"","","","","","","","","","","","preload","13","303442","0.0-13.0","","","","","true","","","","","","","","","","","preload","","","0","1","false","[]","[]","[]","","","","","",""
"","","","","","","","","","","","canvas-keyboard-response","14","303744","0.0-14.0","null","null","","","","","","","","","","","","","","fixation","","","0","1","","","","","","","","","",""
"","","","","","","","","","","","canvas-keyboard-response","15","304046","0.0-15.0","null","null","","","","","","","","","","","","","","stimulus","","","0","1","","","","","","","","","",""
"","","","","","","","","","","","canvas-button-response","16","305350","0.0-16.0","1302","cat","","","","","","","","","","","","","","perceptual","","","0","1","","","","","72","cat","1","","1",""
"","","","","","","","","","","","canvas-button-response","17","306210","0.0-17.0","858","10","","","","","","","","","","","","","","confidence","","","0","1","","","","","","","","","","1"
"","","","","","","","","","","","html-keyboard-response","18","307211","0.0-18.0","null","null","","","","","","","","","","","","","","feedback","Tue Oct 14 2025 16:33:39 GMT-0400 (Eastern Daylight Time)","27227","0","1","","","","","","","","","",""
"","","","","","","","","","","","preload","19","307212","0.0-19.0","","","","","true","","","","","","","","","","","preload","","","0","2","false","[]","[]","[]","","","","","",""
"","","","","","","","","","","","canvas-keyboard-response","20","307514","0.0-20.0","null","null","","","","","","","","","","","","","","fixation","","","0","2","","","","","","","","","",""
"","","","","","","","","","","","canvas-keyboard-response","21","307816","0.0-21.0","null","null","","","","","","","","","","","","","","stimulus","","","0","2","","","","","","","","","",""
"","","","","","","","","","","","canvas-button-response","22","311610","0.0-22.0","3793","phone","","","","","","","","","","","","","","perceptual","","","0","2","","","","","62","train","1","","0",""
"","","","","","","","","","","","canvas-button-response","23","312760","0.0-23.0","1148","0","","","","","","","","","","","","","","confidence","","","0","2","","","","","","","","","","1"
"","","","","","","","","","","","html-keyboard-response","24","313763","0.0-24.0","null","null","","","","","","","","","","","","","","feedback","Tue Oct 14 2025 16:33:45 GMT-0400 (Eastern Daylight Time)","27227","0","2","","","","","","","","","",""
"","","","","","","","","","","","preload","25","313764","0.0-25.0","","","","","true","","","","","","","","","","","preload","","","0","3","false","[]","[]","[]","","","","","",""
"","","","","","","","","","","","canvas-keyboard-response","26","314065","0.0-26.0","null","null","","","","","","","","","","","","","","fixation","","","0","3","","","","","","","","","",""
"","","","","","","","","","","","canvas-keyboard-response","27","314366","0.0-27.0","null","null","","","","","","","","","","","","","","stimulus","","","0","3","","","","","","","","","",""
"","","","","","","","","","","","canvas-button-response","28","317410","0.0-28.0","3042","bed","","","","","","","","","","","","","","perceptual","","","0","3","","","","","42","bridge","1","","0",""
"","","","","","","","","","","","canvas-button-response","29","317980","0.0-29.0","568","0","","","","","","","","","","","","","","confidence","","","0","3","","","","","","","","","","1"
"","","","","","","","","","","","html-keyboard-response","30","318982","0.0-30.0","null","null","","","","","","","","","","","","","","feedback","Tue Oct 14 2025 16:33:51 GMT-0400 (Eastern Daylight Time)","27227","0","3","","","","","","","","","",""
"","","","","","","","","","","","preload","31","318983","0.0-31.0","","","","","true","","","","","","","","","","","preload","","","0","4","false","[]","[]","[]","","","","","",""
"","","","","","","","","","","","canvas-keyboard-response","32","319286","0.0-32.0","null","null","","","","","","","","","","","","","","fixation","","","0","4","","","","","","","","","",""
"","","","","","","","","","","","canvas-keyboard-response","33","319588","0.0-33.0","null","null","","","","","","","","","","","","","","stimulus","","","0","4","","","","","","","","","",""
"","","","","","","","","","","","canvas-button-response","34","320201","0.0-34.0","611","bed","","","","","","","","","","","","","","perceptual","","","0","4","","","","","22","phone","1","","0",""
"","","","","","","","","","","","canvas-button-response","35","320988","0.0-35.0","786","0","","","","","","","","","","","","","","confidence","","","0","4","","","","","","","","","","1"
"","","","","","","","","","","","html-keyboard-response","36","321991","0.0-36.0","null","null","","","","","","","","","","","","","","feedback","Tue Oct 14 2025 16:33:54 GMT-0400 (Eastern Daylight Time)","27227","0","4","","","","","","","","","",""
"","","","","","","","","","","","preload","37","321991","0.0-37.0","","","","","true","","","","","","","","","","","preload","","","0","5","false","[]","[]","[]","","","","","",""
"","","","","","","","","","","","canvas-keyboard-response","38","322293","0.0-38.0","null","null","","","","","","","","","","","","","","fixation","","","0","5","","","","","","","","","",""
"","","","","","","","","","","","canvas-keyboard-response","39","322594","0.0-39.0","null","null","","","","","","","","","","","","","","stimulus","","","0","5","","","","","","","","","",""
"","","","","","","","","","","","canvas-button-response","40","323567","0.0-40.0","972","bed","","","","","","","","","","","","","","perceptual","","","0","5","","","","","32","bed","1","","1",""
"","","","","","","","","","","","canvas-button-response","41","324143","0.0-41.0","574","0","","","","","","","","","","","","","","confidence","","","0","5","","","","","","","","","","2"
"","","","","","","","","","","","html-keyboard-response","42","325144","0.0-42.0","null","null","","","","","","","","","","","","","","feedback","Tue Oct 14 2025 16:33:57 GMT-0400 (Eastern Daylight Time)","27227","0","5","","","","","","","","","",""
"","","","","","","","","","","","preload","43","325144","0.0-43.0","","","","","true","","","","","","","","","","","preload","","","0","6","false","[]","[]","[]","","","","","",""
"","","","","","","","","","","","canvas-keyboard-response","44","325446","0.0-44.0","null","null","","","","","","","","","","","","","","fixation","","","0","6","","","","","","","","","",""
"","","","","","","","","","","","canvas-keyboard-response","45","325747","0.0-45.0","null","null","","","","","","","","","","","","","","stimulus","","","0","6","","","","","","","","","",""
"","","","","","","","","","","","canvas-button-response","46","327089","0.0-46.0","1340","bed","","","","","","","","","","","","","","perceptual","","","0","6","","","","","92","knife","1","","0",""
"","","","","","","","","","","","canvas-button-response","47","327567","0.0-47.0","477","0","","","","","","","","","","","","","","confidence","","","0","6","","","","","","","","","","2"
"","","","","","","","","","","","html-keyboard-response","48","328568","0.0-48.0","null","null","","","","","","","","","","","","","","feedback","Tue Oct 14 2025 16:34:00 GMT-0400 (Eastern Daylight Time)","27227","0","6","","","","","","","","","",""
"","","","","","","","","","","","preload","49","328569","0.0-49.0","","","","","true","","","","","","","","","","","preload","","","0","7","false","[]","[]","[]","","","","","",""
"","","","","","","","","","","","canvas-keyboard-response","50","328870","0.0-50.0","null","null","","","","","","","","","","","","","","fixation","","","0","7","","","","","","","","","",""
"","","","","","","","","","","","canvas-keyboard-response","51","329172","0.0-51.0","null","null","","","","","","","","","","","","","","stimulus","","","0","7","","","","","","","","","",""
"","","","","","","","","","","","canvas-button-response","52","330272","0.0-52.0","1098","bed","","","","","","","","","","","","","","perceptual","","","0","7","","","","","52","flower","1","","0",""
"","","","","","","","","","","","canvas-button-response","53","330813","0.0-53.0","539","0","","","","","","","","","","","","","","confidence","","","0","7","","","","","","","","","","2"
"","","","","","","","","","","","html-keyboard-response","54","331815","0.0-54.0","null","null","","","","","","","","","","","","","","feedback","Tue Oct 14 2025 16:34:03 GMT-0400 (Eastern Daylight Time)","27227","0","7","","","","","","","","","",""
"","","","","","","","","","","","preload","55","331816","0.0-55.0","","","","","true","","","","","","","","","","","preload","","","0","8","false","[]","[]","[]","","","","","",""
"","","","","","","","","","","","canvas-keyboard-response","56","332118","0.0-56.0","null","null","","","","","","","","","","","","","","fixation","","","0","8","","","","","","","","","",""
"","","","","","","","","","","","canvas-keyboard-response","57","332421","0.0-57.0","null","null","","","","","","","","","","","","","","stimulus","","","0","8","","","","","","","","","",""
"","","","","","","","","","","","canvas-button-response","58","333271","0.0-58.0","849","bed","","","","","","","","","","","","","","perceptual","","","0","8","","","","","12","car","1","","0",""
"","","","","","","","","","","","canvas-button-response","59","333884","0.0-59.0","611","0","","","","","","","","","","","","","","confidence","","","0","8","","","","","","","","","","2"
"","","","","","","","","","","","html-keyboard-response","60","334886","0.0-60.0","null","null","","","","","","","","","","","","","","feedback","Tue Oct 14 2025 16:34:07 GMT-0400 (Eastern Daylight Time)","27227","0","8","","","","","","","","","",""
"","","","","","","","","","","","preload","61","334887","0.0-61.0","","","","","true","","","","","","","","","","","preload","","","0","9","false","[]","[]","[]","","","","","",""
"","","","","","","","","","","","canvas-keyboard-response","62","335189","0.0-62.0","null","null","","","","","","","","","","","","","","fixation","","","0","9","","","","","","","","","",""
"","","","","","","","","","","","canvas-keyboard-response","63","335491","0.0-63.0","null","null","","","","","","","","","","","","","","stimulus","","","0","9","","","","","","","","","",""
"","","","","","","","","","","","canvas-button-response","64","336167","0.0-64.0","675","bed","","","","","","","","","","","","","","perceptual","","","0","9","","","","","2","house","1","","0",""
"","","","","","","","","","","","canvas-button-response","65","337592","0.0-65.0","1424","0","","","","","","","","","","","","","","confidence","","","0","9","","","","","","","","","","2"
"","","","","","","","","","","","html-keyboard-response","66","338594","0.0-66.0","null","null","","","","","","","","","","","","","","feedback","Tue Oct 14 2025 16:34:10 GMT-0400 (Eastern Daylight Time)","27227","0","9","","","","","","","","","",""
"","","","","","","","","","","","html-button-response","67","346229","0.0-67.0","7634","0","","","","","","","","","","","","","","start_practice","Tue Oct 14 2025 16:34:11 GMT-0400 (Eastern Daylight Time)","27227","0","9","","","","","","","","","",""
"","","","","","","","","","","","preload","68","346229","0.0-68.0","","","","","true","","","","","","","","","","","preload","","","1","0","false","[]","[]","[]","","","","","",""
"","","","","","","","","","","","canvas-keyboard-response","69","346533","0.0-69.0","null","null","","","","","","","","","","","","","","fixation","","","1","0","","","","","","","","","",""
"","","","","","","","","","","","canvas-keyboard-response","70","346835","0.0-70.0","null","null","","","","","","","","","","","","","","stimulus","","","1","0","","","","","","","","","",""
"","","","","","","","","","","","canvas-button-response","71","347675","0.0-71.0","839","bed","","","","","","","","","","","","","","perceptual","","","1","0","","","","","77","cat","10","","0",""
"","","","","","","","","","","","canvas-button-response","72","348305","0.0-72.0","628","0","","","","","","","","","","","","","","confidence","","","1","0","","","","","","","","","","0"
"","","","","","","","","","","","html-keyboard-response","73","349307","0.0-73.0","null","null","","","","","","","","","","","","","","feedback","Tue Oct 14 2025 16:34:21 GMT-0400 (Eastern Daylight Time)","27227","1","0","","","","","","","","","",""
"","","","","","","","","","","","preload","74","349307","0.0-74.0","","","","","true","","","","","","","","","","","preload","","","1","1","false","[]","[]","[]","","","","","",""
"","","","","","","","","","","","canvas-keyboard-response","75","349608","0.0-75.0","null","null","","","","","","","","","","","","","","fixation","","","1","1","","","","","","","","","",""
"","","","","","","","","","","","canvas-keyboard-response","76","349911","0.0-76.0","null","null","","","","","","","","","","","","","","stimulus","","","1","1","","","","","","","","","",""
"","","","","","","","","","","","canvas-button-response","77","350388","0.0-77.0","476","bed","","","","","","","","","","","","","","perceptual","","","1","1","","","","","57","flower","10","","0",""
"","","","","","","","","","","","canvas-button-response","78","351013","0.0-78.0","624","0","","","","","","","","","","","","","","confidence","","","1","1","","","","","","","","","","0"
"","","","","","","","","","","","html-keyboard-response","79","352015","0.0-79.0","null","null","","","","","","","","","","","","","","feedback","Tue Oct 14 2025 16:34:24 GMT-0400 (Eastern Daylight Time)","27227","1","1","","","","","","","","","",""
"","","","","","","","","","","","preload","80","352015","0.0-80.0","","","","","true","","","","","","","","","","","preload","","","1","2","false","[]","[]","[]","","","","","",""
"","","","","","","","","","","","canvas-keyboard-response","81","352317","0.0-81.0","null","null","","","","","","","","","","","","","","fixation","","","1","2","","","","","","","","","",""
"","","","","","","","","","","","canvas-keyboard-response","82","352618","0.0-82.0","null","null","","","","","","","","","","","","","","stimulus","","","1","2","","","","","","","","","",""
"","","","","","","","","","","","canvas-button-response","83","353046","0.0-83.0","426","bed","","","","","","","","","","","","","","perceptual","","","1","2","","","","","47","bridge","10","","0",""
"","","","","","","","","","","","canvas-button-response","84","353743","0.0-84.0","696","0","","","","","","","","","","","","","","confidence","","","1","2","","","","","","","","","","0"
"","","","","","","","","","","","html-keyboard-response","85","354745","0.0-85.0","null","null","","","","","","","","","","","","","","feedback","Tue Oct 14 2025 16:34:26 GMT-0400 (Eastern Daylight Time)","27227","1","2","","","","","","","","","",""
"","","","","","","","","","","","preload","86","354745","0.0-86.0","","","","","true","","","","","","","","","","","preload","","","1","3","false","[]","[]","[]","","","","","",""
"","","","","","","","","","","","canvas-keyboard-response","87","355047","0.0-87.0","null","null","","","","","","","","","","","","","","fixation","","","1","3","","","","","","","","","",""
"","","","","","","","","","","","canvas-keyboard-response","88","355352","0.0-88.0","null","null","","","","","","","","","","","","","","stimulus","","","1","3","","","","","","","","","",""
"","","","","","","","","","","","canvas-button-response","89","358213","0.0-89.0","2859","bed","","","","","","","","","","","","","","perceptual","","","1","3","","","","","67","train","10","","0",""
"","","","","","","","","","","","canvas-button-response","90","360083","0.0-90.0","1869","0","","","","","","","","","","","","","","confidence","","","1","3","","","","","","","","","","0"
"","","","","","","","","","","","html-keyboard-response","91","361085","0.0-91.0","null","null","","","","","","","","","","","","","","feedback","Tue Oct 14 2025 16:34:33 GMT-0400 (Eastern Daylight Time)","27227","1","3","","","","","","","","","",""
"","","","","","","","","","","","preload","92","361086","0.0-92.0","","","","","true","","","","","","","","","","","preload","","","1","4","false","[]","[]","[]","","","","","",""
"","","","","","","","","","","","canvas-keyboard-response","93","361388","0.0-93.0","null","null","","","","","","","","","","","","","","fixation","","","1","4","","","","","","","","","",""
"","","","","","","","","","","","canvas-keyboard-response","94","361690","0.0-94.0","null","null","","","","","","","","","","","","","","stimulus","","","1","4","","","","","","","","","",""
"","","","","","","","","","","","canvas-button-response","95","362759","0.0-95.0","1066","flower","","","","","","","","","","","","","","perceptual","","","1","4","","","","","64","train","6","","0",""
"","","","","","","","","","","","canvas-button-response","96","363517","0.0-96.0","757","0","","","","","","","","","","","","","","confidence","","","1","4","","","","","","","","","","0"
"","","","","","","","","","","","html-keyboard-response","97","364519","0.0-97.0","null","null","","","","","","","","","","","","","","feedback","Tue Oct 14 2025 16:34:36 GMT-0400 (Eastern Daylight Time)","27227","1","4","","","","","","","","","",""
"","","","","","","","","","","","preload","98","364520","0.0-98.0","","","","","true","","","","","","","","","","","preload","","","1","5","false","[]","[]","[]","","","","","",""
"","","","","","","","","","","","canvas-keyboard-response","99","364821","0.0-99.0","null","null","","","","","","","","","","","","","","fixation","","","1","5","","","","","","","","","",""
"","","","","","","","","","","","canvas-keyboard-response","100","365124","0.0-100.0","null","null","","","","","","","","","","","","","","stimulus","","","1","5","","","","","","","","","",""
"","","","","","","","","","","","canvas-button-response","101","366080","0.0-101.0","955","flower","","","","","","","","","","","","","","perceptual","","","1","5","","","","","4","house","6","","0",""
"","","","","","","","","","","","canvas-button-response","102","367788","0.0-102.0","1707","0","","","","","","","","","","","","","","confidence","","","1","5","","","","","","","","","","0"
"","","","","","","","","","","","html-keyboard-response","103","368791","0.0-103.0","null","null","","","","","","","","","","","","","","feedback","Tue Oct 14 2025 16:34:40 GMT-0400 (Eastern Daylight Time)","27227","1","5","","","","","","","","","",""
"","","","","","","","","","","","preload","104","368791","0.0-104.0","","","","","true","","","","","","","","","","","preload","","","1","6","false","[]","[]","[]","","","","","",""
"","","","","","","","","","","","canvas-keyboard-response","105","369094","0.0-105.0","null","null","","","","","","","","","","","","","","fixation","","","1","6","","","","","","","","","",""
"","","","","","","","","","","","canvas-keyboard-response","106","369396","0.0-106.0","null","null","","","","","","","","","","","","","","stimulus","","","1","6","","","","","","","","","",""
"","","","","","","","","","","","canvas-button-response","107","370704","0.0-107.0","1307","flower","","","","","","","","","","","","","","perceptual","","","1","6","","","","","37","bed","10","","0",""
"","","","","","","","","","","","canvas-button-response","108","371509","0.0-108.0","803","0","","","","","","","","","","","","","","confidence","","","1","6","","","","","","","","","","0"
"","","","","","","","","","","","html-keyboard-response","109","372512","0.0-109.0","null","null","","","","","","","","","","","","","","feedback","Tue Oct 14 2025 16:34:44 GMT-0400 (Eastern Daylight Time)","27227","1","6","","","","","","","","","",""
"","","","","","","","","","","","preload","110","372512","0.0-110.0","","","","","true","","","","","","","","","","","preload","","","1","7","false","[]","[]","[]","","","","","",""
"","","","","","","","","","","","canvas-keyboard-response","111","372815","0.0-111.0","null","null","","","","","","","","","","","","","","fixation","","","1","7","","","","","","","","","",""
"","","","","","","","","","","","canvas-keyboard-response","112","373117","0.0-112.0","null","null","","","","","","","","","","","","","","stimulus","","","1","7","","","","","","","","","",""
"","","","","","","","","","","","canvas-button-response","113","374575","0.0-113.0","1456","flower","","","","","","","","","","","","","","perceptual","","","1","7","","","","","24","phone","6","","0",""
"","","","","","","","","","","","canvas-button-response","114","375174","0.0-114.0","599","0","","","","","","","","","","","","","","confidence","","","1","7","","","","","","","","","","0"
"","","","","","","","","","","","html-keyboard-response","115","376176","0.0-115.0","null","null","","","","","","","","","","","","","","feedback","Tue Oct 14 2025 16:34:48 GMT-0400 (Eastern Daylight Time)","27227","1","7","","","","","","","","","",""
"","","","","","","","","","","","preload","116","376176","0.0-116.0","","","","","true","","","","","","","","","","","preload","","","1","8","false","[]","[]","[]","","","","","",""
"","","","","","","","","","","","canvas-keyboard-response","117","376479","0.0-117.0","null","null","","","","","","","","","","","","","","fixation","","","1","8","","","","","","","","","",""
"","","","","","","","","","","","canvas-keyboard-response","118","376780","0.0-118.0","null","null","","","","","","","","","","","","","","stimulus","","","1","8","","","","","","","","","",""
"","","","","","","","","","","","canvas-button-response","119","377171","0.0-119.0","389","flower","","","","","","","","","","","","","","perceptual","","","1","8","","","","","87","elephant","10","","0",""
"","","","","","","","","","","","canvas-button-response","120","378021","0.0-120.0","849","0","","","","","","","","","","","","","","confidence","","","1","8","","","","","","","","","","0"
"","","","","","","","","","","","html-keyboard-response","121","379023","0.0-121.0","null","null","","","","","","","","","","","","","","feedback","Tue Oct 14 2025 16:34:51 GMT-0400 (Eastern Daylight Time)","27227","1","8","","","","","","","","","",""
"","","","","","","","","","","","preload","122","379024","0.0-122.0","","","","","true","","","","","","","","","","","preload","","","1","9","false","[]","[]","[]","","","","","",""
"","","","","","","","","","","","canvas-keyboard-response","123","379326","0.0-123.0","null","null","","","","","","","","","","","","","","fixation","","","1","9","","","","","","","","","",""
"","","","","","","","","","","","canvas-keyboard-response","124","379627","0.0-124.0","null","null","","","","","","","","","","","","","","stimulus","","","1","9","","","","","","","","","",""
"","","","","","","","","","","","canvas-button-response","125","380034","0.0-125.0","406","flower","","","","","","","","","","","","","","perceptual","","","1","9","","","","","84","elephant","6","","0",""
"","","","","","","","","","","","canvas-button-response","126","380551","0.0-126.0","514","0","","","","","","","","","","","","","","confidence","","","1","9","","","","","","","","","","0"
"","","","","","","","","","","","html-keyboard-response","127","381554","0.0-127.0","null","null","","","","","","","","","","","","","","feedback","Tue Oct 14 2025 16:34:53 GMT-0400 (Eastern Daylight Time)","27227","1","9","","","","","","","","","",""
"","","","","","","","","","","","preload","128","381555","0.0-128.0","","","","","true","","","","","","","","","","","preload","","","1","10","false","[]","[]","[]","","","","","",""
"","","","","","","","","","","","canvas-keyboard-response","129","381857","0.0-129.0","null","null","","","","","","","","","","","","","","fixation","","","1","10","","","","","","","","","",""
"","","","","","","","","","","","canvas-keyboard-response","130","382158","0.0-130.0","null","null","","","","","","","","","","","","","","stimulus","","","1","10","","","","","","","","","",""
"","","","","","","","","","","","canvas-button-response","131","382525","0.0-131.0","365","flower","","","","","","","","","","","","","","perceptual","","","1","10","","","","","14","car","6","","0",""
"","","","","","","","","","","","canvas-button-response","132","383042","0.0-132.0","516","0","","","","","","","","","","","","","","confidence","","","1","10","","","","","","","","","","0"
"","","","","","","","","","","","html-keyboard-response","133","384045","0.0-133.0","null","null","","","","","","","","","","","","","","feedback","Tue Oct 14 2025 16:34:56 GMT-0400 (Eastern Daylight Time)","27227","1","10","","","","","","","","","",""
"","","","","","","","","","","","preload","134","384046","0.0-134.0","","","","","true","","","","","","","","","","","preload","","","1","11","false","[]","[]","[]","","","","","",""
"","","","","","","","","","","","canvas-keyboard-response","135","384348","0.0-135.0","null","null","","","","","","","","","","","","","","fixation","","","1","11","","","","","","","","","",""
"","","","","","","","","","","","canvas-keyboard-response","136","384651","0.0-136.0","null","null","","","","","","","","","","","","","","stimulus","","","1","11","","","","","","","","","",""
"","","","","","","","","","","","canvas-button-response","137","385042","0.0-137.0","389","flower","","","","","","","","","","","","","","perceptual","","","1","11","","","","","34","bed","6","","0",""
"","","","","","","","","","","","canvas-button-response","138","385538","0.0-138.0","495","0","","","","","","","","","","","","","","confidence","","","1","11","","","","","","","","","","0"
"","","","","","","","","","","","html-keyboard-response","139","386540","0.0-139.0","null","null","","","","","","","","","","","","","","feedback","Tue Oct 14 2025 16:34:58 GMT-0400 (Eastern Daylight Time)","27227","1","11","","","","","","","","","",""
"","","","","","","","","","","","preload","140","386540","0.0-140.0","","","","","true","","","","","","","","","","","preload","","","1","12","false","[]","[]","[]","","","","","",""
"","","","","","","","","","","","canvas-keyboard-response","141","386841","0.0-141.0","null","null","","","","","","","","","","","","","","fixation","","","1","12","","","","","","","","","",""
"","","","","","","","","","","","canvas-keyboard-response","142","387144","0.0-142.0","null","null","","","","","","","","","","","","","","stimulus","","","1","12","","","","","","","","","",""
"","","","","","","","","","","","canvas-button-response","143","387553","0.0-143.0","408","flower","","","","","","","","","","","","","","perceptual","","","1","12","","","","","17","car","10","","0",""
"","","","","","","","","","","","canvas-button-response","144","388130","0.0-144.0","575","0","","","","","","","","","","","","","","confidence","","","1","12","","","","","","","","","","0"
"","","","","","","","","","","","html-keyboard-response","145","389132","0.0-145.0","null","null","","","","","","","","","","","","","","feedback","Tue Oct 14 2025 16:35:01 GMT-0400 (Eastern Daylight Time)","27227","1","12","","","","","","","","","",""
"","","","","","","","","","","","preload","146","389133","0.0-146.0","","","","","true","","","","","","","","","","","preload","","","1","13","false","[]","[]","[]","","","","","",""
"","","","","","","","","","","","canvas-keyboard-response","147","389435","0.0-147.0","null","null","","","","","","","","","","","","","","fixation","","","1","13","","","","","","","","","",""
"","","","","","","","","","","","canvas-keyboard-response","148","389739","0.0-148.0","null","null","","","","","","","","","","","","","","stimulus","","","1","13","","","","","","","","","",""
"","","","","","","","","","","","canvas-button-response","149","390121","0.0-149.0","380","flower","","","","","","","","","","","","","","perceptual","","","1","13","","","","","54","flower","6","","1",""
"","","","","","","","","","","","canvas-button-response","150","390709","0.0-150.0","586","0","","","","","","","","","","","","","","confidence","","","1","13","","","","","","","","","","1"
"","","","","","","","","","","","html-keyboard-response","151","391712","0.0-151.0","null","null","","","","","","","","","","","","","","feedback","Tue Oct 14 2025 16:35:03 GMT-0400 (Eastern Daylight Time)","27227","1","13","","","","","","","","","",""
"","","","","","","","","","","","preload","152","391713","0.0-152.0","","","","","true","","","","","","","","","","","preload","","","1","14","false","[]","[]","[]","","","","","",""
"","","","","","","","","","","","canvas-keyboard-response","153","392016","0.0-153.0","null","null","","","","","","","","","","","","","","fixation","","","1","14","","","","","","","","","",""
"","","","","","","","","","","","canvas-keyboard-response","154","392319","0.0-154.0","null","null","","","","","","","","","","","","","","stimulus","","","1","14","","","","","","","","","",""
"","","","","","","","","","","","canvas-button-response","155","392792","0.0-155.0","472","flower","","","","","","","","","","","","","","perceptual","","","1","14","","","","","44","bridge","6","","0",""
"","","","","","","","","","","","canvas-button-response","156","393463","0.0-156.0","669","0","","","","","","","","","","","","","","confidence","","","1","14","","","","","","","","","","1"
"","","","","","","","","","","","html-keyboard-response","157","394466","0.0-157.0","null","null","","","","","","","","","","","","","","feedback","Tue Oct 14 2025 16:35:06 GMT-0400 (Eastern Daylight Time)","27227","1","14","","","","","","","","","",""
"","","","","","","","","","","","preload","158","394467","0.0-158.0","","","","","true","","","","","","","","","","","preload","","","1","15","false","[]","[]","[]","","","","","",""
"","","","","","","","","","","","canvas-keyboard-response","159","394770","0.0-159.0","null","null","","","","","","","","","","","","","","fixation","","","1","15","","","","","","","","","",""
"","","","","","","","","","","","canvas-keyboard-response","160","395073","0.0-160.0","null","null","","","","","","","","","","","","","","stimulus","","","1","15","","","","","","","","","",""
"","","","","","","","","","","","canvas-button-response","161","395637","0.0-161.0","563","flower","","","","","","","","","","","","","","perceptual","","","1","15","","","","","7","house","10","","0",""
"","","","","","","","","","","","canvas-button-response","162","396370","0.0-162.0","733","0","","","","","","","","","","","","","","confidence","","","1","15","","","","","","","","","","1"
"","","","","","","","","","","","html-keyboard-response","163","397371","0.0-163.0","null","null","","","","","","","","","","","","","","feedback","Tue Oct 14 2025 16:35:09 GMT-0400 (Eastern Daylight Time)","27227","1","15","","","","","","","","","",""
"","","","","","","","","","","","preload","164","397371","0.0-164.0","","","","","true","","","","","","","","","","","preload","","","1","16","false","[]","[]","[]","","","","","",""
"","","","","","","","","","","","canvas-keyboard-response","165","397674","0.0-165.0","null","null","","","","","","","","","","","","","","fixation","","","1","16","","","","","","","","","",""
"","","","","","","","","","","","canvas-keyboard-response","166","397976","0.0-166.0","null","null","","","","","","","","","","","","","","stimulus","","","1","16","","","","","","","","","",""
"","","","","","","","","","","","canvas-button-response","167","398366","0.0-167.0","389","flower","","","","","","","","","","","","","","perceptual","","","1","16","","","","","94","knife","6","","0",""
"","","","","","","","","","","","canvas-button-response","168","399004","0.0-168.0","637","0","","","","","","","","","","","","","","confidence","","","1","16","","","","","","","","","","1"
"","","","","","","","","","","","html-keyboard-response","169","400006","0.0-169.0","null","null","","","","","","","","","","","","","","feedback","Tue Oct 14 2025 16:35:12 GMT-0400 (Eastern Daylight Time)","27227","1","16","","","","","","","","","",""
"","","","","","","","","","","","preload","170","400007","0.0-170.0","","","","","true","","","","","","","","","","","preload","","","1","17","false","[]","[]","[]","","","","","",""
"","","","","","","","","","","","canvas-keyboard-response","171","400309","0.0-171.0","null","null","","","","","","","","","","","","","","fixation","","","1","17","","","","","","","","","",""
"","","","","","","","","","","","canvas-keyboard-response","172","400611","0.0-172.0","null","null","","","","","","","","","","","","","","stimulus","","","1","17","","","","","","","","","",""
"","","","","","","","","","","","canvas-button-response","173","400928","0.0-173.0","316","flower","","","","","","","","","","","","","","perceptual","","","1","17","","","","","74","cat","6","","0",""
"","","","","","","","","","","","canvas-button-response","174","401600","0.0-174.0","671","0","","","","","","","","","","","","","","confidence","","","1","17","","","","","","","","","","1"
"","","","","","","","","","","","html-keyboard-response","175","402602","0.0-175.0","null","null","","","","","","","","","","","","","","feedback","Tue Oct 14 2025 16:35:14 GMT-0400 (Eastern Daylight Time)","27227","1","17","","","","","","","","","",""
"","","","","","","","","","","","preload","176","402604","0.0-176.0","","","","","true","","","","","","","","","","","preload","","","1","18","false","[]","[]","[]","","","","","",""
"","","","","","","","","","","","canvas-keyboard-response","177","402907","0.0-177.0","null","null","","","","","","","","","","","","","","fixation","","","1","18","","","","","","","","","",""
"","","","","","","","","","","","canvas-keyboard-response","178","403208","0.0-178.0","null","null","","","","","","","","","","","","","","stimulus","","","1","18","","","","","","","","","",""
"","","","","","","","","","","","canvas-button-response","179","403441","0.0-179.0","232","flower","","","","","","","","","","","","","","perceptual","","","1","18","","","","","27","phone","10","","0",""
"","","","","","","","","","","","canvas-button-response","180","404058","0.0-180.0","616","0","","","","","","","","","","","","","","confidence","","","1","18","","","","","","","","","","1"
"","","","","","","","","","","","html-keyboard-response","181","405061","0.0-181.0","null","null","","","","","","","","","","","","","","feedback","Tue Oct 14 2025 16:35:17 GMT-0400 (Eastern Daylight Time)","27227","1","18","","","","","","","","","",""
"","","","","","","","","","","","preload","182","405061","0.0-182.0","","","","","true","","","","","","","","","","","preload","","","1","19","false","[]","[]","[]","","","","","",""
"","","","","","","","","","","","canvas-keyboard-response","183","405364","0.0-183.0","null","null","","","","","","","","","","","","","","fixation","","","1","19","","","","","","","","","",""
"","","","","","","","","","","","canvas-keyboard-response","184","405665","0.0-184.0","null","null","","","","","","","","","","","","","","stimulus","","","1","19","","","","","","","","","",""
"","","","","","","","","","","","canvas-button-response","185","406084","0.0-185.0","417","flower","","","","","","","","","","","","","","perceptual","","","1","19","","","","","97","knife","10","","0",""
"","","","","","","","","","","","canvas-button-response","186","406708","0.0-186.0","623","0","","","","","","","","","","","","","","confidence","","","1","19","","","","","","","","","","1"
"","","","","","","","","","","","html-keyboard-response","187","407710","0.0-187.0","null","null","","","","","","","","","","","","","","feedback","Tue Oct 14 2025 16:35:19 GMT-0400 (Eastern Daylight Time)","27227","1","19","","","","","","","","","",""
"","","","","","","","","","","","html-button-response","188","416955","0.0-188.0","9243","0","","","","","","","","","","","","","","start experiment","Tue Oct 14 2025 16:35:20 GMT-0400 (Eastern Daylight Time)","27227","1","19","","","","","","","","","",""
"","","","","","","","","","","","preload","189","416956","0.0-189.0","","","","","true","","","","","","","","","","","preload","","","2","0","false","[]","[]","[]","","","","","",""
"","","","","","","","","","","","canvas-keyboard-response","190","417257","0.0-190.0","null","null","","","","","","","","","","","","","","fixation","","","2","0","","","","","","","","","",""
"","","","","","","","","","","","canvas-keyboard-response","191","417559","0.0-191.0","null","null","","","","","","","","","","","","","","stimulus","","","2","0","","","","","","","","","",""
"","","","","","","","","","","","canvas-button-response","192","418421","0.0-192.0","861","flower","","","","","","","","","","","","","","perceptual","","","2","0","","","","","271","train","10","0","0",""
"","","","","","","","","","","","canvas-button-response","193","418870","0.0-193.0","447","0","","","","","","","","","","","","","","confidence","","","2","0","","","","","","","","","","0"
"","","","","","","","","","","","preload","194","418870","0.0-194.0","","","","","true","","","","","","","","","","","preload","","","2","1","false","[]","[]","[]","","","","","",""
"","","","","","","","","","","","canvas-keyboard-response","195","419171","0.0-195.0","null","null","","","","","","","","","","","","","","fixation","","","2","1","","","","","","","","","",""
"","","","","","","","","","","","canvas-keyboard-response","196","419475","0.0-196.0","null","null","","","","","","","","","","","","","","stimulus","","","2","1","","","","","","","","","",""
"","","","","","","","","","","","canvas-button-response","197","419587","0.0-197.0","111","flower","","","","","","","","","","","","","","perceptual","","","2","1","","","","","381","knife","10","0","0",""
"","","","","","","","","","","","canvas-button-response","198","420354","0.0-198.0","766","0","","","","","","","","","","","","","","confidence","","","2","1","","","","","","","","","","0"
"","","","","","","","","","","","preload","199","420354","0.0-199.0","","","","","true","","","","","","","","","","","preload","","","2","2","false","[]","[]","[]","","","","","",""
"","","","","","","","","","","","canvas-keyboard-response","200","420655","0.0-200.0","null","null","","","","","","","","","","","","","","fixation","","","2","2","","","","","","","","","",""
"","","","","","","","","","","","canvas-keyboard-response","201","420956","0.0-201.0","null","null","","","","","","","","","","","","","","stimulus","","","2","2","","","","","","","","","",""
"","","","","","","","","","","","canvas-button-response","202","421499","0.0-202.0","541","flower","","","","","","","","","","","","","","perceptual","","","2","2","","","","","123","bed","6","0","0",""
"","","","","","","","","","","","canvas-button-response","203","421946","0.0-203.0","446","0","","","","","","","","","","","","","","confidence","","","2","2","","","","","","","","","","0"
"","","","","","","","","","","","preload","204","421947","0.0-204.0","","","","","true","","","","","","","","","","","preload","","","2","3","false","[]","[]","[]","","","","","",""
"","","","","","","","","","","","canvas-keyboard-response","205","422249","0.0-205.0","null","null","","","","","","","","","","","","","","fixation","","","2","3","","","","","","","","","",""
"","","","","","","","","","","","canvas-keyboard-response","206","422551","0.0-206.0","null","null","","","","","","","","","","","","","","stimulus","","","2","3","","","","","","","","","",""
"","","","","","","","","","","","canvas-button-response","207","422670","0.0-207.0","117","flower","","","","","","","","","","","","","","perceptual","","","2","3","","","","","193","bridge","10","0","0",""
"","","","","","","","","","","","canvas-button-response","208","423522","0.0-208.0","850","0","","","","","","","","","","","","","","confidence","","","2","3","","","","","","","","","","0"
"","","","","","","","","","","","preload","209","423523","0.0-209.0","","","","","true","","","","","","","","","","","preload","","","2","4","false","[]","[]","[]","","","","","",""
"","","","","","","","","","","","canvas-keyboard-response","210","423824","0.0-210.0","null","null","","","","","","","","","","","","","","fixation","","","2","4","","","","","","","","","",""
"","","","","","","","","","","","canvas-keyboard-response","211","424125","0.0-211.0","null","null","","","","","","","","","","","","","","stimulus","","","2","4","","","","","","","","","",""
"","","","","","","","","","","","canvas-button-response","212","424383","0.0-212.0","256","house","","","","","","","","","","","","","","perceptual","","","2","4","","","","","168","bridge","6","0","0",""
"","","","","","","","","","","","canvas-button-response","213","425062","0.0-213.0","678","0","","","","","","","","","","","","","","confidence","","","2","4","","","","","","","","","","0"
"","","","","","","","","","","","preload","214","425063","0.0-214.0","","","","","true","","","","","","","","","","","preload","","","2","5","false","[]","[]","[]","","","","","",""
"","","","","","","","","","","","canvas-keyboard-response","215","425365","0.0-215.0","null","null","","","","","","","","","","","","","","fixation","","","2","5","","","","","","","","","",""
"","","","","","","","","","","","canvas-keyboard-response","216","425667","0.0-216.0","null","null","","","","","","","","","","","","","","stimulus","","","2","5","","","","","","","","","",""
"","","","","","","","","","","","canvas-button-response","217","426014","0.0-217.0","345","flower","","","","","","","","","","","","","","perceptual","","","2","5","","","","","4","house","6","0","0",""
"","","","","","","","","","","","canvas-button-response","218","426738","0.0-218.0","722","0","","","","","","","","","","","","","","confidence","","","2","5","","","","","","","","","","0"
"","","","","","","","","","","","preload","219","426739","0.0-219.0","","","","","true","","","","","","","","","","","preload","","","2","6","false","[]","[]","[]","","","","","",""
"","","","","","","","","","","","canvas-keyboard-response","220","427041","0.0-220.0","null","null","","","","","","","","","","","","","","fixation","","","2","6","","","","","","","","","",""
"","","","","","","","","","","","canvas-keyboard-response","221","427343","0.0-221.0","null","null","","","","","","","","","","","","","","stimulus","","","2","6","","","","","","","","","",""
"","","","","","","","","","","","canvas-button-response","222","427684","0.0-222.0","339","bed","","","","","","","","","","","","","","perceptual","","","2","6","","","","","256","train","6","0","0",""
"","","","","","","","","","","","canvas-button-response","223","428312","0.0-223.0","627","0","","","","","","","","","","","","","","confidence","","","2","6","","","","","","","","","","0"
"","","","","","","","","","","","preload","224","428313","0.0-224.0","","","","","true","","","","","","","","","","","preload","","","2","7","false","[]","[]","[]","","","","","",""
"","","","","","","","","","","","canvas-keyboard-response","225","428616","0.0-225.0","null","null","","","","","","","","","","","","","","fixation","","","2","7","","","","","","","","","",""
"","","","","","","","","","","","canvas-keyboard-response","226","428918","0.0-226.0","null","null","","","","","","","","","","","","","","stimulus","","","2","7","","","","","","","","","",""
"","","","","","","","","","","","canvas-button-response","227","429254","0.0-227.0","335","bed","","","","","","","","","","","","","","perceptual","","","2","7","","","","","121","bed","6","0","1",""
"","","","","","","","","","","","canvas-button-response","228","429957","0.0-228.0","701","0","","","","","","","","","","","","","","confidence","","","2","7","","","","","","","","","","1"
"","","","","","","","","","","","preload","229","429957","0.0-229.0","","","","","true","","","","","","","","","","","preload","","","2","8","false","[]","[]","[]","","","","","",""
"","","","","","","","","","","","canvas-keyboard-response","230","430260","0.0-230.0","null","null","","","","","","","","","","","","","","fixation","","","2","8","","","","","","","","","",""
"","","","","","","","","","","","canvas-keyboard-response","231","430562","0.0-231.0","null","null","","","","","","","","","","","","","","stimulus","","","2","8","","","","","","","","","",""
"","","","","","","","","","","","canvas-button-response","232","430912","0.0-232.0","348","flower","","","","","","","","","","","","","","perceptual","","","2","8","","","","","111","phone","10","0","0",""
"","","","","","","","","","","","canvas-button-response","233","431547","0.0-233.0","633","0","","","","","","","","","","","","","","confidence","","","2","8","","","","","","","","","","1"
"","","","","","","","","","","","preload","234","431547","0.0-234.0","","","","","true","","","","","","","","","","","preload","","","2","9","false","[]","[]","[]","","","","","",""
"","","","","","","","","","","","canvas-keyboard-response","235","431849","0.0-235.0","null","null","","","","","","","","","","","","","","fixation","","","2","9","","","","","","","","","",""
"","","","","","","","","","","","canvas-keyboard-response","236","432151","0.0-236.0","null","null","","","","","","","","","","","","","","stimulus","","","2","9","","","","","","","","","",""
"","","","","","","","","","","","canvas-button-response","237","432500","0.0-237.0","347","flower","","","","","","","","","","","","","","perceptual","","","2","9","","","","","171","bridge","6","0","0",""
"","","","","","","","","","","","canvas-button-response","238","433071","0.0-238.0","569","0","","","","","","","","","","","","","","confidence","","","2","9","","","","","","","","","","1"
"","","","","","","","","","","","preload","239","433072","0.0-239.0","","","","","true","","","","","","","","","","","preload","","","2","10","false","[]","[]","[]","","","","","",""
"","","","","","","","","","","","canvas-keyboard-response","240","433374","0.0-240.0","null","null","","","","","","","","","","","","","","fixation","","","2","10","","","","","","","","","",""
"","","","","","","","","","","","canvas-keyboard-response","241","433677","0.0-241.0","null","null","","","","","","","","","","","","","","stimulus","","","2","10","","","","","","","","","",""
"","","","","","","","","","","","canvas-button-response","242","434012","0.0-242.0","334","bed","","","","","","","","","","","","","","perceptual","","","2","10","","","","","146","bed","10","0","1",""
"","","","","","","","","","","","canvas-button-response","243","434753","0.0-243.0","739","0","","","","","","","","","","","","","","confidence","","","2","10","","","","","","","","","","2"
"","","","","","","","","","","","preload","244","434753","0.0-244.0","","","","","true","","","","","","","","","","","preload","","","2","11","false","[]","[]","[]","","","","","",""
"","","","","","","","","","","","canvas-keyboard-response","245","435054","0.0-245.0","null","null","","","","","","","","","","","","","","fixation","","","2","11","","","","","","","","","",""
"","","","","","","","","","","","canvas-keyboard-response","246","435356","0.0-246.0","null","null","","","","","","","","","","","","","","stimulus","","","2","11","","","","","","","","","",""
"","","","","","","","","","","","canvas-button-response","247","435588","0.0-247.0","230","flower","","","","","","","","","","","","","","perceptual","","","2","11","","","","","165","bridge","6","0","0",""
"","","","","","","","","","","","canvas-button-response","248","436237","0.0-248.0","647","0","","","","","","","","","","","","","","confidence","","","2","11","","","","","","","","","","2"
"","","","","","","","","","","","preload","249","436237","0.0-249.0","","","","","true","","","","","","","","","","","preload","","","2","12","false","[]","[]","[]","","","","","",""
"","","","","","","","","","","","canvas-keyboard-response","250","436539","0.0-250.0","null","null","","","","","","","","","","","","","","fixation","","","2","12","","","","","","","","","",""
"","","","","","","","","","","","canvas-keyboard-response","251","436840","0.0-251.0","null","null","","","","","","","","","","","","","","stimulus","","","2","12","","","","","","","","","",""
"","","","","","","","","","","","canvas-button-response","252","437396","0.0-252.0","554","flower","","","","","","","","","","","","","","perceptual","","","2","12","","","","","291","cat","6","0","0",""
"","","","","","","","","","","","canvas-button-response","253","438187","0.0-253.0","789","0","","","","","","","","","","","","","","confidence","","","2","12","","","","","","","","","","2"
"","","","","","","","","","","","preload","254","438188","0.0-254.0","","","","","true","","","","","","","","","","","preload","","","2","13","false","[]","[]","[]","","","","","",""
"","","","","","","","","","","","canvas-keyboard-response","255","438491","0.0-255.0","null","null","","","","","","","","","","","","","","fixation","","","2","13","","","","","","","","","",""
"","","","","","","","","","","","canvas-keyboard-response","256","438792","0.0-256.0","null","null","","","","","","","","","","","","","","stimulus","","","2","13","","","","","","","","","",""
"","","","","","","","","","","","canvas-button-response","257","439163","0.0-257.0","369","bed","","","","","","","","","","","","","","perceptual","","","2","13","","","","","226","flower","10","0","0",""
"","","","","","","","","","","","canvas-button-response","258","440187","0.0-258.0","1023","0","","","","","","","","","","","","","","confidence","","","2","13","","","","","","","","","","2"
"","","","","","","","","","","","preload","259","440188","0.0-259.0","","","","","true","","","","","","","","","","","preload","","","2","14","false","[]","[]","[]","","","","","",""
"","","","","","","","","","","","canvas-keyboard-response","260","440490","0.0-260.0","null","null","","","","","","","","","","","","","","fixation","","","2","14","","","","","","","","","",""
"","","","","","","","","","","","canvas-keyboard-response","261","440792","0.0-261.0","null","null","","","","","","","","","","","","","","stimulus","","","2","14","","","","","","","","","",""
"","","","","","","","","","","","canvas-button-response","262","441230","0.0-262.0","436","flower","","","","","","","","","","","","","","perceptual","","","2","14","","","","","367","knife","6","0","0",""
"","","","","","","","","","","","canvas-button-response","263","441837","0.0-263.0","605","0","","","","","","","","","","","","","","confidence","","","2","14","","","","","","","","","","2"
"","","","","","","","","","","","preload","264","441837","0.0-264.0","","","","","true","","","","","","","","","","","preload","","","2","15","false","[]","[]","[]","","","","","",""
"","","","","","","","","","","","canvas-keyboard-response","265","442140","0.0-265.0","null","null","","","","","","","","","","","","","","fixation","","","2","15","","","","","","","","","",""
"","","","","","","","","","","","canvas-keyboard-response","266","442441","0.0-266.0","null","null","","","","","","","","","","","","","","stimulus","","","2","15","","","","","","","","","",""
"","","","","","","","","","","","canvas-button-response","267","443553","0.0-267.0","1110","bed","","","","","","","","","","","","","","perceptual","","","2","15","","","","","296","cat","6","0","0",""
"","","","","","","","","","","","canvas-button-response","268","444192","0.0-268.0","637","0","","","","","","","","","","","","","","confidence","","","2","15","","","","","","","","","","2"
"","","","","","","","","","","","preload","269","444193","0.0-269.0","","","","","true","","","","","","","","","","","preload","","","2","16","false","[]","[]","[]","","","","","",""
"","","","","","","","","","","","canvas-keyboard-response","270","444495","0.0-270.0","null","null","","","","","","","","","","","","","","fixation","","","2","16","","","","","","","","","",""
"","","","","","","","","","","","canvas-keyboard-response","271","444797","0.0-271.0","null","null","","","","","","","","","","","","","","stimulus","","","2","16","","","","","","","","","",""
"","","","","","","","","","","","canvas-button-response","272","445196","0.0-272.0","398","flower","","","","","","","","","","","","","","perceptual","","","2","16","","","","","196","bridge","10","0","0",""
"","","","","","","","","","","","canvas-button-response","273","445904","0.0-273.0","705","0","","","","","","","","","","","","","","confidence","","","2","16","","","","","","","","","","2"
"","","","","","","","","","","","preload","274","445905","0.0-274.0","","","","","true","","","","","","","","","","","preload","","","2","17","false","[]","[]","[]","","","","","",""
"","","","","","","","","","","","canvas-keyboard-response","275","446206","0.0-275.0","null","null","","","","","","","","","","","","","","fixation","","","2","17","","","","","","","","","",""
"","","","","","","","","","","","canvas-keyboard-response","276","446508","0.0-276.0","null","null","","","","","","","","","","","","","","stimulus","","","2","17","","","","","","","","","",""
"","","","","","","","","","","","canvas-button-response","277","446853","0.0-277.0","343","flower","","","","","","","","","","","","","","perceptual","","","2","17","","","","","155","bed","10","0","0",""
"","","","","","","","","","","","canvas-button-response","278","447454","0.0-278.0","599","0","","","","","","","","","","","","","","confidence","","","2","17","","","","","","","","","","2"
"","","","","","","","","","","","preload","279","447455","0.0-279.0","","","","","true","","","","","","","","","","","preload","","","2","18","false","[]","[]","[]","","","","","",""
"","","","","","","","","","","","canvas-keyboard-response","280","447757","0.0-280.0","null","null","","","","","","","","","","","","","","fixation","","","2","18","","","","","","","","","",""
"","","","","","","","","","","","canvas-keyboard-response","281","448059","0.0-281.0","null","null","","","","","","","","","","","","","","stimulus","","","2","18","","","","","","","","","",""
"","","","","","","","","","","","canvas-button-response","282","448712","0.0-282.0","652","flower","","","","","","","","","","","","","","perceptual","","","2","18","","","","","348","elephant","10","0","0",""
"","","","","","","","","","","","canvas-button-response","283","449411","0.0-283.0","697","0","","","","","","","","","","","","","","confidence","","","2","18","","","","","","","","","","2"
"","","","","","","","","","","","preload","284","449411","0.0-284.0","","","","","true","","","","","","","","","","","preload","","","2","19","false","[]","[]","[]","","","","","",""
"","","","","","","","","","","","canvas-keyboard-response","285","449712","0.0-285.0","null","null","","","","","","","","","","","","","","fixation","","","2","19","","","","","","","","","",""
"","","","","","","","","","","","canvas-keyboard-response","286","450014","0.0-286.0","null","null","","","","","","","","","","","","","","stimulus","","","2","19","","","","","","","","","",""
"","","","","","","","","","","","canvas-button-response","287","450475","0.0-287.0","458","bed","","","","","","","","","","","","","","perceptual","","","2","19","","","","","245","train","6","0","0",""
"","","","","","","","","","","","canvas-button-response","288","451120","0.0-288.0","643","0","","","","","","","","","","","","","","confidence","","","2","19","","","","","","","","","","2"
"","","","","","","","","","","","preload","289","451120","0.0-289.0","","","","","true","","","","","","","","","","","preload","","","2","20","false","[]","[]","[]","","","","","",""
"","","","","","","","","","","","canvas-keyboard-response","290","451422","0.0-290.0","null","null","","","","","","","","","","","","","","fixation","","","2","20","","","","","","","","","",""
"","","","","","","","","","","","canvas-keyboard-response","291","451725","0.0-291.0","null","null","","","","","","","","","","","","","","stimulus","","","2","20","","","","","","","","","",""
"","","","","","","","","","","","canvas-button-response","292","452111","0.0-292.0","385","flower","","","","","","","","","","","","","","perceptual","","","2","20","","","","","3","house","6","0","0",""
"","","","","","","","","","","","canvas-button-response","293","452716","0.0-293.0","604","0","","","","","","","","","","","","","","confidence","","","2","20","","","","","","","","","","2"
"","","","","","","","","","","","preload","294","452717","0.0-294.0","","","","","true","","","","","","","","","","","preload","","","2","21","false","[]","[]","[]","","","","","",""
"","","","","","","","","","","","canvas-keyboard-response","295","453018","0.0-295.0","null","null","","","","","","","","","","","","","","fixation","","","2","21","","","","","","","","","",""
"","","","","","","","","","","","canvas-keyboard-response","296","453320","0.0-296.0","null","null","","","","","","","","","","","","","","stimulus","","","2","21","","","","","","","","","",""
"","","","","","","","","","","","canvas-button-response","297","453733","0.0-297.0","411","flower","","","","","","","","","","","","","","perceptual","","","2","21","","","","","56","car","6","0","0",""
"","","","","","","","","","","","canvas-button-response","298","454508","0.0-298.0","772","0","","","","","","","","","","","","","","confidence","","","2","21","","","","","","","","","","2"
"","","","","","","","","","","","preload","299","454510","0.0-299.0","","","","","true","","","","","","","","","","","preload","","","2","22","false","[]","[]","[]","","","","","",""
"","","","","","","","","","","","canvas-keyboard-response","300","454811","0.0-300.0","null","null","","","","","","","","","","","","","","fixation","","","2","22","","","","","","","","","",""
"","","","","","","","","","","","canvas-keyboard-response","301","455112","0.0-301.0","null","null","","","","","","","","","","","","","","stimulus","","","2","22","","","","","","","","","",""
"","","","","","","","","","","","canvas-button-response","302","455707","0.0-302.0","593","flower","","","","","","","","","","","","","","perceptual","","","2","22","","","","","184","bridge","10","0","0",""
"","","","","","","","","","","","canvas-button-response","303","456345","0.0-303.0","637","0","","","","","","","","","","","","","","confidence","","","2","22","","","","","","","","","","2"
"","","","","","","","","","","","preload","304","456346","0.0-304.0","","","","","true","","","","","","","","","","","preload","","","2","23","false","[]","[]","[]","","","","","",""
"","","","","","","","","","","","canvas-keyboard-response","305","456649","0.0-305.0","null","null","","","","","","","","","","","","","","fixation","","","2","23","","","","","","","","","",""
"","","","","","","","","","","","canvas-keyboard-response","306","456951","0.0-306.0","null","null","","","","","","","","","","","","","","stimulus","","","2","23","","","","","","","","","",""
"","","","","","","","","","","","canvas-button-response","307","457595","0.0-307.0","643","bed","","","","","","","","","","","","","","perceptual","","","2","23","","","","","351","elephant","10","0","0",""
"","","","","","","","","","","","canvas-button-response","308","458178","0.0-308.0","582","0","","","","","","","","","","","","","","confidence","","","2","23","","","","","","","","","","2"
"","","","","","","","","","","","preload","309","458178","0.0-309.0","","","","","true","","","","","","","","","","","preload","","","2","24","false","[]","[]","[]","","","","","",""
"","","","","","","","","","","","canvas-keyboard-response","310","458480","0.0-310.0","null","null","","","","","","","","","","","","","","fixation","","","2","24","","","","","","","","","",""
"","","","","","","","","","","","canvas-keyboard-response","311","458781","0.0-311.0","null","null","","","","","","","","","","","","","","stimulus","","","2","24","","","","","","","","","",""
"","","","","","","","","","","","canvas-button-response","312","459270","0.0-312.0","488","flower","","","","","","","","","","","","","","perceptual","","","2","24","","","","","376","knife","6","0","0",""
"","","","","","","","","","","","canvas-button-response","313","460020","0.0-313.0","748","0","","","","","","","","","","","","","","confidence","","","2","24","","","","","","","","","","2"
"","","","","","","","","","","","preload","314","460020","0.0-314.0","","","","","true","","","","","","","","","","","preload","","","2","25","false","[]","[]","[]","","","","","",""
"","","","","","","","","","","","canvas-keyboard-response","315","460322","0.0-315.0","null","null","","","","","","","","","","","","","","fixation","","","2","25","","","","","","","","","",""
"","","","","","","","","","","","canvas-keyboard-response","316","460625","0.0-316.0","null","null","","","","","","","","","","","","","","stimulus","","","2","25","","","","","","","","","",""
"","","","","","","","","","","","canvas-button-response","317","461278","0.0-317.0","652","flower","","","","","","","","","","","","","","perceptual","","","2","25","","","","","198","bridge","10","0","0",""
"","","","","","","","","","","","canvas-button-response","318","461896","0.0-318.0","616","0","","","","","","","","","","","","","","confidence","","","2","25","","","","","","","","","","2"
"","","","","","","","","","","","preload","319","461897","0.0-319.0","","","","","true","","","","","","","","","","","preload","","","2","26","false","[]","[]","[]","","","","","",""
"","","","","","","","","","","","canvas-keyboard-response","320","462199","0.0-320.0","null","null","","","","","","","","","","","","","","fixation","","","2","26","","","","","","","","","",""
"","","","","","","","","","","","canvas-keyboard-response","321","462501","0.0-321.0","null","null","","","","","","","","","","","","","","stimulus","","","2","26","","","","","","","","","",""
"","","","","","","","","","","","canvas-button-response","322","462958","0.0-322.0","456","flower","","","","","","","","","","","","","","perceptual","","","2","26","","","","","319","cat","10","0","0",""
"","","","","","","","","","","","canvas-button-response","323","463446","0.0-323.0","486","0","","","","","","","","","","","","","","confidence","","","2","26","","","","","","","","","","2"
"","","","","","","","","","","","preload","324","463447","0.0-324.0","","","","","true","","","","","","","","","","","preload","","","2","27","false","[]","[]","[]","","","","","",""
"","","","","","","","","","","","canvas-keyboard-response","325","463749","0.0-325.0","null","null","","","","","","","","","","","","","","fixation","","","2","27","","","","","","","","","",""
"","","","","","","","","","","","canvas-keyboard-response","326","464051","0.0-326.0","null","null","","","","","","","","","","","","","","stimulus","","","2","27","","","","","","","","","",""
"","","","","","","","","","","","canvas-button-response","327","464671","0.0-327.0","618","flower","","","","","","","","","","","","","","perceptual","","","2","27","","","","","238","flower","10","0","1",""
"","","","","","","","","","","","canvas-button-response","328","465228","0.0-328.0","555","0","","","","","","","","","","","","","","confidence","","","2","27","","","","","","","","","","3"
"","","","","","","","","","","","preload","329","465228","0.0-329.0","","","","","true","","","","","","","","","","","preload","","","2","28","false","[]","[]","[]","","","","","",""
"","","","","","","","","","","","canvas-keyboard-response","330","465528","0.0-330.0","null","null","","","","","","","","","","","","","","fixation","","","2","28","","","","","","","","","",""
"","","","","","","","","","","","canvas-keyboard-response","331","465830","0.0-331.0","null","null","","","","","","","","","","","","","","stimulus","","","2","28","","","","","","","","","",""
"","","","","","","","","","","","canvas-button-response","332","466311","0.0-332.0","480","bed","","","","","","","","","","","","","","perceptual","","","2","28","","","","","322","elephant","6","0","0",""
"","","","","","","","","","","","canvas-button-response","333","466840","0.0-333.0","528","0","","","","","","","","","","","","","","confidence","","","2","28","","","","","","","","","","3"
"","","","","","","","","","","","preload","334","466841","0.0-334.0","","","","","true","","","","","","","","","","","preload","","","2","29","false","[]","[]","[]","","","","","",""
"","","","","","","","","","","","canvas-keyboard-response","335","467142","0.0-335.0","null","null","","","","","","","","","","","","","","fixation","","","2","29","","","","","","","","","",""
"","","","","","","","","","","","canvas-keyboard-response","336","467443","0.0-336.0","null","null","","","","","","","","","","","","","","stimulus","","","2","29","","","","","","","","","",""
"","","","","","","","","","","","canvas-button-response","337","468211","0.0-337.0","766","flower","","","","","","","","","","","","","","perceptual","","","2","29","","","","","25","house","10","0","0",""
"","","","","","","","","","","","canvas-button-response","338","468750","0.0-338.0","537","0","","","","","","","","","","","","","","confidence","","","2","29","","","","","","","","","","3"
"","","","","","","","","","","","preload","339","468751","0.0-339.0","","","","","true","","","","","","","","","","","preload","","","2","30","false","[]","[]","[]","","","","","",""
"","","","","","","","","","","","canvas-keyboard-response","340","469053","0.0-340.0","null","null","","","","","","","","","","","","","","fixation","","","2","30","","","","","","","","","",""
"","","","","","","","","","","","canvas-keyboard-response","341","469355","0.0-341.0","null","null","","","","","","","","","","","","","","stimulus","","","2","30","","","","","","","","","",""
"","","","","","","","","","","","canvas-button-response","342","470607","0.0-342.0","1252","bed","","","","","","","","","","","","","","perceptual","","","2","30","","","","","79","car","10","0","0",""
"","","","","","","","","","","","canvas-button-response","343","471303","0.0-343.0","694","0","","","","","","","","","","","","","","confidence","","","2","30","","","","","","","","","","3"
"","","","","","","","","","","","preload","344","471303","0.0-344.0","","","","","true","","","","","","","","","","","preload","","","2","31","false","[]","[]","[]","","","","","",""
"","","","","","","","","","","","canvas-keyboard-response","345","471604","0.0-345.0","null","null","","","","","","","","","","","","","","fixation","","","2","31","","","","","","","","","",""
"","","","","","","","","","","","canvas-keyboard-response","346","471906","0.0-346.0","null","null","","","","","","","","","","","","","","stimulus","","","2","31","","","","","","","","","",""
"","","","","","","","","","","","canvas-button-response","347","472357","0.0-347.0","450","flower","","","","","","","","","","","","","","perceptual","","","2","31","","","","","127","bed","6","0","0",""
"","","","","","","","","","","","canvas-button-response","348","473033","0.0-348.0","674","0","","","","","","","","","","","","","","confidence","","","2","31","","","","","","","","","","3"
"","","","","","","","","","","","preload","349","473034","0.0-349.0","","","","","true","","","","","","","","","","","preload","","","2","32","false","[]","[]","[]","","","","","",""
"","","","","","","","","","","","canvas-keyboard-response","350","473337","0.0-350.0","null","null","","","","","","","","","","","","","","fixation","","","2","32","","","","","","","","","",""
"","","","","","","","","","","","canvas-keyboard-response","351","473638","0.0-351.0","null","null","","","","","","","","","","","","","","stimulus","","","2","32","","","","","","","","","",""
"","","","","","","","","","","","canvas-button-response","352","474300","0.0-352.0","660","bed","","","","","","","","","","","","","","perceptual","","","2","32","","","","","339","elephant","6","0","0",""
"","","","","","","","","","","","canvas-button-response","353","474898","0.0-353.0","597","0","","","","","","","","","","","","","","confidence","","","2","32","","","","","","","","","","3"
"","","","","","","","","","","","preload","354","474898","0.0-354.0","","","","","true","","","","","","","","","","","preload","","","2","33","false","[]","[]","[]","","","","","",""
"","","","","","","","","","","","canvas-keyboard-response","355","475200","0.0-355.0","null","null","","","","","","","","","","","","","","fixation","","","2","33","","","","","","","","","",""
"","","","","","","","","","","","canvas-keyboard-response","356","475502","0.0-356.0","null","null","","","","","","","","","","","","","","stimulus","","","2","33","","","","","","","","","",""
"","","","","","","","","","","","canvas-button-response","357","475975","0.0-357.0","470","flower","","","","","","","","","","","","","","perceptual","","","2","33","","","","","325","elephant","6","0","0",""
"","","","","","","","","","","","canvas-button-response","358","476682","0.0-358.0","706","0","","","","","","","","","","","","","","confidence","","","2","33","","","","","","","","","","3"
"","","","","","","","","","","","preload","359","476683","0.0-359.0","","","","","true","","","","","","","","","","","preload","","","2","34","false","[]","[]","[]","","","","","",""
"","","","","","","","","","","","canvas-keyboard-response","360","476985","0.0-360.0","null","null","","","","","","","","","","","","","","fixation","","","2","34","","","","","","","","","",""
"","","","","","","","","","","","canvas-keyboard-response","361","477286","0.0-361.0","null","null","","","","","","","","","","","","","","stimulus","","","2","34","","","","","","","","","",""
"","","","","","","","","","","","canvas-button-response","362","477699","0.0-362.0","411","flower","","","","","","","","","","","","","","perceptual","","","2","34","","","","","41","car","6","0","0",""
"","","","","","","","","","","","canvas-button-response","363","478299","0.0-363.0","599","0","","","","","","","","","","","","","","confidence","","","2","34","","","","","","","","","","3"
"","","","","","","","","","","","preload","364","478300","0.0-364.0","","","","","true","","","","","","","","","","","preload","","","2","35","false","[]","[]","[]","","","","","",""
"","","","","","","","","","","","canvas-keyboard-response","365","478603","0.0-365.0","null","null","","","","","","","","","","","","","","fixation","","","2","35","","","","","","","","","",""
"","","","","","","","","","","","canvas-keyboard-response","366","478906","0.0-366.0","null","null","","","","","","","","","","","","","","stimulus","","","2","35","","","","","","","","","",""
"","","","","","","","","","","","canvas-button-response","367","479516","0.0-367.0","609","flower","","","","","","","","","","","","","","perceptual","","","2","35","","","","","278","train","10","0","0",""
"","","","","","","","","","","","canvas-button-response","368","480052","0.0-368.0","535","0","","","","","","","","","","","","","","confidence","","","2","35","","","","","","","","","","3"
"","","","","","","","","","","","preload","369","480053","0.0-369.0","","","","","true","","","","","","","","","","","preload","","","2","36","false","[]","[]","[]","","","","","",""
"","","","","","","","","","","","canvas-keyboard-response","370","480355","0.0-370.0","null","null","","","","","","","","","","","","","","fixation","","","2","36","","","","","","","","","",""
"","","","","","","","","","","","canvas-keyboard-response","371","480657","0.0-371.0","null","null","","","","","","","","","","","","","","stimulus","","","2","36","","","","","","","","","",""
"","","","","","","","","","","","canvas-button-response","372","481133","0.0-372.0","474","flower","","","","","","","","","","","","","","perceptual","","","2","36","","","","","275","train","10","0","0",""
"","","","","","","","","","","","canvas-button-response","373","481587","0.0-373.0","452","0","","","","","","","","","","","","","","confidence","","","2","36","","","","","","","","","","3"
"","","","","","","","","","","","preload","374","481588","0.0-374.0","","","","","true","","","","","","","","","","","preload","","","2","37","false","[]","[]","[]","","","","","",""
"","","","","","","","","","","","canvas-keyboard-response","375","481890","0.0-375.0","null","null","","","","","","","","","","","","","","fixation","","","2","37","","","","","","","","","",""
"","","","","","","","","","","","canvas-keyboard-response","376","482191","0.0-376.0","null","null","","","","","","","","","","","","","","stimulus","","","2","37","","","","","","","","","",""
"","","","","","","","","","","","canvas-button-response","377","482637","0.0-377.0","444","flower","","","","","","","","","","","","","","perceptual","","","2","37","","","","","332","elephant","6","0","0",""
"","","","","","","","","","","","canvas-button-response","378","483145","0.0-378.0","506","0","","","","","","","","","","","","","","confidence","","","2","37","","","","","","","","","","3"
"","","","","","","","","","","","preload","379","483146","0.0-379.0","","","","","true","","","","","","","","","","","preload","","","2","38","false","[]","[]","[]","","","","","",""
"","","","","","","","","","","","canvas-keyboard-response","380","483449","0.0-380.0","null","null","","","","","","","","","","","","","","fixation","","","2","38","","","","","","","","","",""
"","","","","","","","","","","","canvas-keyboard-response","381","483751","0.0-381.0","null","null","","","","","","","","","","","","","","stimulus","","","2","38","","","","","","","","","",""
"","","","","","","","","","","","canvas-button-response","382","484228","0.0-382.0","476","flower","","","","","","","","","","","","","","perceptual","","","2","38","","","","","119","phone","10","0","0",""
"","","","","","","","","","","","canvas-button-response","383","484711","0.0-383.0","482","0","","","","","","","","","","","","","","confidence","","","2","38","","","","","","","","","","3"
"","","","","","","","","","","","preload","384","484712","0.0-384.0","","","","","true","","","","","","","","","","","preload","","","2","39","false","[]","[]","[]","","","","","",""
"","","","","","","","","","","","canvas-keyboard-response","385","485013","0.0-385.0","null","null","","","","","","","","","","","","","","fixation","","","2","39","","","","","","","","","",""
"","","","","","","","","","","","canvas-keyboard-response","386","485315","0.0-386.0","null","null","","","","","","","","","","","","","","stimulus","","","2","39","","","","","","","","","",""
"","","","","","","","","","","","canvas-button-response","387","485716","0.0-387.0","398","bed","","","","","","","","","","","","","","perceptual","","","2","39","","","","","249","train","6","0","0",""
"","","","","","","","","","","","canvas-button-response","388","486203","0.0-388.0","486","0","","","","","","","","","","","","","","confidence","","","2","39","","","","","","","","","","3"
"","","","","","","","","","","","preload","389","486203","0.0-389.0","","","","","true","","","","","","","","","","","preload","","","2","40","false","[]","[]","[]","","","","","",""
"","","","","","","","","","","","canvas-keyboard-response","390","486504","0.0-390.0","null","null","","","","","","","","","","","","","","fixation","","","2","40","","","","","","","","","",""
"","","","","","","","","","","","canvas-keyboard-response","391","486806","0.0-391.0","null","null","","","","","","","","","","","","","","stimulus","","","2","40","","","","","","","","","",""
"","","","","","","","","","","","canvas-button-response","392","487350","0.0-392.0","542","flower","","","","","","","","","","","","","","perceptual","","","2","40","","","","","7","house","6","0","0",""
"","","","","","","","","","","","canvas-button-response","393","487836","0.0-393.0","485","0","","","","","","","","","","","","","","confidence","","","2","40","","","","","","","","","","3"
"","","","","","","","","","","","preload","394","487836","0.0-394.0","","","","","true","","","","","","","","","","","preload","","","2","41","false","[]","[]","[]","","","","","",""
"","","","","","","","","","","","canvas-keyboard-response","395","488137","0.0-395.0","null","null","","","","","","","","","","","","","","fixation","","","2","41","","","","","","","","","",""
"","","","","","","","","","","","canvas-keyboard-response","396","488439","0.0-396.0","null","null","","","","","","","","","","","","","","stimulus","","","2","41","","","","","","","","","",""
"","","","","","","","","","","","canvas-button-response","397","489420","0.0-397.0","979","bed","","","","","","","","","","","","","","perceptual","","","2","41","","","","","76","car","10","0","0",""
"","","","","","","","","","","","canvas-button-response","398","490470","0.0-398.0","1048","0","","","","","","","","","","","","","","confidence","","","2","41","","","","","","","","","","3"
"","","","","","","","","","","","preload","399","490471","0.0-399.0","","","","","true","","","","","","","","","","","preload","","","2","42","false","[]","[]","[]","","","","","",""
"","","","","","","","","","","","canvas-keyboard-response","400","490773","0.0-400.0","null","null","","","","","","","","","","","","","","fixation","","","2","42","","","","","","","","","",""
"","","","","","","","","","","","canvas-keyboard-response","401","491074","0.0-401.0","null","null","","","","","","","","","","","","","","stimulus","","","2","42","","","","","","","","","",""
"","","","","","","","","","","","canvas-button-response","402","491471","0.0-402.0","394","flower","","","","","","","","","","","","","","perceptual","","","2","42","","","","","257","train","6","0","0",""
"","","","","","","","","","","","canvas-button-response","403","492111","0.0-403.0","639","0","","","","","","","","","","","","","","confidence","","","2","42","","","","","","","","","","3"
"","","","","","","","","","","","preload","404","492112","0.0-404.0","","","","","true","","","","","","","","","","","preload","","","2","43","false","[]","[]","[]","","","","","",""
"","","","","","","","","","","","canvas-keyboard-response","405","492413","0.0-405.0","null","null","","","","","","","","","","","","","","fixation","","","2","43","","","","","","","","","",""
"","","","","","","","","","","","canvas-keyboard-response","406","492716","0.0-406.0","null","null","","","","","","","","","","","","","","stimulus","","","2","43","","","","","","","","","",""
"","","","","","","","","","","","canvas-button-response","407","493233","0.0-407.0","515","bed","","","","","","","","","","","","","","perceptual","","","2","43","","","","","78","car","10","0","0",""
"","","","","","","","","","","","canvas-button-response","408","493935","0.0-408.0","701","0","","","","","","","","","","","","","","confidence","","","2","43","","","","","","","","","","3"
"","","","","","","","","","","","preload","409","493936","0.0-409.0","","","","","true","","","","","","","","","","","preload","","","2","44","false","[]","[]","[]","","","","","",""
"","","","","","","","","","","","canvas-keyboard-response","410","494238","0.0-410.0","null","null","","","","","","","","","","","","","","fixation","","","2","44","","","","","","","","","",""
"","","","","","","","","","","","canvas-keyboard-response","411","494540","0.0-411.0","null","null","","","","","","","","","","","","","","stimulus","","","2","44","","","","","","","","","",""
"","","","","","","","","","","","canvas-button-response","412","495331","0.0-412.0","790","flower","","","","","","","","","","","","","","perceptual","","","2","44","","","","","83","phone","6","0","0",""
"","","","","","","","","","","","canvas-button-response","413","495966","0.0-413.0","634","0","","","","","","","","","","","","","","confidence","","","2","44","","","","","","","","","","3"
"","","","","","","","","","","","preload","414","495967","0.0-414.0","","","","","true","","","","","","","","","","","preload","","","2","45","false","[]","[]","[]","","","","","",""
"","","","","","","","","","","","canvas-keyboard-response","415","496269","0.0-415.0","null","null","","","","","","","","","","","","","","fixation","","","2","45","","","","","","","","","",""
"","","","","","","","","","","","canvas-keyboard-response","416","496571","0.0-416.0","null","null","","","","","","","","","","","","","","stimulus","","","2","45","","","","","","","","","",""
"","","","","","","","","","","","canvas-button-response","417","497157","0.0-417.0","585","flower","","","","","","","","","","","","","","perceptual","","","2","45","","","","","361","knife","6","0","0",""
"","","","","","","","","","","","canvas-button-response","418","497711","0.0-418.0","552","0","","","","","","","","","","","","","","confidence","","","2","45","","","","","","","","","","3"
"","","","","","","","","","","","preload","419","497712","0.0-419.0","","","","","true","","","","","","","","","","","preload","","","2","46","false","[]","[]","[]","","","","","",""
"","","","","","","","","","","","canvas-keyboard-response","420","498015","0.0-420.0","null","null","","","","","","","","","","","","","","fixation","","","2","46","","","","","","","","","",""
"","","","","","","","","","","","canvas-keyboard-response","421","498317","0.0-421.0","null","null","","","","","","","","","","","","","","stimulus","","","2","46","","","","","","","","","",""
"","","","","","","","","","","","canvas-button-response","422","499182","0.0-422.0","864","bed","","","","","","","","","","","","","","perceptual","","","2","46","","","","","197","bridge","10","0","0",""
"","","","","","","","","","","","canvas-button-response","423","500086","0.0-423.0","903","0","","","","","","","","","","","","","","confidence","","","2","46","","","","","","","","","","3"
"","","","","","","","","","","","preload","424","500087","0.0-424.0","","","","","true","","","","","","","","","","","preload","","","2","47","false","[]","[]","[]","","","","","",""
"","","","","","","","","","","","canvas-keyboard-response","425","500389","0.0-425.0","null","null","","","","","","","","","","","","","","fixation","","","2","47","","","","","","","","","",""
"","","","","","","","","","","","canvas-keyboard-response","426","500691","0.0-426.0","null","null","","","","","","","","","","","","","","stimulus","","","2","47","","","","","","","","","",""
"","","","","","","","","","","","canvas-button-response","427","503103","0.0-427.0","2411","bridge","","","","","","","","","","","","","","perceptual","","","2","47","","","","","164","bridge","6","0","1",""
"","","","","","","","","","","","canvas-button-response","428","504386","0.0-428.0","1281","5","","","","","","","","","","","","","","confidence","","","2","47","","","","","","","","","","4"
"","","","","","","","","","","","preload","429","504386","0.0-429.0","","","","","true","","","","","","","","","","","preload","","","2","48","false","[]","[]","[]","","","","","",""
"","","","","","","","","","","","canvas-keyboard-response","430","504687","0.0-430.0","null","null","","","","","","","","","","","","","","fixation","","","2","48","","","","","","","","","",""
"","","","","","","","","","","","canvas-keyboard-response","431","504989","0.0-431.0","null","null","","","","","","","","","","","","","","stimulus","","","2","48","","","","","","","","","",""
"","","","","","","","","","","","canvas-button-response","432","506033","0.0-432.0","1042","bed","","","","","","","","","","","","","","perceptual","","","2","48","","","","","46","car","6","0","0",""
"","","","","","","","","","","","canvas-button-response","433","506595","0.0-433.0","560","0","","","","","","","","","","","","","","confidence","","","2","48","","","","","","","","","","4"
"","","","","","","","","","","","preload","434","506596","0.0-434.0","","","","","true","","","","","","","","","","","preload","","","2","49","false","[]","[]","[]","","","","","",""
"","","","","","","","","","","","canvas-keyboard-response","435","506899","0.0-435.0","null","null","","","","","","","","","","","","","","fixation","","","2","49","","","","","","","","","",""
"","","","","","","","","","","","canvas-keyboard-response","436","507200","0.0-436.0","null","null","","","","","","","","","","","","","","stimulus","","","2","49","","","","","","","","","",""
"","","","","","","","","","","","canvas-button-response","437","507516","0.0-437.0","314","bed","","","","","","","","","","","","","","perceptual","","","2","49","","","","","22","house","10","0","0",""
"","","","","","","","","","","","canvas-button-response","438","507998","0.0-438.0","481","0","","","","","","","","","","","","","","confidence","","","2","49","","","","","","","","","","4"
"","","","","","","","","","","","html-button-response","439","511990","0.0-439.0","3991","0","","","","","","","","","","","","","","<p style=""font-size:20px;color:#000000"">You got 4 out of 50 trials correct in this block.<br><br>You have completed 6% of the experiment.<br><br>Take a short break.<br><br>When you are ready, click Continue to proceed.","","","2","49","","","","","","","","","",""
"","","","","","","","","","","","html-keyboard-response","440","512992","0.0-440.0","null","null","","","","","","","","","","","","","","<p style=""font-size:32px;color:#000000""><br><br> RUN: &nbsp 1/4 <br><br> BLOCK: 2/4 ","","","2","49","","","","","","","","","",""
"","","","","","","","","","","","preload","441","512992","0.0-441.0","","","","","true","","","","","","","","","","","preload","","","2","50","false","[]","[]","[]","","","","","",""
"","","","","","","","","","","","canvas-keyboard-response","442","513293","0.0-442.0","null","null","","","","","","","","","","","","","","fixation","","","2","50","","","","","","","","","",""
"","","","","","","","","","","","canvas-keyboard-response","443","513596","0.0-443.0","null","null","","","","","","","","","","","","","","stimulus","","","2","50","","","","","","","","","",""
"","","","","","","","","","","","canvas-button-response","444","514133","0.0-444.0","534","flower","","","","","","","","","","","","","","perceptual","","","2","50","","","","","163","bridge","6","0","0",""
"","","","","","","","","","","","canvas-button-response","445","514586","0.0-445.0","452","1","","","","","","","","","","","","","","confidence","","","2","50","","","","","","","","","","0"
"","","","","","","","","","","","preload","446","514587","0.0-446.0","","","","","true","","","","","","","","","","","preload","","","2","51","false","[]","[]","[]","","","","","",""
"","","","","","","","","","","","canvas-keyboard-response","447","514888","0.0-447.0","null","null","","","","","","","","","","","","","","fixation","","","2","51","","","","","","","","","",""
"","","","","","","","","","","","canvas-keyboard-response","448","515189","0.0-448.0","null","null","","","","","","","","","","","","","","stimulus","","","2","51","","","","","","","","","",""
"","","","","","","","","","","","canvas-button-response","449","515907","0.0-449.0","716","flower","","","","","","","","","","","","","","perceptual","","","2","51","","","","","153","bed","10","0","0",""
"","","","","","","","","","","","canvas-button-response","450","516358","0.0-450.0","448","0","","","","","","","","","","","","","","confidence","","","2","51","","","","","","","","","","0"
"","","","","","","","","","","","preload","451","516358","0.0-451.0","","","","","true","","","","","","","","","","","preload","","","2","52","false","[]","[]","[]","","","","","",""
"","","","","","","","","","","","canvas-keyboard-response","452","516661","0.0-452.0","null","null","","","","","","","","","","","","","","fixation","","","2","52","","","","","","","","","",""
"","","","","","","","","","","","canvas-keyboard-response","453","516963","0.0-453.0","null","null","","","","","","","","","","","","","","stimulus","","","2","52","","","","","","","","","",""
"","","","","","","","","","","","canvas-button-response","454","518194","0.0-454.0","1229","bed","","","","","","","","","","","","","","perceptual","","","2","52","","","","","120","bed","6","0","1",""
"","","","","","","","","","","","canvas-button-response","455","519865","0.0-455.0","1670","10","","","","","","","","","","","","","","confidence","","","2","52","","","","","","","","","","1"
"","","","","","","","","","","","preload","456","519865","0.0-456.0","","","","","true","","","","","","","","","","","preload","","","2","53","false","[]","[]","[]","","","","","",""
"","","","","","","","","","","","canvas-keyboard-response","457","520167","0.0-457.0","null","null","","","","","","","","","","","","","","fixation","","","2","53","","","","","","","","","",""
"","","","","","","","","","","","canvas-keyboard-response","458","520470","0.0-458.0","null","null","","","","","","","","","","","","","","stimulus","","","2","53","","","","","","","","","",""
"","","","","","","","","","","","canvas-button-response","459","521590","0.0-459.0","1118","flower","","","","","","","","","","","","","","perceptual","","","2","53","","","","","295","cat","6","0","0",""
"","","","","","","","","","","","canvas-button-response","460","522915","0.0-460.0","1324","0","","","","","","","","","","","","","","confidence","","","2","53","","","","","","","","","","1"
"","","","","","","","","","","","preload","461","522916","0.0-461.0","","","","","true","","","","","","","","","","","preload","","","2","54","false","[]","[]","[]","","","","","",""
"","","","","","","","","","","","canvas-keyboard-response","462","523219","0.0-462.0","null","null","","","","","","","","","","","","","","fixation","","","2","54","","","","","","","","","",""
"","","","","","","","","","","","canvas-keyboard-response","463","523521","0.0-463.0","null","null","","","","","","","","","","","","","","stimulus","","","2","54","","","","","","","","","",""
"","","","","","","","","","","","canvas-button-response","464","524586","0.0-464.0","1063","flower","","","","","","","","","","","","","","perceptual","","","2","54","","","","","301","cat","10","0","0",""
"","","","","","","","","","","","canvas-button-response","465","525010","0.0-465.0","423","0","","","","","","","","","","","","","","confidence","","","2","54","","","","","","","","","","1"
"","","","","","","","","","","","preload","466","525010","0.0-466.0","","","","","true","","","","","","","","","","","preload","","","2","55","false","[]","[]","[]","","","","","",""
"","","","","","","","","","","","canvas-keyboard-response","467","525311","0.0-467.0","null","null","","","","","","","","","","","","","","fixation","","","2","55","","","","","","","","","",""
"","","","","","","","","","","","canvas-keyboard-response","468","525614","0.0-468.0","null","null","","","","","","","","","","","","","","stimulus","","","2","55","","","","","","","","","",""
"","","","","","","","","","","","canvas-button-response","469","525982","0.0-469.0","367","flower","","","","","","","","","","","","","","perceptual","","","2","55","","","","","378","knife","6","0","0",""
"","","","","","","","","","","","canvas-button-response","470","526487","0.0-470.0","502","0","","","","","","","","","","","","","","confidence","","","2","55","","","","","","","","","","1"
"","","","","","","","","","","","preload","471","526488","0.0-471.0","","","","","true","","","","","","","","","","","preload","","","2","56","false","[]","[]","[]","","","","","",""
"","","","","","","","","","","","canvas-keyboard-response","472","526790","0.0-472.0","null","null","","","","","","","","","","","","","","fixation","","","2","56","","","","","","","","","",""
"","","","","","","","","","","","canvas-keyboard-response","473","527092","0.0-473.0","null","null","","","","","","","","","","","","","","stimulus","","","2","56","","","","","","","","","",""
"","","","","","","","","","","","canvas-button-response","474","527414","0.0-474.0","321","flower","","","","","","","","","","","","","","perceptual","","","2","56","","","","","347","elephant","10","0","0",""
"","","","","","","","","","","","canvas-button-response","475","527873","0.0-475.0","458","0","","","","","","","","","","","","","","confidence","","","2","56","","","","","","","","","","1"
"","","","","","","","","","","","preload","476","527873","0.0-476.0","","","","","true","","","","","","","","","","","preload","","","2","57","false","[]","[]","[]","","","","","",""
"","","","","","","","","","","","canvas-keyboard-response","477","528175","0.0-477.0","null","null","","","","","","","","","","","","","","fixation","","","2","57","","","","","","","","","",""
"","","","","","","","","","","","canvas-keyboard-response","478","528477","0.0-478.0","null","null","","","","","","","","","","","","","","stimulus","","","2","57","","","","","","","","","",""
"","","","","","","","","","","","canvas-button-response","479","528974","0.0-479.0","495","flower","","","","","","","","","","","","","","perceptual","","","2","57","","","","","389","knife","10","0","0",""
"","","","","","","","","","","","canvas-button-response","480","529524","0.0-480.0","548","0","","","","","","","","","","","","","","confidence","","","2","57","","","","","","","","","","1"
"","","","","","","","","","","","preload","481","529525","0.0-481.0","","","","","true","","","","","","","","","","","preload","","","2","58","false","[]","[]","[]","","","","","",""
"","","","","","","","","","","","canvas-keyboard-response","482","529827","0.0-482.0","null","null","","","","","","","","","","","","","","fixation","","","2","58","","","","","","","","","",""
"","","","","","","","","","","","canvas-keyboard-response","483","530130","0.0-483.0","null","null","","","","","","","","","","","","","","stimulus","","","2","58","","","","","","","","","",""
"","","","","","","","","","","","canvas-button-response","484","530499","0.0-484.0","367","flower","","","","","","","","","","","","","","perceptual","","","2","58","","","","","195","bridge","10","0","0",""
"","","","","","","","","","","","canvas-button-response","485","530927","0.0-485.0","427","0","","","","","","","","","","","","","","confidence","","","2","58","","","","","","","","","","1"
"","","","","","","","","","","","preload","486","530928","0.0-486.0","","","","","true","","","","","","","","","","","preload","","","2","59","false","[]","[]","[]","","","","","",""
"","","","","","","","","","","","canvas-keyboard-response","487","531229","0.0-487.0","null","null","","","","","","","","","","","","","","fixation","","","2","59","","","","","","","","","",""
"","","","","","","","","","","","canvas-keyboard-response","488","531531","0.0-488.0","null","null","","","","","","","","","","","","","","stimulus","","","2","59","","","","","","","","","",""
"","","","","","","","","","","","canvas-button-response","489","531865","0.0-489.0","333","flower","","","","","","","","","","","","","","perceptual","","","2","59","","","","","276","train","10","0","0",""
"","","","","","","","","","","","canvas-button-response","490","532325","0.0-490.0","458","0","","","","","","","","","","","","","","confidence","","","2","59","","","","","","","","","","1"
"","","","","","","","","","","","preload","491","532326","0.0-491.0","","","","","true","","","","","","","","","","","preload","","","2","60","false","[]","[]","[]","","","","","",""
"","","","","","","","","","","","canvas-keyboard-response","492","532627","0.0-492.0","null","null","","","","","","","","","","","","","","fixation","","","2","60","","","","","","","","","",""
