"width","height","webaudio","browser","browser_version","mobile","os","fullscreen","vsync_rate","webcam","microphone","trial_type","trial_index","time_elapsed","internal_node_id","rt","response","accuracy","view_history","success","item_width_mm","item_height_mm","item_width_px","px2mm","view_dist_mm","item_width_deg","px2deg","scale_factor","win_width_deg","win_height_deg","stimulus","datetime","subjectID","curr_triallist","trial_no","timeout","failed_images","failed_audio","failed_video","image_index","category","blur","reps","correct","running_score"
"1470","832","true","chrome","139.0.0","false","Mac OS","true","60.01","true","true","browser-check","0","1011","0.0-0.0","","","","","","","","","","","","","","","","","","","","","","","","","","","","","",""
"","","","","","","","","","","","survey","1","36577","0.0-1.0","35525","{""P0_Q0"":""903856065"",""P0_Q1"":""20"",""P1_Q0"":""Female"",""P1_Q1"":""Not Hispanic or Latino"",""P1_Q2"":""White"",""P1_Q3"":""Corrected-to-Normal (using glasses/contacts)"",""P1_Q4"":""Right-Handed""}","[]","","","","","","","","","","","","","","","","","","","","","","","","","","",""
"","","","","","","","","","","","instructions","2","112573","0.0-2.0","75992","","","[{""page_index"":0,""viewing_time"":4391},{""page_index"":1,""viewing_time"":52102},{""page_index"":2,""viewing_time"":11092},{""page_index"":3,""viewing_time"":8407}]","","","","","","","","","","","","","","","","","","","","","","","","","",""
"","","","","","","","","","","","fullscreen","3","114780","0.0-3.0","1203","","","","true","","","","","","","","","","","","","","","","","","","","","","","","",""
"","","","","","","","","","","","virtual-chinrest","4","258153","0.0-4.0","143368","","","","","85.6","53.98","258.6889881682527","3.0220119124724456","567.7","8.622966272275091","30","1.6776902761617516","49","30.666666666666668","","","","","","","","","","","","","","",""
"","","","","","","","","","","","instructions","5","331669","0.0-5.0","73514","","","[{""page_index"":0,""viewing_time"":8990},{""page_index"":1,""viewing_time"":6317},{""page_index"":2,""viewing_time"":7751},{""page_index"":3,""viewing_time"":6676},{""page_index"":4,""viewing_time"":4805},{""page_index"":5,""viewing_time"":35420},{""page_index"":6,""viewing_time"":3554}]","","","","","","","","","","","","","","","","","","","","","","","","","",""
"","","","","","","","","","","","html-button-response","6","342366","0.0-6.0","10691","0","","","","","","","","","","","","","","start_practice","Mon Oct 13 2025 13:27:47 GMT-0400 (Eastern Daylight Time)","23985","","","","","","","","","","","",""
"","","","","","","","","","","","preload","7","342366","0.0-7.0","","","","","true","","","","","","","","","","","preload","","","0","0","false","[]","[]","[]","","","","","",""
"","","","","","","","","","","","canvas-keyboard-response","8","342672","0.0-8.0","null","null","","","","","","","","","","","","","","fixation","","","0","0","","","","","","","","","",""
"","","","","","","","","","","","canvas-keyboard-response","9","342977","0.0-9.0","null","null","","","","","","","","","","","","","","stimulus","","","0","0","","","","","","","","","",""
"","","","","","","","","","","","canvas-button-response","10","345252","0.0-10.0","2270","bed","","","","","","","","","","","","","","perceptual","","","0","0","","","","","32","bed","1","","1",""
"","","","","","","","","","","","canvas-button-response","11","347086","0.0-11.0","1832","10","","","","","","","","","","","","","","confidence","","","0","0","","","","","","","","","","1"
"","","","","","","","","","","","html-keyboard-response","12","348088","0.0-12.0","null","null","","","","","","","","","","","","","","feedback","Mon Oct 13 2025 13:28:02 GMT-0400 (Eastern Daylight Time)","23985","0","0","","","","","","","","","",""
"","","","","","","","","","","","preload","13","348088","0.0-13.0","","","","","true","","","","","","","","","","","preload","","","0","1","false","[]","[]","[]","","","","","",""
"","","","","","","","","","","","canvas-keyboard-response","14","348390","0.0-14.0","null","null","","","","","","","","","","","","","","fixation","","","0","1","","","","","","","","","",""
"","","","","","","","","","","","canvas-keyboard-response","15","348692","0.0-15.0","null","null","","","","","","","","","","","","","","stimulus","","","0","1","","","","","","","","","",""
"","","","","","","","","","","","canvas-button-response","16","349906","0.0-16.0","1212","house","","","","","","","","","","","","","","perceptual","","","0","1","","","","","2","house","1","","1",""
"","","","","","","","","","","","canvas-button-response","17","351394","0.0-17.0","1487","10","","","","","","","","","","","","","","confidence","","","0","1","","","","","","","","","","2"
"","","","","","","","","","","","html-keyboard-response","18","352396","0.0-18.0","null","null","","","","","","","","","","","","","","feedback","Mon Oct 13 2025 13:28:06 GMT-0400 (Eastern Daylight Time)","23985","0","1","","","","","","","","","",""
"","","","","","","","","","","","preload","19","352397","0.0-19.0","","","","","true","","","","","","","","","","","preload","","","0","2","false","[]","[]","[]","","","","","",""
"","","","","","","","","","","","canvas-keyboard-response","20","352700","0.0-20.0","null","null","","","","","","","","","","","","","","fixation","","","0","2","","","","","","","","","",""
"","","","","","","","","","","","canvas-keyboard-response","21","353003","0.0-21.0","null","null","","","","","","","","","","","","","","stimulus","","","0","2","","","","","","","","","",""
"","","","","","","","","","","","canvas-button-response","22","353894","0.0-22.0","890","train","","","","","","","","","","","","","","perceptual","","","0","2","","","","","62","train","1","","1",""
"","","","","","","","","","","","canvas-button-response","23","354538","0.0-23.0","642","10","","","","","","","","","","","","","","confidence","","","0","2","","","","","","","","","","3"
"","","","","","","","","","","","html-keyboard-response","24","355541","0.0-24.0","null","null","","","","","","","","","","","","","","feedback","Mon Oct 13 2025 13:28:09 GMT-0400 (Eastern Daylight Time)","23985","0","2","","","","","","","","","",""
"","","","","","","","","","","","preload","25","355542","0.0-25.0","","","","","true","","","","","","","","","","","preload","","","0","3","false","[]","[]","[]","","","","","",""
"","","","","","","","","","","","canvas-keyboard-response","26","355844","0.0-26.0","null","null","","","","","","","","","","","","","","fixation","","","0","3","","","","","","","","","",""
"","","","","","","","","","","","canvas-keyboard-response","27","356147","0.0-27.0","null","null","","","","","","","","","","","","","","stimulus","","","0","3","","","","","","","","","",""
"","","","","","","","","","","","canvas-button-response","28","366915","0.0-28.0","10765","elephant","","","","","","","","","","","","","","perceptual","","","0","3","","","","","82","elephant","1","","1",""
"","","","","","","","","","","","canvas-button-response","29","368047","0.0-29.0","1131","1","","","","","","","","","","","","","","confidence","","","0","3","","","","","","","","","","4"
"","","","","","","","","","","","html-keyboard-response","30","369049","0.0-30.0","null","null","","","","","","","","","","","","","","feedback","Mon Oct 13 2025 13:28:23 GMT-0400 (Eastern Daylight Time)","23985","0","3","","","","","","","","","",""
"","","","","","","","","","","","preload","31","369049","0.0-31.0","","","","","true","","","","","","","","","","","preload","","","0","4","false","[]","[]","[]","","","","","",""
"","","","","","","","","","","","canvas-keyboard-response","32","369350","0.0-32.0","null","null","","","","","","","","","","","","","","fixation","","","0","4","","","","","","","","","",""
"","","","","","","","","","","","canvas-keyboard-response","33","369651","0.0-33.0","null","null","","","","","","","","","","","","","","stimulus","","","0","4","","","","","","","","","",""
"","","","","","","","","","","","canvas-button-response","34","370741","0.0-34.0","1089","phone","","","","","","","","","","","","","","perceptual","","","0","4","","","","","22","phone","1","","1",""
"","","","","","","","","","","","canvas-button-response","35","371593","0.0-35.0","851","10","","","","","","","","","","","","","","confidence","","","0","4","","","","","","","","","","5"
"","","","","","","","","","","","html-keyboard-response","36","372594","0.0-36.0","null","null","","","","","","","","","","","","","","feedback","Mon Oct 13 2025 13:28:26 GMT-0400 (Eastern Daylight Time)","23985","0","4","","","","","","","","","",""
"","","","","","","","","","","","preload","37","372596","0.0-37.0","","","","","true","","","","","","","","","","","preload","","","0","5","false","[]","[]","[]","","","","","",""
"","","","","","","","","","","","canvas-keyboard-response","38","372898","0.0-38.0","null","null","","","","","","","","","","","","","","fixation","","","0","5","","","","","","","","","",""
"","","","","","","","","","","","canvas-keyboard-response","39","373201","0.0-39.0","null","null","","","","","","","","","","","","","","stimulus","","","0","5","","","","","","","","","",""
"","","","","","","","","","","","canvas-button-response","40","373940","0.0-40.0","737","cat","","","","","","","","","","","","","","perceptual","","","0","5","","","","","72","cat","1","","1",""
"","","","","","","","","","","","canvas-button-response","41","374656","0.0-41.0","715","10","","","","","","","","","","","","","","confidence","","","0","5","","","","","","","","","","6"
"","","","","","","","","","","","html-keyboard-response","42","375658","0.0-42.0","null","null","","","","","","","","","","","","","","feedback","Mon Oct 13 2025 13:28:30 GMT-0400 (Eastern Daylight Time)","23985","0","5","","","","","","","","","",""
"","","","","","","","","","","","preload","43","375659","0.0-43.0","","","","","true","","","","","","","","","","","preload","","","0","6","false","[]","[]","[]","","","","","",""
"","","","","","","","","","","","canvas-keyboard-response","44","375961","0.0-44.0","null","null","","","","","","","","","","","","","","fixation","","","0","6","","","","","","","","","",""
"","","","","","","","","","","","canvas-keyboard-response","45","376265","0.0-45.0","null","null","","","","","","","","","","","","","","stimulus","","","0","6","","","","","","","","","",""
"","","","","","","","","","","","canvas-button-response","46","379006","0.0-46.0","2739","house","","","","","","","","","","","","","","perceptual","","","0","6","","","","","52","flower","1","","0",""
"","","","","","","","","","","","canvas-button-response","47","379890","0.0-47.0","883","7","","","","","","","","","","","","","","confidence","","","0","6","","","","","","","","","","6"
"","","","","","","","","","","","html-keyboard-response","48","380892","0.0-48.0","null","null","","","","","","","","","","","","","","feedback","Mon Oct 13 2025 13:28:35 GMT-0400 (Eastern Daylight Time)","23985","0","6","","","","","","","","","",""
"","","","","","","","","","","","preload","49","380893","0.0-49.0","","","","","true","","","","","","","","","","","preload","","","0","7","false","[]","[]","[]","","","","","",""
"","","","","","","","","","","","canvas-keyboard-response","50","381194","0.0-50.0","null","null","","","","","","","","","","","","","","fixation","","","0","7","","","","","","","","","",""
"","","","","","","","","","","","canvas-keyboard-response","51","381496","0.0-51.0","null","null","","","","","","","","","","","","","","stimulus","","","0","7","","","","","","","","","",""
"","","","","","","","","","","","canvas-button-response","52","384698","0.0-52.0","3200","knife","","","","","","","","","","","","","","perceptual","","","0","7","","","","","92","knife","1","","1",""
"","","","","","","","","","","","canvas-button-response","53","385968","0.0-53.0","1269","9","","","","","","","","","","","","","","confidence","","","0","7","","","","","","","","","","7"
"","","","","","","","","","","","html-keyboard-response","54","386970","0.0-54.0","null","null","","","","","","","","","","","","","","feedback","Mon Oct 13 2025 13:28:41 GMT-0400 (Eastern Daylight Time)","23985","0","7","","","","","","","","","",""
"","","","","","","","","","","","preload","55","386971","0.0-55.0","","","","","true","","","","","","","","","","","preload","","","0","8","false","[]","[]","[]","","","","","",""
"","","","","","","","","","","","canvas-keyboard-response","56","387273","0.0-56.0","null","null","","","","","","","","","","","","","","fixation","","","0","8","","","","","","","","","",""
"","","","","","","","","","","","canvas-keyboard-response","57","387576","0.0-57.0","null","null","","","","","","","","","","","","","","stimulus","","","0","8","","","","","","","","","",""
"","","","","","","","","","","","canvas-button-response","58","389080","0.0-58.0","1502","bridge","","","","","","","","","","","","","","perceptual","","","0","8","","","","","42","bridge","1","","1",""
"","","","","","","","","","","","canvas-button-response","59","390005","0.0-59.0","924","10","","","","","","","","","","","","","","confidence","","","0","8","","","","","","","","","","8"
"","","","","","","","","","","","html-keyboard-response","60","391007","0.0-60.0","null","null","","","","","","","","","","","","","","feedback","Mon Oct 13 2025 13:28:45 GMT-0400 (Eastern Daylight Time)","23985","0","8","","","","","","","","","",""
"","","","","","","","","","","","preload","61","391007","0.0-61.0","","","","","true","","","","","","","","","","","preload","","","0","9","false","[]","[]","[]","","","","","",""
"","","","","","","","","","","","canvas-keyboard-response","62","391310","0.0-62.0","null","null","","","","","","","","","","","","","","fixation","","","0","9","","","","","","","","","",""
"","","","","","","","","","","","canvas-keyboard-response","63","391613","0.0-63.0","null","null","","","","","","","","","","","","","","stimulus","","","0","9","","","","","","","","","",""
"","","","","","","","","","","","canvas-button-response","64","392593","0.0-64.0","979","car","","","","","","","","","","","","","","perceptual","","","0","9","","","","","12","car","1","","1",""
"","","","","","","","","","","","canvas-button-response","65","393349","0.0-65.0","755","10","","","","","","","","","","","","","","confidence","","","0","9","","","","","","","","","","9"
"","","","","","","","","","","","html-keyboard-response","66","394351","0.0-66.0","null","null","","","","","","","","","","","","","","feedback","Mon Oct 13 2025 13:28:48 GMT-0400 (Eastern Daylight Time)","23985","0","9","","","","","","","","","",""
"","","","","","","","","","","","html-button-response","67","402906","0.0-67.0","8551","0","","","","","","","","","","","","","","start_practice","Mon Oct 13 2025 13:28:49 GMT-0400 (Eastern Daylight Time)","23985","0","9","","","","","","","","","",""
"","","","","","","","","","","","preload","68","402907","0.0-68.0","","","","","true","","","","","","","","","","","preload","","","1","0","false","[]","[]","[]","","","","","",""
"","","","","","","","","","","","canvas-keyboard-response","69","403209","0.0-69.0","null","null","","","","","","","","","","","","","","fixation","","","1","0","","","","","","","","","",""
"","","","","","","","","","","","canvas-keyboard-response","70","403511","0.0-70.0","null","null","","","","","","","","","","","","","","stimulus","","","1","0","","","","","","","","","",""
"","","","","","","","","","","","canvas-button-response","71","411448","0.0-71.0","7935","flower","","","","","","","","","","","","","","perceptual","","","1","0","","","","","54","flower","6","","1",""
"","","","","","","","","","","","canvas-button-response","72","412111","0.0-72.0","662","1","","","","","","","","","","","","","","confidence","","","1","0","","","","","","","","","","1"
"","","","","","","","","","","","html-keyboard-response","73","413114","0.0-73.0","null","null","","","","","","","","","","","","","","feedback","Mon Oct 13 2025 13:29:07 GMT-0400 (Eastern Daylight Time)","23985","1","0","","","","","","","","","",""
"","","","","","","","","","","","preload","74","413115","0.0-74.0","","","","","true","","","","","","","","","","","preload","","","1","1","false","[]","[]","[]","","","","","",""
"","","","","","","","","","","","canvas-keyboard-response","75","413419","0.0-75.0","null","null","","","","","","","","","","","","","","fixation","","","1","1","","","","","","","","","",""
"","","","","","","","","","","","canvas-keyboard-response","76","413722","0.0-76.0","null","null","","","","","","","","","","","","","","stimulus","","","1","1","","","","","","","","","",""
"","","","","","","","","","","","canvas-button-response","77","414764","0.0-77.0","1040","knife","","","","","","","","","","","","","","perceptual","","","1","1","","","","","97","knife","10","","1",""
"","","","","","","","","","","","canvas-button-response","78","416155","0.0-78.0","1390","8","","","","","","","","","","","","","","confidence","","","1","1","","","","","","","","","","2"
"","","","","","","","","","","","html-keyboard-response","79","417157","0.0-79.0","null","null","","","","","","","","","","","","","","feedback","Mon Oct 13 2025 13:29:11 GMT-0400 (Eastern Daylight Time)","23985","1","1","","","","","","","","","",""
"","","","","","","","","","","","preload","80","417158","0.0-80.0","","","","","true","","","","","","","","","","","preload","","","1","2","false","[]","[]","[]","","","","","",""
"","","","","","","","","","","","canvas-keyboard-response","81","417460","0.0-81.0","null","null","","","","","","","","","","","","","","fixation","","","1","2","","","","","","","","","",""
"","","","","","","","","","","","canvas-keyboard-response","82","417763","0.0-82.0","null","null","","","","","","","","","","","","","","stimulus","","","1","2","","","","","","","","","",""
"","","","","","","","","","","","canvas-button-response","83","423676","0.0-83.0","5911","cat","","","","","","","","","","","","","","perceptual","","","1","2","","","","","74","cat","6","","1",""
"","","","","","","","","","","","canvas-button-response","84","424413","0.0-84.0","736","6","","","","","","","","","","","","","","confidence","","","1","2","","","","","","","","","","3"
"","","","","","","","","","","","html-keyboard-response","85","425415","0.0-85.0","null","null","","","","","","","","","","","","","","feedback","Mon Oct 13 2025 13:29:19 GMT-0400 (Eastern Daylight Time)","23985","1","2","","","","","","","","","",""
"","","","","","","","","","","","preload","86","425417","0.0-86.0","","","","","true","","","","","","","","","","","preload","","","1","3","false","[]","[]","[]","","","","","",""
"","","","","","","","","","","","canvas-keyboard-response","87","425720","0.0-87.0","null","null","","","","","","","","","","","","","","fixation","","","1","3","","","","","","","","","",""
"","","","","","","","","","","","canvas-keyboard-response","88","426023","0.0-88.0","null","null","","","","","","","","","","","","","","stimulus","","","1","3","","","","","","","","","",""
"","","","","","","","","","","","canvas-button-response","89","427552","0.0-89.0","1527","train","","","","","","","","","","","","","","perceptual","","","1","3","","","","","64","train","6","","1",""
"","","","","","","","","","","","canvas-button-response","90","428453","0.0-90.0","900","5","","","","","","","","","","","","","","confidence","","","1","3","","","","","","","","","","4"
"","","","","","","","","","","","html-keyboard-response","91","429456","0.0-91.0","null","null","","","","","","","","","","","","","","feedback","Mon Oct 13 2025 13:29:23 GMT-0400 (Eastern Daylight Time)","23985","1","3","","","","","","","","","",""
"","","","","","","","","","","","preload","92","429457","0.0-92.0","","","","","true","","","","","","","","","","","preload","","","1","4","false","[]","[]","[]","","","","","",""
"","","","","","","","","","","","canvas-keyboard-response","93","429761","0.0-93.0","null","null","","","","","","","","","","","","","","fixation","","","1","4","","","","","","","","","",""
"","","","","","","","","","","","canvas-keyboard-response","94","430063","0.0-94.0","null","null","","","","","","","","","","","","","","stimulus","","","1","4","","","","","","","","","",""
"","","","","","","","","","","","canvas-button-response","95","432588","0.0-95.0","2524","house","","","","","","","","","","","","","","perceptual","","","1","4","","","","","34","bed","6","","0",""
"","","","","","","","","","","","canvas-button-response","96","433175","0.0-96.0","587","5","","","","","","","","","","","","","","confidence","","","1","4","","","","","","","","","","4"
"","","","","","","","","","","","html-keyboard-response","97","434177","0.0-97.0","null","null","","","","","","","","","","","","","","feedback","Mon Oct 13 2025 13:29:28 GMT-0400 (Eastern Daylight Time)","23985","1","4","","","","","","","","","",""
"","","","","","","","","","","","preload","98","434177","0.0-98.0","","","","","true","","","","","","","","","","","preload","","","1","5","false","[]","[]","[]","","","","","",""
"","","","","","","","","","","","canvas-keyboard-response","99","434478","0.0-99.0","null","null","","","","","","","","","","","","","","fixation","","","1","5","","","","","","","","","",""
"","","","","","","","","","","","canvas-keyboard-response","100","434780","0.0-100.0","null","null","","","","","","","","","","","","","","stimulus","","","1","5","","","","","","","","","",""
"","","","","","","","","","","","canvas-button-response","101","443196","0.0-101.0","8413","house","","","","","","","","","","","","","","perceptual","","","1","5","","","","","94","knife","6","","0",""
"","","","","","","","","","","","canvas-button-response","102","444079","0.0-102.0","882","3","","","","","","","","","","","","","","confidence","","","1","5","","","","","","","","","","4"
"","","","","","","","","","","","html-keyboard-response","103","445083","0.0-103.0","null","null","","","","","","","","","","","","","","feedback","Mon Oct 13 2025 13:29:39 GMT-0400 (Eastern Daylight Time)","23985","1","5","","","","","","","","","",""
"","","","","","","","","","","","preload","104","445084","0.0-104.0","","","","","true","","","","","","","","","","","preload","","","1","6","false","[]","[]","[]","","","","","",""
"","","","","","","","","","","","canvas-keyboard-response","105","445386","0.0-105.0","null","null","","","","","","","","","","","","","","fixation","","","1","6","","","","","","","","","",""
"","","","","","","","","","","","canvas-keyboard-response","106","445688","0.0-106.0","null","null","","","","","","","","","","","","","","stimulus","","","1","6","","","","","","","","","",""
"","","","","","","","","","","","canvas-button-response","107","446717","0.0-107.0","1027","house","","","","","","","","","","","","","","perceptual","","","1","6","","","","","84","elephant","6","","0",""
"","","","","","","","","","","","canvas-button-response","108","447898","0.0-108.0","1180","5","","","","","","","","","","","","","","confidence","","","1","6","","","","","","","","","","4"
"","","","","","","","","","","","html-keyboard-response","109","448900","0.0-109.0","null","null","","","","","","","","","","","","","","feedback","Mon Oct 13 2025 13:29:43 GMT-0400 (Eastern Daylight Time)","23985","1","6","","","","","","","","","",""
"","","","","","","","","","","","preload","110","448902","0.0-110.0","","","","","true","","","","","","","","","","","preload","","","1","7","false","[]","[]","[]","","","","","",""
"","","","","","","","","","","","canvas-keyboard-response","111","449205","0.0-111.0","null","null","","","","","","","","","","","","","","fixation","","","1","7","","","","","","","","","",""
"","","","","","","","","","","","canvas-keyboard-response","112","449508","0.0-112.0","null","null","","","","","","","","","","","","","","stimulus","","","1","7","","","","","","","","","",""
"","","","","","","","","","","","canvas-button-response","113","453793","0.0-113.0","4283","phone","","","","","","","","","","","","","","perceptual","","","1","7","","","","","14","car","6","","0",""
"","","","","","","","","","","","canvas-button-response","114","455313","0.0-114.0","1519","1","","","","","","","","","","","","","","confidence","","","1","7","","","","","","","","","","4"
"","","","","","","","","","","","html-keyboard-response","115","456316","0.0-115.0","null","null","","","","","","","","","","","","","","feedback","Mon Oct 13 2025 13:29:50 GMT-0400 (Eastern Daylight Time)","23985","1","7","","","","","","","","","",""
"","","","","","","","","","","","preload","116","456317","0.0-116.0","","","","","true","","","","","","","","","","","preload","","","1","8","false","[]","[]","[]","","","","","",""
"","","","","","","","","","","","canvas-keyboard-response","117","456620","0.0-117.0","null","null","","","","","","","","","","","","","","fixation","","","1","8","","","","","","","","","",""
"","","","","","","","","","","","canvas-keyboard-response","118","456923","0.0-118.0","null","null","","","","","","","","","","","","","","stimulus","","","1","8","","","","","","","","","",""
"","","","","","","","","","","","canvas-button-response","119","460429","0.0-119.0","3503","bridge","","","","","","","","","","","","","","perceptual","","","1","8","","","","","7","house","10","","0",""
"","","","","","","","","","","","canvas-button-response","120","461530","0.0-120.0","1101","1","","","","","","","","","","","","","","confidence","","","1","8","","","","","","","","","","4"
"","","","","","","","","","","","html-keyboard-response","121","462532","0.0-121.0","null","null","","","","","","","","","","","","","","feedback","Mon Oct 13 2025 13:29:56 GMT-0400 (Eastern Daylight Time)","23985","1","8","","","","","","","","","",""
"","","","","","","","","","","","preload","122","462534","0.0-122.0","","","","","true","","","","","","","","","","","preload","","","1","9","false","[]","[]","[]","","","","","",""
"","","","","","","","","","","","canvas-keyboard-response","123","462837","0.0-123.0","null","null","","","","","","","","","","","","","","fixation","","","1","9","","","","","","","","","",""
"","","","","","","","","","","","canvas-keyboard-response","124","463140","0.0-124.0","null","null","","","","","","","","","","","","","","stimulus","","","1","9","","","","","","","","","",""
"","","","","","","","","","","","canvas-button-response","125","465884","0.0-125.0","2741","elephant","","","","","","","","","","","","","","perceptual","","","1","9","","","","","17","car","10","","0",""
"","","","","","","","","","","","canvas-button-response","126","467129","0.0-126.0","1243","1","","","","","","","","","","","","","","confidence","","","1","9","","","","","","","","","","4"
"","","","","","","","","","","","html-keyboard-response","127","468132","0.0-127.0","null","null","","","","","","","","","","","","","","feedback","Mon Oct 13 2025 13:30:02 GMT-0400 (Eastern Daylight Time)","23985","1","9","","","","","","","","","",""
"","","","","","","","","","","","preload","128","468133","0.0-128.0","","","","","true","","","","","","","","","","","preload","","","1","10","false","[]","[]","[]","","","","","",""
"","","","","","","","","","","","canvas-keyboard-response","129","468437","0.0-129.0","null","null","","","","","","","","","","","","","","fixation","","","1","10","","","","","","","","","",""
"","","","","","","","","","","","canvas-keyboard-response","130","468738","0.0-130.0","null","null","","","","","","","","","","","","","","stimulus","","","1","10","","","","","","","","","",""
"","","","","","","","","","","","canvas-button-response","131","469987","0.0-131.0","1246","house","","","","","","","","","","","","","","perceptual","","","1","10","","","","","4","house","6","","1",""
"","","","","","","","","","","","canvas-button-response","132","471066","0.0-132.0","1077","6","","","","","","","","","","","","","","confidence","","","1","10","","","","","","","","","","5"
"","","","","","","","","","","","html-keyboard-response","133","472069","0.0-133.0","null","null","","","","","","","","","","","","","","feedback","Mon Oct 13 2025 13:30:06 GMT-0400 (Eastern Daylight Time)","23985","1","10","","","","","","","","","",""
"","","","","","","","","","","","preload","134","472070","0.0-134.0","","","","","true","","","","","","","","","","","preload","","","1","11","false","[]","[]","[]","","","","","",""
"","","","","","","","","","","","canvas-keyboard-response","135","472372","0.0-135.0","null","null","","","","","","","","","","","","","","fixation","","","1","11","","","","","","","","","",""
"","","","","","","","","","","","canvas-keyboard-response","136","472675","0.0-136.0","null","null","","","","","","","","","","","","","","stimulus","","","1","11","","","","","","","","","",""
"","","","","","","","","","","","canvas-button-response","137","478224","0.0-137.0","5547","phone","","","","","","","","","","","","","","perceptual","","","1","11","","","","","47","bridge","10","","0",""
"","","","","","","","","","","","canvas-button-response","138","479743","0.0-138.0","1517","1","","","","","","","","","","","","","","confidence","","","1","11","","","","","","","","","","5"
"","","","","","","","","","","","html-keyboard-response","139","480745","0.0-139.0","null","null","","","","","","","","","","","","","","feedback","Mon Oct 13 2025 13:30:15 GMT-0400 (Eastern Daylight Time)","23985","1","11","","","","","","","","","",""
"","","","","","","","","","","","preload","140","480746","0.0-140.0","","","","","true","","","","","","","","","","","preload","","","1","12","false","[]","[]","[]","","","","","",""
"","","","","","","","","","","","canvas-keyboard-response","141","481047","0.0-141.0","null","null","","","","","","","","","","","","","","fixation","","","1","12","","","","","","","","","",""
"","","","","","","","","","","","canvas-keyboard-response","142","481351","0.0-142.0","null","null","","","","","","","","","","","","","","stimulus","","","1","12","","","","","","","","","",""
"","","","","","","","","","","","canvas-button-response","143","483151","0.0-143.0","1799","flower","","","","","","","","","","","","","","perceptual","","","1","12","","","","","57","flower","10","","1",""
"","","","","","","","","","","","canvas-button-response","144","483875","0.0-144.0","723","4","","","","","","","","","","","","","","confidence","","","1","12","","","","","","","","","","6"
"","","","","","","","","","","","html-keyboard-response","145","484877","0.0-145.0","null","null","","","","","","","","","","","","","","feedback","Mon Oct 13 2025 13:30:19 GMT-0400 (Eastern Daylight Time)","23985","1","12","","","","","","","","","",""
"","","","","","","","","","","","preload","146","484879","0.0-146.0","","","","","true","","","","","","","","","","","preload","","","1","13","false","[]","[]","[]","","","","","",""
"","","","","","","","","","","","canvas-keyboard-response","147","485184","0.0-147.0","null","null","","","","","","","","","","","","","","fixation","","","1","13","","","","","","","","","",""
"","","","","","","","","","","","canvas-keyboard-response","148","485487","0.0-148.0","null","null","","","","","","","","","","","","","","stimulus","","","1","13","","","","","","","","","",""
"","","","","","","","","","","","canvas-button-response","149","486474","0.0-149.0","985","phone","","","","","","","","","","","","","","perceptual","","","1","13","","","","","24","phone","6","","1",""
"","","","","","","","","","","","canvas-button-response","150","487070","0.0-150.0","595","7","","","","","","","","","","","","","","confidence","","","1","13","","","","","","","","","","7"
"","","","","","","","","","","","html-keyboard-response","151","488072","0.0-151.0","null","null","","","","","","","","","","","","","","feedback","Mon Oct 13 2025 13:30:22 GMT-0400 (Eastern Daylight Time)","23985","1","13","","","","","","","","","",""
"","","","","","","","","","","","preload","152","488072","0.0-152.0","","","","","true","","","","","","","","","","","preload","","","1","14","false","[]","[]","[]","","","","","",""
"","","","","","","","","","","","canvas-keyboard-response","153","488375","0.0-153.0","null","null","","","","","","","","","","","","","","fixation","","","1","14","","","","","","","","","",""
"","","","","","","","","","","","canvas-keyboard-response","154","488679","0.0-154.0","null","null","","","","","","","","","","","","","","stimulus","","","1","14","","","","","","","","","",""
"","","","","","","","","","","","canvas-button-response","155","492140","0.0-155.0","3459","elephant","","","","","","","","","","","","","","perceptual","","","1","14","","","","","37","bed","10","","0",""
"","","","","","","","","","","","canvas-button-response","156","493064","0.0-156.0","924","3","","","","","","","","","","","","","","confidence","","","1","14","","","","","","","","","","7"
"","","","","","","","","","","","html-keyboard-response","157","494067","0.0-157.0","null","null","","","","","","","","","","","","","","feedback","Mon Oct 13 2025 13:30:28 GMT-0400 (Eastern Daylight Time)","23985","1","14","","","","","","","","","",""
"","","","","","","","","","","","preload","158","494068","0.0-158.0","","","","","true","","","","","","","","","","","preload","","","1","15","false","[]","[]","[]","","","","","",""
"","","","","","","","","","","","canvas-keyboard-response","159","494372","0.0-159.0","null","null","","","","","","","","","","","","","","fixation","","","1","15","","","","","","","","","",""
"","","","","","","","","","","","canvas-keyboard-response","160","494675","0.0-160.0","null","null","","","","","","","","","","","","","","stimulus","","","1","15","","","","","","","","","",""
"","","","","","","","","","","","canvas-button-response","161","499901","0.0-161.0","5223","cat","","","","","","","","","","","","","","perceptual","","","1","15","","","","","77","cat","10","","1",""
"","","","","","","","","","","","canvas-button-response","162","500817","0.0-162.0","916","1","","","","","","","","","","","","","","confidence","","","1","15","","","","","","","","","","8"
"","","","","","","","","","","","html-keyboard-response","163","501820","0.0-163.0","null","null","","","","","","","","","","","","","","feedback","Mon Oct 13 2025 13:30:36 GMT-0400 (Eastern Daylight Time)","23985","1","15","","","","","","","","","",""
"","","","","","","","","","","","preload","164","501821","0.0-164.0","","","","","true","","","","","","","","","","","preload","","","1","16","false","[]","[]","[]","","","","","",""
"","","","","","","","","","","","canvas-keyboard-response","165","502124","0.0-165.0","null","null","","","","","","","","","","","","","","fixation","","","1","16","","","","","","","","","",""
"","","","","","","","","","","","canvas-keyboard-response","166","502428","0.0-166.0","null","null","","","","","","","","","","","","","","stimulus","","","1","16","","","","","","","","","",""
"","","","","","","","","","","","canvas-button-response","167","504672","0.0-167.0","2242","knife","","","","","","","","","","","","","","perceptual","","","1","16","","","","","27","phone","10","","0",""
"","","","","","","","","","","","canvas-button-response","168","505524","0.0-168.0","852","1","","","","","","","","","","","","","","confidence","","","1","16","","","","","","","","","","8"
"","","","","","","","","","","","html-keyboard-response","169","506527","0.0-169.0","null","null","","","","","","","","","","","","","","feedback","Mon Oct 13 2025 13:30:40 GMT-0400 (Eastern Daylight Time)","23985","1","16","","","","","","","","","",""
"","","","","","","","","","","","preload","170","506528","0.0-170.0","","","","","true","","","","","","","","","","","preload","","","1","17","false","[]","[]","[]","","","","","",""
"","","","","","","","","","","","canvas-keyboard-response","171","506832","0.0-171.0","null","null","","","","","","","","","","","","","","fixation","","","1","17","","","","","","","","","",""
"","","","","","","","","","","","canvas-keyboard-response","172","507136","0.0-172.0","null","null","","","","","","","","","","","","","","stimulus","","","1","17","","","","","","","","","",""
"","","","","","","","","","","","canvas-button-response","173","511909","0.0-173.0","4772","bed","","","","","","","","","","","","","","perceptual","","","1","17","","","","","44","bridge","6","","0",""
"","","","","","","","","","","","canvas-button-response","174","512802","0.0-174.0","891","1","","","","","","","","","","","","","","confidence","","","1","17","","","","","","","","","","8"
"","","","","","","","","","","","html-keyboard-response","175","513804","0.0-175.0","null","null","","","","","","","","","","","","","","feedback","Mon Oct 13 2025 13:30:48 GMT-0400 (Eastern Daylight Time)","23985","1","17","","","","","","","","","",""
"","","","","","","","","","","","preload","176","513806","0.0-176.0","","","","","true","","","","","","","","","","","preload","","","1","18","false","[]","[]","[]","","","","","",""
"","","","","","","","","","","","canvas-keyboard-response","177","514109","0.0-177.0","null","null","","","","","","","","","","","","","","fixation","","","1","18","","","","","","","","","",""
"","","","","","","","","","","","canvas-keyboard-response","178","514412","0.0-178.0","null","null","","","","","","","","","","","","","","stimulus","","","1","18","","","","","","","","","",""
"","","","","","","","","","","","canvas-button-response","179","516663","0.0-179.0","2249","knife","","","","","","","","","","","","","","perceptual","","","1","18","","","","","67","train","10","","0",""
"","","","","","","","","","","","canvas-button-response","180","517363","0.0-180.0","699","1","","","","","","","","","","","","","","confidence","","","1","18","","","","","","","","","","8"
"","","","","","","","","","","","html-keyboard-response","181","518366","0.0-181.0","null","null","","","","","","","","","","","","","","feedback","Mon Oct 13 2025 13:30:52 GMT-0400 (Eastern Daylight Time)","23985","1","18","","","","","","","","","",""
"","","","","","","","","","","","preload","182","518367","0.0-182.0","","","","","true","","","","","","","","","","","preload","","","1","19","false","[]","[]","[]","","","","","",""
"","","","","","","","","","","","canvas-keyboard-response","183","518669","0.0-183.0","null","null","","","","","","","","","","","","","","fixation","","","1","19","","","","","","","","","",""
"","","","","","","","","","","","canvas-keyboard-response","184","518972","0.0-184.0","null","null","","","","","","","","","","","","","","stimulus","","","1","19","","","","","","","","","",""
"","","","","","","","","","","","canvas-button-response","185","520281","0.0-185.0","1306","house","","","","","","","","","","","","","","perceptual","","","1","19","","","","","87","elephant","10","","0",""
"","","","","","","","","","","","canvas-button-response","186","521053","0.0-186.0","771","1","","","","","","","","","","","","","","confidence","","","1","19","","","","","","","","","","8"
"","","","","","","","","","","","html-keyboard-response","187","522056","0.0-187.0","null","null","","","","","","","","","","","","","","feedback","Mon Oct 13 2025 13:30:56 GMT-0400 (Eastern Daylight Time)","23985","1","19","","","","","","","","","",""
"","","","","","","","","","","","html-button-response","188","534082","0.0-188.0","12021","0","","","","","","","","","","","","","","start experiment","Mon Oct 13 2025 13:30:57 GMT-0400 (Eastern Daylight Time)","23985","1","19","","","","","","","","","",""
"","","","","","","","","","","","preload","189","534083","0.0-189.0","","","","","true","","","","","","","","","","","preload","","","2","0","false","[]","[]","[]","","","","","",""
"","","","","","","","","","","","canvas-keyboard-response","190","534385","0.0-190.0","null","null","","","","","","","","","","","","","","fixation","","","2","0","","","","","","","","","",""
"","","","","","","","","","","","canvas-keyboard-response","191","534687","0.0-191.0","null","null","","","","","","","","","","","","","","stimulus","","","2","0","","","","","","","","","",""
"","","","","","","","","","","","canvas-button-response","192","539021","0.0-192.0","4332","cat","","","","","","","","","","","","","","perceptual","","","2","0","","","","","332","elephant","6","0","0",""
"","","","","","","","","","","","canvas-button-response","193","540484","0.0-193.0","1462","1","","","","","","","","","","","","","","confidence","","","2","0","","","","","","","","","","0"
"","","","","","","","","","","","preload","194","540484","0.0-194.0","","","","","true","","","","","","","","","","","preload","","","2","1","false","[]","[]","[]","","","","","",""
"","","","","","","","","","","","canvas-keyboard-response","195","540786","0.0-195.0","null","null","","","","","","","","","","","","","","fixation","","","2","1","","","","","","","","","",""
"","","","","","","","","","","","canvas-keyboard-response","196","541089","0.0-196.0","null","null","","","","","","","","","","","","","","stimulus","","","2","1","","","","","","","","","",""
"","","","","","","","","","","","canvas-button-response","197","546418","0.0-197.0","5327","flower","","","","","","","","","","","","","","perceptual","","","2","1","","","","","190","bridge","10","0","0",""
"","","","","","","","","","","","canvas-button-response","198","547567","0.0-198.0","1149","4","","","","","","","","","","","","","","confidence","","","2","1","","","","","","","","","","0"
"","","","","","","","","","","","preload","199","547568","0.0-199.0","","","","","true","","","","","","","","","","","preload","","","2","2","false","[]","[]","[]","","","","","",""
"","","","","","","","","","","","canvas-keyboard-response","200","547868","0.0-200.0","null","null","","","","","","","","","","","","","","fixation","","","2","2","","","","","","","","","",""
"","","","","","","","","","","","canvas-keyboard-response","201","548170","0.0-201.0","null","null","","","","","","","","","","","","","","stimulus","","","2","2","","","","","","","","","",""
"","","","","","","","","","","","canvas-button-response","202","549312","0.0-202.0","1140","car","","","","","","","","","","","","","","perceptual","","","2","2","","","","","56","car","6","0","1",""
"","","","","","","","","","","","canvas-button-response","203","549955","0.0-203.0","642","9","","","","","","","","","","","","","","confidence","","","2","2","","","","","","","","","","1"
"","","","","","","","","","","","preload","204","549955","0.0-204.0","","","","","true","","","","","","","","","","","preload","","","2","3","false","[]","[]","[]","","","","","",""
"","","","","","","","","","","","canvas-keyboard-response","205","550257","0.0-205.0","null","null","","","","","","","","","","","","","","fixation","","","2","3","","","","","","","","","",""
"","","","","","","","","","","","canvas-keyboard-response","206","550560","0.0-206.0","null","null","","","","","","","","","","","","","","stimulus","","","2","3","","","","","","","","","",""
"","","","","","","","","","","","canvas-button-response","207","554960","0.0-207.0","4400","train","","","","","","","","","","","","","","perceptual","","","2","3","","","","","157","bed","10","0","0",""
"","","","","","","","","","","","canvas-button-response","208","555684","0.0-208.0","722","7","","","","","","","","","","","","","","confidence","","","2","3","","","","","","","","","","1"
"","","","","","","","","","","","preload","209","555684","0.0-209.0","","","","","true","","","","","","","","","","","preload","","","2","4","false","[]","[]","[]","","","","","",""
"","","","","","","","","","","","canvas-keyboard-response","210","555985","0.0-210.0","null","null","","","","","","","","","","","","","","fixation","","","2","4","","","","","","","","","",""
"","","","","","","","","","","","canvas-keyboard-response","211","556287","0.0-211.0","null","null","","","","","","","","","","","","","","stimulus","","","2","4","","","","","","","","","",""
"","","","","","","","","","","","canvas-button-response","212","561066","0.0-212.0","4776","bridge","","","","","","","","","","","","","","perceptual","","","2","4","","","","","334","elephant","6","0","0",""
"","","","","","","","","","","","canvas-button-response","213","562247","0.0-213.0","1181","3","","","","","","","","","","","","","","confidence","","","2","4","","","","","","","","","","1"
"","","","","","","","","","","","preload","214","562248","0.0-214.0","","","","","true","","","","","","","","","","","preload","","","2","5","false","[]","[]","[]","","","","","",""
"","","","","","","","","","","","canvas-keyboard-response","215","562551","0.0-215.0","null","null","","","","","","","","","","","","","","fixation","","","2","5","","","","","","","","","",""
"","","","","","","","","","","","canvas-keyboard-response","216","562854","0.0-216.0","null","null","","","","","","","","","","","","","","stimulus","","","2","5","","","","","","","","","",""
"","","","","","","","","","","","canvas-button-response","217","565568","0.0-217.0","2713","elephant","","","","","","","","","","","","","","perceptual","","","2","5","","","","","109","phone","10","0","0",""
"","","","","","","","","","","","canvas-button-response","218","566726","0.0-218.0","1157","1","","","","","","","","","","","","","","confidence","","","2","5","","","","","","","","","","1"
"","","","","","","","","","","","preload","219","566727","0.0-219.0","","","","","true","","","","","","","","","","","preload","","","2","6","false","[]","[]","[]","","","","","",""
"","","","","","","","","","","","canvas-keyboard-response","220","567027","0.0-220.0","null","null","","","","","","","","","","","","","","fixation","","","2","6","","","","","","","","","",""
"","","","","","","","","","","","canvas-keyboard-response","221","567329","0.0-221.0","null","null","","","","","","","","","","","","","","stimulus","","","2","6","","","","","","","","","",""
"","","","","","","","","","","","canvas-button-response","222","571714","0.0-222.0","4383","flower","","","","","","","","","","","","","","perceptual","","","2","6","","","","","16","house","6","0","0",""
"","","","","","","","","","","","canvas-button-response","223","572406","0.0-223.0","691","1","","","","","","","","","","","","","","confidence","","","2","6","","","","","","","","","","1"
"","","","","","","","","","","","preload","224","572406","0.0-224.0","","","","","true","","","","","","","","","","","preload","","","2","7","false","[]","[]","[]","","","","","",""
"","","","","","","","","","","","canvas-keyboard-response","225","572709","0.0-225.0","null","null","","","","","","","","","","","","","","fixation","","","2","7","","","","","","","","","",""
"","","","","","","","","","","","canvas-keyboard-response","226","573012","0.0-226.0","null","null","","","","","","","","","","","","","","stimulus","","","2","7","","","","","","","","","",""
"","","","","","","","","","","","canvas-button-response","227","574022","0.0-227.0","1008","cat","","","","","","","","","","","","","","perceptual","","","2","7","","","","","283","cat","6","0","1",""
"","","","","","","","","","","","canvas-button-response","228","575534","0.0-228.0","1511","9","","","","","","","","","","","","","","confidence","","","2","7","","","","","","","","","","2"
"","","","","","","","","","","","preload","229","575534","0.0-229.0","","","","","true","","","","","","","","","","","preload","","","2","8","false","[]","[]","[]","","","","","",""
"","","","","","","","","","","","canvas-keyboard-response","230","575835","0.0-230.0","null","null","","","","","","","","","","","","","","fixation","","","2","8","","","","","","","","","",""
"","","","","","","","","","","","canvas-keyboard-response","231","576136","0.0-231.0","null","null","","","","","","","","","","","","","","stimulus","","","2","8","","","","","","","","","",""
"","","","","","","","","","","","canvas-button-response","232","579168","0.0-232.0","3031","flower","","","","","","","","","","","","","","perceptual","","","2","8","","","","","372","knife","6","0","0",""
"","","","","","","","","","","","canvas-button-response","233","579763","0.0-233.0","595","2","","","","","","","","","","","","","","confidence","","","2","8","","","","","","","","","","2"
"","","","","","","","","","","","preload","234","579763","0.0-234.0","","","","","true","","","","","","","","","","","preload","","","2","9","false","[]","[]","[]","","","","","",""
"","","","","","","","","","","","canvas-keyboard-response","235","580066","0.0-235.0","null","null","","","","","","","","","","","","","","fixation","","","2","9","","","","","","","","","",""
"","","","","","","","","","","","canvas-keyboard-response","236","580369","0.0-236.0","null","null","","","","","","","","","","","","","","stimulus","","","2","9","","","","","","","","","",""
"","","","","","","","","","","","canvas-button-response","237","581427","0.0-237.0","1056","house","","","","","","","","","","","","","","perceptual","","","2","9","","","","","8","house","6","0","1",""
"","","","","","","","","","","","canvas-button-response","238","582480","0.0-238.0","1053","9","","","","","","","","","","","","","","confidence","","","2","9","","","","","","","","","","3"
"","","","","","","","","","","","preload","239","582481","0.0-239.0","","","","","true","","","","","","","","","","","preload","","","2","10","false","[]","[]","[]","","","","","",""
"","","","","","","","","","","","canvas-keyboard-response","240","582782","0.0-240.0","null","null","","","","","","","","","","","","","","fixation","","","2","10","","","","","","","","","",""
"","","","","","","","","","","","canvas-keyboard-response","241","583084","0.0-241.0","null","null","","","","","","","","","","","","","","stimulus","","","2","10","","","","","","","","","",""
"","","","","","","","","","","","canvas-button-response","242","584427","0.0-242.0","1340","flower","","","","","","","","","","","","","","perceptual","","","2","10","","","","","220","flower","10","0","1",""
"","","","","","","","","","","","canvas-button-response","243","585175","0.0-243.0","747","9","","","","","","","","","","","","","","confidence","","","2","10","","","","","","","","","","4"
"","","","","","","","","","","","preload","244","585175","0.0-244.0","","","","","true","","","","","","","","","","","preload","","","2","11","false","[]","[]","[]","","","","","",""
"","","","","","","","","","","","canvas-keyboard-response","245","585477","0.0-245.0","null","null","","","","","","","","","","","","","","fixation","","","2","11","","","","","","","","","",""
"","","","","","","","","","","","canvas-keyboard-response","246","585779","0.0-246.0","null","null","","","","","","","","","","","","","","stimulus","","","2","11","","","","","","","","","",""
"","","","","","","","","","","","canvas-button-response","247","586734","0.0-247.0","955","car","","","","","","","","","","","","","","perceptual","","","2","11","","","","","74","car","10","0","1",""
"","","","","","","","","","","","canvas-button-response","248","587410","0.0-248.0","675","9","","","","","","","","","","","","","","confidence","","","2","11","","","","","","","","","","5"
"","","","","","","","","","","","preload","249","587411","0.0-249.0","","","","","true","","","","","","","","","","","preload","","","2","12","false","[]","[]","[]","","","","","",""
"","","","","","","","","","","","canvas-keyboard-response","250","587713","0.0-250.0","null","null","","","","","","","","","","","","","","fixation","","","2","12","","","","","","","","","",""
"","","","","","","","","","","","canvas-keyboard-response","251","588015","0.0-251.0","null","null","","","","","","","","","","","","","","stimulus","","","2","12","","","","","","","","","",""
"","","","","","","","","","","","canvas-button-response","252","589978","0.0-252.0","1960","bridge","","","","","","","","","","","","","","perceptual","","","2","12","","","","","258","train","6","0","0",""
"","","","","","","","","","","","canvas-button-response","253","590674","0.0-253.0","695","9","","","","","","","","","","","","","","confidence","","","2","12","","","","","","","","","","5"
"","","","","","","","","","","","preload","254","590675","0.0-254.0","","","","","true","","","","","","","","","","","preload","","","2","13","false","[]","[]","[]","","","","","",""
"","","","","","","","","","","","canvas-keyboard-response","255","590976","0.0-255.0","null","null","","","","","","","","","","","","","","fixation","","","2","13","","","","","","","","","",""
"","","","","","","","","","","","canvas-keyboard-response","256","591278","0.0-256.0","null","null","","","","","","","","","","","","","","stimulus","","","2","13","","","","","","","","","",""
"","","","","","","","","","","","canvas-button-response","257","591992","0.0-257.0","714","bridge","","","","","","","","","","","","","","perceptual","","","2","13","","","","","169","bridge","6","0","1",""
"","","","","","","","","","","","canvas-button-response","258","592918","0.0-258.0","925","10","","","","","","","","","","","","","","confidence","","","2","13","","","","","","","","","","6"
"","","","","","","","","","","","preload","259","592919","0.0-259.0","","","","","true","","","","","","","","","","","preload","","","2","14","false","[]","[]","[]","","","","","",""
"","","","","","","","","","","","canvas-keyboard-response","260","593220","0.0-260.0","null","null","","","","","","","","","","","","","","fixation","","","2","14","","","","","","","","","",""
"","","","","","","","","","","","canvas-keyboard-response","261","593522","0.0-261.0","null","null","","","","","","","","","","","","","","stimulus","","","2","14","","","","","","","","","",""
"","","","","","","","","","","","canvas-button-response","262","596134","0.0-262.0","2611","train","","","","","","","","","","","","","","perceptual","","","2","14","","","","","119","phone","10","0","0",""
"","","","","","","","","","","","canvas-button-response","263","596648","0.0-263.0","512","9","","","","","","","","","","","","","","confidence","","","2","14","","","","","","","","","","6"
"","","","","","","","","","","","preload","264","596648","0.0-264.0","","","","","true","","","","","","","","","","","preload","","","2","15","false","[]","[]","[]","","","","","",""
"","","","","","","","","","","","canvas-keyboard-response","265","596949","0.0-265.0","null","null","","","","","","","","","","","","","","fixation","","","2","15","","","","","","","","","",""
"","","","","","","","","","","","canvas-keyboard-response","266","597251","0.0-266.0","null","null","","","","","","","","","","","","","","stimulus","","","2","15","","","","","","","","","",""
"","","","","","","","","","","","canvas-button-response","267","601577","0.0-267.0","4324","bridge","","","","","","","","","","","","","","perceptual","","","2","15","","","","","266","train","10","0","0",""
"","","","","","","","","","","","canvas-button-response","268","603161","0.0-268.0","1583","0","","","","","","","","","","","","","","confidence","","","2","15","","","","","","","","","","6"
"","","","","","","","","","","","preload","269","603161","0.0-269.0","","","","","true","","","","","","","","","","","preload","","","2","16","false","[]","[]","[]","","","","","",""
"","","","","","","","","","","","canvas-keyboard-response","270","603463","0.0-270.0","null","null","","","","","","","","","","","","","","fixation","","","2","16","","","","","","","","","",""
"","","","","","","","","","","","canvas-keyboard-response","271","603766","0.0-271.0","null","null","","","","","","","","","","","","","","stimulus","","","2","16","","","","","","","","","",""
"","","","","","","","","","","","canvas-button-response","272","607639","0.0-272.0","3873","train","","","","","","","","","","","","","","perceptual","","","2","16","","","","","279","train","10","0","1",""
"","","","","","","","","","","","canvas-button-response","273","609296","0.0-273.0","1656","1","","","","","","","","","","","","","","confidence","","","2","16","","","","","","","","","","7"
"","","","","","","","","","","","preload","274","609297","0.0-274.0","","","","","true","","","","","","","","","","","preload","","","2","17","false","[]","[]","[]","","","","","",""
"","","","","","","","","","","","canvas-keyboard-response","275","609599","0.0-275.0","null","null","","","","","","","","","","","","","","fixation","","","2","17","","","","","","","","","",""
"","","","","","","","","","","","canvas-keyboard-response","276","609903","0.0-276.0","null","null","","","","","","","","","","","","","","stimulus","","","2","17","","","","","","","","","",""
"","","","","","","","","","","","canvas-button-response","277","611265","0.0-277.0","1360","car","","","","","","","","","","","","","","perceptual","","","2","17","","","","","188","bridge","10","0","0",""
"","","","","","","","","","","","canvas-button-response","278","612021","0.0-278.0","755","1","","","","","","","","","","","","","","confidence","","","2","17","","","","","","","","","","7"
"","","","","","","","","","","","preload","279","612022","0.0-279.0","","","","","true","","","","","","","","","","","preload","","","2","18","false","[]","[]","[]","","","","","",""
"","","","","","","","","","","","canvas-keyboard-response","280","612324","0.0-280.0","null","null","","","","","","","","","","","","","","fixation","","","2","18","","","","","","","","","",""
"","","","","","","","","","","","canvas-keyboard-response","281","612626","0.0-281.0","null","null","","","","","","","","","","","","","","stimulus","","","2","18","","","","","","","","","",""
"","","","","","","","","","","","canvas-button-response","282","616717","0.0-282.0","4090","bed","","","","","","","","","","","","","","perceptual","","","2","18","","","","","70","car","10","0","0",""
"","","","","","","","","","","","canvas-button-response","283","617279","0.0-283.0","562","2","","","","","","","","","","","","","","confidence","","","2","18","","","","","","","","","","7"
"","","","","","","","","","","","preload","284","617280","0.0-284.0","","","","","true","","","","","","","","","","","preload","","","2","19","false","[]","[]","[]","","","","","",""
"","","","","","","","","","","","canvas-keyboard-response","285","617582","0.0-285.0","null","null","","","","","","","","","","","","","","fixation","","","2","19","","","","","","","","","",""
"","","","","","","","","","","","canvas-keyboard-response","286","617885","0.0-286.0","null","null","","","","","","","","","","","","","","stimulus","","","2","19","","","","","","","","","",""
"","","","","","","","","","","","canvas-button-response","287","620206","0.0-287.0","2319","knife","","","","","","","","","","","","","","perceptual","","","2","19","","","","","192","bridge","10","0","0",""
"","","","","","","","","","","","canvas-button-response","288","620986","0.0-288.0","779","1","","","","","","","","","","","","","","confidence","","","2","19","","","","","","","","","","7"
"","","","","","","","","","","","preload","289","620986","0.0-289.0","","","","","true","","","","","","","","","","","preload","","","2","20","false","[]","[]","[]","","","","","",""
"","","","","","","","","","","","canvas-keyboard-response","290","621289","0.0-290.0","null","null","","","","","","","","","","","","","","fixation","","","2","20","","","","","","","","","",""
"","","","","","","","","","","","canvas-keyboard-response","291","621592","0.0-291.0","null","null","","","","","","","","","","","","","","stimulus","","","2","20","","","","","","","","","",""
"","","","","","","","","","","","canvas-button-response","292","622513","0.0-292.0","919","car","","","","","","","","","","","","","","perceptual","","","2","20","","","","","267","train","10","0","0",""
"","","","","","","","","","","","canvas-button-response","293","623116","0.0-293.0","602","5","","","","","","","","","","","","","","confidence","","","2","20","","","","","","","","","","7"
"","","","","","","","","","","","preload","294","623116","0.0-294.0","","","","","true","","","","","","","","","","","preload","","","2","21","false","[]","[]","[]","","","","","",""
"","","","","","","","","","","","canvas-keyboard-response","295","623418","0.0-295.0","null","null","","","","","","","","","","","","","","fixation","","","2","21","","","","","","","","","",""
"","","","","","","","","","","","canvas-keyboard-response","296","623722","0.0-296.0","null","null","","","","","","","","","","","","","","stimulus","","","2","21","","","","","","","","","",""
"","","","","","","","","","","","canvas-button-response","297","625415","0.0-297.0","1691","bed","","","","","","","","","","","","","","perceptual","","","2","21","","","","","161","bridge","6","0","0",""
"","","","","","","","","","","","canvas-button-response","298","626573","0.0-298.0","1157","0","","","","","","","","","","","","","","confidence","","","2","21","","","","","","","","","","7"
"","","","","","","","","","","","preload","299","626573","0.0-299.0","","","","","true","","","","","","","","","","","preload","","","2","22","false","[]","[]","[]","","","","","",""
"","","","","","","","","","","","canvas-keyboard-response","300","626876","0.0-300.0","null","null","","","","","","","","","","","","","","fixation","","","2","22","","","","","","","","","",""
"","","","","","","","","","","","canvas-keyboard-response","301","627178","0.0-301.0","null","null","","","","","","","","","","","","","","stimulus","","","2","22","","","","","","","","","",""
"","","","","","","","","","","","canvas-button-response","302","628132","0.0-302.0","953","car","","","","","","","","","","","","","","perceptual","","","2","22","","","","","63","car","10","0","1",""
"","","","","","","","","","","","canvas-button-response","303","628735","0.0-303.0","602","4","","","","","","","","","","","","","","confidence","","","2","22","","","","","","","","","","8"
"","","","","","","","","","","","preload","304","628735","0.0-304.0","","","","","true","","","","","","","","","","","preload","","","2","23","false","[]","[]","[]","","","","","",""
"","","","","","","","","","","","canvas-keyboard-response","305","629036","0.0-305.0","null","null","","","","","","","","","","","","","","fixation","","","2","23","","","","","","","","","",""
"","","","","","","","","","","","canvas-keyboard-response","306","629338","0.0-306.0","null","null","","","","","","","","","","","","","","stimulus","","","2","23","","","","","","","","","",""
"","","","","","","","","","","","canvas-button-response","307","632429","0.0-307.0","3089","flower","","","","","","","","","","","","","","perceptual","","","2","23","","","","","224","flower","10","0","1",""
"","","","","","","","","","","","canvas-button-response","308","633073","0.0-308.0","643","2","","","","","","","","","","","","","","confidence","","","2","23","","","","","","","","","","9"
"","","","","","","","","","","","preload","309","633073","0.0-309.0","","","","","true","","","","","","","","","","","preload","","","2","24","false","[]","[]","[]","","","","","",""
"","","","","","","","","","","","canvas-keyboard-response","310","633375","0.0-310.0","null","null","","","","","","","","","","","","","","fixation","","","2","24","","","","","","","","","",""
"","","","","","","","","","","","canvas-keyboard-response","311","633678","0.0-311.0","null","null","","","","","","","","","","","","","","stimulus","","","2","24","","","","","","","","","",""
"","","","","","","","","","","","canvas-button-response","312","634752","0.0-312.0","1072","bed","","","","","","","","","","","","","","perceptual","","","2","24","","","","","121","bed","6","0","1",""
"","","","","","","","","","","","canvas-button-response","313","635331","0.0-313.0","579","9","","","","","","","","","","","","","","confidence","","","2","24","","","","","","","","","","10"
"","","","","","","","","","","","preload","314","635332","0.0-314.0","","","","","true","","","","","","","","","","","preload","","","2","25","false","[]","[]","[]","","","","","",""
"","","","","","","","","","","","canvas-keyboard-response","315","635633","0.0-315.0","null","null","","","","","","","","","","","","","","fixation","","","2","25","","","","","","","","","",""
"","","","","","","","","","","","canvas-keyboard-response","316","635935","0.0-316.0","null","null","","","","","","","","","","","","","","stimulus","","","2","25","","","","","","","","","",""
"","","","","","","","","","","","canvas-button-response","317","639600","0.0-317.0","3664","house","","","","","","","","","","","","","","perceptual","","","2","25","","","","","345","elephant","10","0","0",""
"","","","","","","","","","","","canvas-button-response","318","640381","0.0-318.0","780","0","","","","","","","","","","","","","","confidence","","","2","25","","","","","","","","","","10"
"","","","","","","","","","","","preload","319","640382","0.0-319.0","","","","","true","","","","","","","","","","","preload","","","2","26","false","[]","[]","[]","","","","","",""
"","","","","","","","","","","","canvas-keyboard-response","320","640683","0.0-320.0","null","null","","","","","","","","","","","","","","fixation","","","2","26","","","","","","","","","",""
"","","","","","","","","","","","canvas-keyboard-response","321","640985","0.0-321.0","null","null","","","","","","","","","","","","","","stimulus","","","2","26","","","","","","","","","",""
"","","","","","","","","","","","canvas-button-response","322","641984","0.0-322.0","998","flower","","","","","","","","","","","","","","perceptual","","","2","26","","","","","201","flower","6","0","1",""
"","","","","","","","","","","","canvas-button-response","323","642631","0.0-323.0","646","10","","","","","","","","","","","","","","confidence","","","2","26","","","","","","","","","","11"
"","","","","","","","","","","","preload","324","642631","0.0-324.0","","","","","true","","","","","","","","","","","preload","","","2","27","false","[]","[]","[]","","","","","",""
"","","","","","","","","","","","canvas-keyboard-response","325","642932","0.0-325.0","null","null","","","","","","","","","","","","","","fixation","","","2","27","","","","","","","","","",""
"","","","","","","","","","","","canvas-keyboard-response","326","643234","0.0-326.0","null","null","","","","","","","","","","","","","","stimulus","","","2","27","","","","","","","","","",""
"","","","","","","","","","","","canvas-button-response","327","644198","0.0-327.0","964","car","","","","","","","","","","","","","","perceptual","","","2","27","","","","","42","car","6","0","1",""
"","","","","","","","","","","","canvas-button-response","328","644858","0.0-328.0","658","7","","","","","","","","","","","","","","confidence","","","2","27","","","","","","","","","","12"
"","","","","","","","","","","","preload","329","644858","0.0-329.0","","","","","true","","","","","","","","","","","preload","","","2","28","false","[]","[]","[]","","","","","",""
"","","","","","","","","","","","canvas-keyboard-response","330","645160","0.0-330.0","null","null","","","","","","","","","","","","","","fixation","","","2","28","","","","","","","","","",""
"","","","","","","","","","","","canvas-keyboard-response","331","645462","0.0-331.0","null","null","","","","","","","","","","","","","","stimulus","","","2","28","","","","","","","","","",""
"","","","","","","","","","","","canvas-button-response","332","646248","0.0-332.0","785","cat","","","","","","","","","","","","","","perceptual","","","2","28","","","","","399","knife","10","0","0",""
"","","","","","","","","","","","canvas-button-response","333","646786","0.0-333.0","537","8","","","","","","","","","","","","","","confidence","","","2","28","","","","","","","","","","12"
"","","","","","","","","","","","preload","334","646787","0.0-334.0","","","","","true","","","","","","","","","","","preload","","","2","29","false","[]","[]","[]","","","","","",""
"","","","","","","","","","","","canvas-keyboard-response","335","647088","0.0-335.0","null","null","","","","","","","","","","","","","","fixation","","","2","29","","","","","","","","","",""
"","","","","","","","","","","","canvas-keyboard-response","336","647389","0.0-336.0","null","null","","","","","","","","","","","","","","stimulus","","","2","29","","","","","","","","","",""
"","","","","","","","","","","","canvas-button-response","337","648869","0.0-337.0","1479","bridge","","","","","","","","","","","","","","perceptual","","","2","29","","","","","384","knife","10","0","0",""
"","","","","","","","","","","","canvas-button-response","338","649782","0.0-338.0","910","5","","","","","","","","","","","","","","confidence","","","2","29","","","","","","","","","","12"
"","","","","","","","","","","","preload","339","649783","0.0-339.0","","","","","true","","","","","","","","","","","preload","","","2","30","false","[]","[]","[]","","","","","",""
"","","","","","","","","","","","canvas-keyboard-response","340","650086","0.0-340.0","null","null","","","","","","","","","","","","","","fixation","","","2","30","","","","","","","","","",""
"","","","","","","","","","","","canvas-keyboard-response","341","650387","0.0-341.0","null","null","","","","","","","","","","","","","","stimulus","","","2","30","","","","","","","","","",""
"","","","","","","","","","","","canvas-button-response","342","652759","0.0-342.0","2371","bed","","","","","","","","","","","","","","perceptual","","","2","30","","","","","349","elephant","10","0","0",""
"","","","","","","","","","","","canvas-button-response","343","653523","0.0-343.0","763","1","","","","","","","","","","","","","","confidence","","","2","30","","","","","","","","","","12"
"","","","","","","","","","","","preload","344","653523","0.0-344.0","","","","","true","","","","","","","","","","","preload","","","2","31","false","[]","[]","[]","","","","","",""
"","","","","","","","","","","","canvas-keyboard-response","345","653825","0.0-345.0","null","null","","","","","","","","","","","","","","fixation","","","2","31","","","","","","","","","",""
"","","","","","","","","","","","canvas-keyboard-response","346","654128","0.0-346.0","null","null","","","","","","","","","","","","","","stimulus","","","2","31","","","","","","","","","",""
"","","","","","","","","","","","canvas-button-response","347","659416","0.0-347.0","5285","bridge","","","","","","","","","","","","","","perceptual","","","2","31","","","","","160","bridge","6","0","1",""
"","","","","","","","","","","","canvas-button-response","348","660091","0.0-348.0","674","1","","","","","","","","","","","","","","confidence","","","2","31","","","","","","","","","","13"
"","","","","","","","","","","","preload","349","660091","0.0-349.0","","","","","true","","","","","","","","","","","preload","","","2","32","false","[]","[]","[]","","","","","",""
"","","","","","","","","","","","canvas-keyboard-response","350","660393","0.0-350.0","null","null","","","","","","","","","","","","","","fixation","","","2","32","","","","","","","","","",""
"","","","","","","","","","","","canvas-keyboard-response","351","660697","0.0-351.0","null","null","","","","","","","","","","","","","","stimulus","","","2","32","","","","","","","","","",""
"","","","","","","","","","","","canvas-button-response","352","662124","0.0-352.0","1426","house","","","","","","","","","","","","","","perceptual","","","2","32","","","","","0","house","6","0","1",""
"","","","","","","","","","","","canvas-button-response","353","662736","0.0-353.0","610","4","","","","","","","","","","","","","","confidence","","","2","32","","","","","","","","","","14"
"","","","","","","","","","","","preload","354","662737","0.0-354.0","","","","","true","","","","","","","","","","","preload","","","2","33","false","[]","[]","[]","","","","","",""
"","","","","","","","","","","","canvas-keyboard-response","355","663039","0.0-355.0","null","null","","","","","","","","","","","","","","fixation","","","2","33","","","","","","","","","",""
"","","","","","","","","","","","canvas-keyboard-response","356","663342","0.0-356.0","null","null","","","","","","","","","","","","","","stimulus","","","2","33","","","","","","","","","",""
"","","","","","","","","","","","canvas-button-response","357","664376","0.0-357.0","1032","cat","","","","","","","","","","","","","","perceptual","","","2","33","","","","","333","elephant","6","0","0",""
"","","","","","","","","","","","canvas-button-response","358","664995","0.0-358.0","618","8","","","","","","","","","","","","","","confidence","","","2","33","","","","","","","","","","14"
"","","","","","","","","","","","preload","359","664995","0.0-359.0","","","","","true","","","","","","","","","","","preload","","","2","34","false","[]","[]","[]","","","","","",""
"","","","","","","","","","","","canvas-keyboard-response","360","665296","0.0-360.0","null","null","","","","","","","","","","","","","","fixation","","","2","34","","","","","","","","","",""
"","","","","","","","","","","","canvas-keyboard-response","361","665598","0.0-361.0","null","null","","","","","","","","","","","","","","stimulus","","","2","34","","","","","","","","","",""
"","","","","","","","","","","","canvas-button-response","362","666908","0.0-362.0","1307","bed","","","","","","","","","","","","","","perceptual","","","2","34","","","","","127","bed","6","0","1",""
"","","","","","","","","","","","canvas-button-response","363","668612","0.0-363.0","1704","8","","","","","","","","","","","","","","confidence","","","2","34","","","","","","","","","","15"
"","","","","","","","","","","","preload","364","668612","0.0-364.0","","","","","true","","","","","","","","","","","preload","","","2","35","false","[]","[]","[]","","","","","",""
"","","","","","","","","","","","canvas-keyboard-response","365","668914","0.0-365.0","null","null","","","","","","","","","","","","","","fixation","","","2","35","","","","","","","","","",""
"","","","","","","","","","","","canvas-keyboard-response","366","669216","0.0-366.0","null","null","","","","","","","","","","","","","","stimulus","","","2","35","","","","","","","","","",""
"","","","","","","","","","","","canvas-button-response","367","671369","0.0-367.0","2151","cat","","","","","","","","","","","","","","perceptual","","","2","35","","","","","307","cat","10","0","1",""
"","","","","","","","","","","","canvas-button-response","368","672639","0.0-368.0","1269","6","","","","","","","","","","","","","","confidence","","","2","35","","","","","","","","","","16"
"","","","","","","","","","","","preload","369","672640","0.0-369.0","","","","","true","","","","","","","","","","","preload","","","2","36","false","[]","[]","[]","","","","","",""
"","","","","","","","","","","","canvas-keyboard-response","370","672942","0.0-370.0","null","null","","","","","","","","","","","","","","fixation","","","2","36","","","","","","","","","",""
"","","","","","","","","","","","canvas-keyboard-response","371","673246","0.0-371.0","null","null","","","","","","","","","","","","","","stimulus","","","2","36","","","","","","","","","",""
"","","","","","","","","","","","canvas-button-response","372","674609","0.0-372.0","1361","flower","","","","","","","","","","","","","","perceptual","","","2","36","","","","","230","flower","10","0","1",""
"","","","","","","","","","","","canvas-button-response","373","675710","0.0-373.0","1100","3","","","","","","","","","","","","","","confidence","","","2","36","","","","","","","","","","17"
"","","","","","","","","","","","preload","374","675710","0.0-374.0","","","","","true","","","","","","","","","","","preload","","","2","37","false","[]","[]","[]","","","","","",""
"","","","","","","","","","","","canvas-keyboard-response","375","676012","0.0-375.0","null","null","","","","","","","","","","","","","","fixation","","","2","37","","","","","","","","","",""
"","","","","","","","","","","","canvas-keyboard-response","376","676315","0.0-376.0","null","null","","","","","","","","","","","","","","stimulus","","","2","37","","","","","","","","","",""
"","","","","","","","","","","","canvas-button-response","377","677294","0.0-377.0","976","car","","","","","","","","","","","","","","perceptual","","","2","37","","","","","67","car","10","0","1",""
"","","","","","","","","","","","canvas-button-response","378","678049","0.0-378.0","755","5","","","","","","","","","","","","","","confidence","","","2","37","","","","","","","","","","18"
"","","","","","","","","","","","preload","379","678051","0.0-379.0","","","","","true","","","","","","","","","","","preload","","","2","38","false","[]","[]","[]","","","","","",""
"","","","","","","","","","","","canvas-keyboard-response","380","678353","0.0-380.0","null","null","","","","","","","","","","","","","","fixation","","","2","38","","","","","","","","","",""
"","","","","","","","","","","","canvas-keyboard-response","381","678656","0.0-381.0","null","null","","","","","","","","","","","","","","stimulus","","","2","38","","","","","","","","","",""
"","","","","","","","","","","","canvas-button-response","382","684530","0.0-382.0","5871","bridge","","","","","","","","","","","","","","perceptual","","","2","38","","","","","395","knife","10","0","0",""
"","","","","","","","","","","","canvas-button-response","383","685204","0.0-383.0","673","3","","","","","","","","","","","","","","confidence","","","2","38","","","","","","","","","","18"
"","","","","","","","","","","","preload","384","685205","0.0-384.0","","","","","true","","","","","","","","","","","preload","","","2","39","false","[]","[]","[]","","","","","",""
"","","","","","","","","","","","canvas-keyboard-response","385","685506","0.0-385.0","null","null","","","","","","","","","","","","","","fixation","","","2","39","","","","","","","","","",""
"","","","","","","","","","","","canvas-keyboard-response","386","685808","0.0-386.0","null","null","","","","","","","","","","","","","","stimulus","","","2","39","","","","","","","","","",""
"","","","","","","","","","","","canvas-button-response","387","688155","0.0-387.0","2346","bed","","","","","","","","","","","","","","perceptual","","","2","39","","","","","148","bed","10","0","1",""
"","","","","","","","","","","","canvas-button-response","388","688669","0.0-388.0","514","2","","","","","","","","","","","","","","confidence","","","2","39","","","","","","","","","","19"
"","","","","","","","","","","","preload","389","688670","0.0-389.0","","","","","true","","","","","","","","","","","preload","","","2","40","false","[]","[]","[]","","","","","",""
"","","","","","","","","","","","canvas-keyboard-response","390","688972","0.0-390.0","null","null","","","","","","","","","","","","","","fixation","","","2","40","","","","","","","","","",""
"","","","","","","","","","","","canvas-keyboard-response","391","689274","0.0-391.0","null","null","","","","","","","","","","","","","","stimulus","","","2","40","","","","","","","","","",""
"","","","","","","","","","","","canvas-button-response","392","690638","0.0-392.0","1362","house","","","","","","","","","","","","","","perceptual","","","2","40","","","","","17","house","6","0","1",""
"","","","","","","","","","","","canvas-button-response","393","691226","0.0-393.0","586","9","","","","","","","","","","","","","","confidence","","","2","40","","","","","","","","","","20"
"","","","","","","","","","","","preload","394","691226","0.0-394.0","","","","","true","","","","","","","","","","","preload","","","2","41","false","[]","[]","[]","","","","","",""
"","","","","","","","","","","","canvas-keyboard-response","395","691528","0.0-395.0","null","null","","","","","","","","","","","","","","fixation","","","2","41","","","","","","","","","",""
"","","","","","","","","","","","canvas-keyboard-response","396","691831","0.0-396.0","null","null","","","","","","","","","","","","","","stimulus","","","2","41","","","","","","","","","",""
"","","","","","","","","","","","canvas-button-response","397","693670","0.0-397.0","1837","car","","","","","","","","","","","","","","perceptual","","","2","41","","","","","249","train","6","0","0",""
"","","","","","","","","","","","canvas-button-response","398","694418","0.0-398.0","747","4","","","","","","","","","","","","","","confidence","","","2","41","","","","","","","","","","20"
"","","","","","","","","","","","preload","399","694418","0.0-399.0","","","","","true","","","","","","","","","","","preload","","","2","42","false","[]","[]","[]","","","","","",""
"","","","","","","","","","","","canvas-keyboard-response","400","694720","0.0-400.0","null","null","","","","","","","","","","","","","","fixation","","","2","42","","","","","","","","","",""
"","","","","","","","","","","","canvas-keyboard-response","401","695023","0.0-401.0","null","null","","","","","","","","","","","","","","stimulus","","","2","42","","","","","","","","","",""
"","","","","","","","","","","","canvas-button-response","402","696925","0.0-402.0","1901","cat","","","","","","","","","","","","","","perceptual","","","2","42","","","","","355","elephant","10","0","0",""
"","","","","","","","","","","","canvas-button-response","403","697762","0.0-403.0","836","8","","","","","","","","","","","","","","confidence","","","2","42","","","","","","","","","","20"
"","","","","","","","","","","","preload","404","697762","0.0-404.0","","","","","true","","","","","","","","","","","preload","","","2","43","false","[]","[]","[]","","","","","",""
"","","","","","","","","","","","canvas-keyboard-response","405","698064","0.0-405.0","null","null","","","","","","","","","","","","","","fixation","","","2","43","","","","","","","","","",""
"","","","","","","","","","","","canvas-keyboard-response","406","698367","0.0-406.0","null","null","","","","","","","","","","","","","","stimulus","","","2","43","","","","","","","","","",""
"","","","","","","","","","","","canvas-button-response","407","699450","0.0-407.0","1081","flower","","","","","","","","","","","","","","perceptual","","","2","43","","","","","213","flower","6","0","1",""
"","","","","","","","","","","","canvas-button-response","408","700246","0.0-408.0","794","10","","","","","","","","","","","","","","confidence","","","2","43","","","","","","","","","","21"
"","","","","","","","","","","","preload","409","700246","0.0-409.0","","","","","true","","","","","","","","","","","preload","","","2","44","false","[]","[]","[]","","","","","",""
"","","","","","","","","","","","canvas-keyboard-response","410","700548","0.0-410.0","null","null","","","","","","","","","","","","","","fixation","","","2","44","","","","","","","","","",""
"","","","","","","","","","","","canvas-keyboard-response","411","700850","0.0-411.0","null","null","","","","","","","","","","","","","","stimulus","","","2","44","","","","","","","","","",""
"","","","","","","","","","","","canvas-button-response","412","703510","0.0-412.0","2658","train","","","","","","","","","","","","","","perceptual","","","2","44","","","","","327","elephant","6","0","0",""
"","","","","","","","","","","","canvas-button-response","413","704508","0.0-413.0","996","1","","","","","","","","","","","","","","confidence","","","2","44","","","","","","","","","","21"
"","","","","","","","","","","","preload","414","704509","0.0-414.0","","","","","true","","","","","","","","","","","preload","","","2","45","false","[]","[]","[]","","","","","",""
"","","","","","","","","","","","canvas-keyboard-response","415","704810","0.0-415.0","null","null","","","","","","","","","","","","","","fixation","","","2","45","","","","","","","","","",""
"","","","","","","","","","","","canvas-keyboard-response","416","705113","0.0-416.0","null","null","","","","","","","","","","","","","","stimulus","","","2","45","","","","","","","","","",""
"","","","","","","","","","","","canvas-button-response","417","706580","0.0-417.0","1466","knife","","","","","","","","","","","","","","perceptual","","","2","45","","","","","381","knife","10","0","1",""
"","","","","","","","","","","","canvas-button-response","418","707265","0.0-418.0","684","1","","","","","","","","","","","","","","confidence","","","2","45","","","","","","","","","","22"
"","","","","","","","","","","","preload","419","707266","0.0-419.0","","","","","true","","","","","","","","","","","preload","","","2","46","false","[]","[]","[]","","","","","",""
"","","","","","","","","","","","canvas-keyboard-response","420","707568","0.0-420.0","null","null","","","","","","","","","","","","","","fixation","","","2","46","","","","","","","","","",""
"","","","","","","","","","","","canvas-keyboard-response","421","707869","0.0-421.0","null","null","","","","","","","","","","","","","","stimulus","","","2","46","","","","","","","","","",""
"","","","","","","","","","","","canvas-button-response","422","708772","0.0-422.0","901","knife","","","","","","","","","","","","","","perceptual","","","2","46","","","","","265","train","10","0","0",""
"","","","","","","","","","","","canvas-button-response","423","709651","0.0-423.0","875","1","","","","","","","","","","","","","","confidence","","","2","46","","","","","","","","","","22"
"","","","","","","","","","","","preload","424","709652","0.0-424.0","","","","","true","","","","","","","","","","","preload","","","2","47","false","[]","[]","[]","","","","","",""
"","","","","","","","","","","","canvas-keyboard-response","425","709958","0.0-425.0","null","null","","","","","","","","","","","","","","fixation","","","2","47","","","","","","","","","",""
"","","","","","","","","","","","canvas-keyboard-response","426","710262","0.0-426.0","null","null","","","","","","","","","","","","","","stimulus","","","2","47","","","","","","","","","",""
"","","","","","","","","","","","canvas-button-response","427","713712","0.0-427.0","3447","house","","","","","","","","","","","","","","perceptual","","","2","47","","","","","225","flower","10","0","0",""
"","","","","","","","","","","","canvas-button-response","428","715423","0.0-428.0","1710","0","","","","","","","","","","","","","","confidence","","","2","47","","","","","","","","","","22"
"","","","","","","","","","","","preload","429","715424","0.0-429.0","","","","","true","","","","","","","","","","","preload","","","2","48","false","[]","[]","[]","","","","","",""
"","","","","","","","","","","","canvas-keyboard-response","430","715726","0.0-430.0","null","null","","","","","","","","","","","","","","fixation","","","2","48","","","","","","","","","",""
"","","","","","","","","","","","canvas-keyboard-response","431","716029","0.0-431.0","null","null","","","","","","","","","","","","","","stimulus","","","2","48","","","","","","","","","",""
"","","","","","","","","","","","canvas-button-response","432","719644","0.0-432.0","3610","cat","","","","","","","","","","","","","","perceptual","","","2","48","","","","","341","elephant","10","0","0",""
"","","","","","","","","","","","canvas-button-response","433","720528","0.0-433.0","883","0","","","","","","","","","","","","","","confidence","","","2","48","","","","","","","","","","22"
"","","","","","","","","","","","preload","434","720529","0.0-434.0","","","","","true","","","","","","","","","","","preload","","","2","49","false","[]","[]","[]","","","","","",""
"","","","","","","","","","","","canvas-keyboard-response","435","720831","0.0-435.0","null","null","","","","","","","","","","","","","","fixation","","","2","49","","","","","","","","","",""
"","","","","","","","","","","","canvas-keyboard-response","436","721133","0.0-436.0","null","null","","","","","","","","","","","","","","stimulus","","","2","49","","","","","","","","","",""
"","","","","","","","","","","","canvas-button-response","437","722394","0.0-437.0","1259","car","","","","","","","","","","","","","","perceptual","","","2","49","","","","","311","cat","10","0","0",""
"","","","","","","","","","","","canvas-button-response","438","723230","0.0-438.0","835","0","","","","","","","","","","","","","","confidence","","","2","49","","","","","","","","","","22"
"","","","","","","","","","","","html-button-response","439","729626","0.0-439.0","6394","0","","","","","","","","","","","","","","<p style=""font-size:20px;color:#000000"">You got 22 out of 50 trials correct in this block.<br><br>You have completed 6% of the experiment.<br><br>Take a short break.<br><br>When you are ready, click Continue to proceed.","","","2","49","","","","","","","","","",""
"","","","","","","","","","","","html-keyboard-response","440","730629","0.0-440.0","null","null","","","","","","","","","","","","","","<p style=""font-size:32px;color:#000000""><br><br> RUN: &nbsp 1/4 <br><br> BLOCK: 2/4 ","","","2","49","","","","","","","","","",""
"","","","","","","","","","","","preload","441","730629","0.0-441.0","","","","","true","","","","","","","","","","","preload","","","2","50","false","[]","[]","[]","","","","","",""
"","","","","","","","","","","","canvas-keyboard-response","442","730932","0.0-442.0","null","null","","","","","","","","","","","","","","fixation","","","2","50","","","","","","","","","",""
"","","","","","","","","","","","canvas-keyboard-response","443","731234","0.0-443.0","null","null","","","","","","","","","","","","","","stimulus","","","2","50","","","","","","","","","",""
"","","","","","","","","","","","canvas-button-response","444","733524","0.0-444.0","2289","car","","","","","","","","","","","","","","perceptual","","","2","50","","","","","275","train","10","0","0",""
"","","","","","","","","","","","canvas-button-response","445","734329","0.0-445.0","804","3","","","","","","","","","","","","","","confidence","","","2","50","","","","","","","","","","0"
"","","","","","","","","","","","preload","446","734329","0.0-446.0","","","","","true","","","","","","","","","","","preload","","","2","51","false","[]","[]","[]","","","","","",""
"","","","","","","","","","","","canvas-keyboard-response","447","734632","0.0-447.0","null","null","","","","","","","","","","","","","","fixation","","","2","51","","","","","","","","","",""
"","","","","","","","","","","","canvas-keyboard-response","448","734934","0.0-448.0","null","null","","","","","","","","","","","","","","stimulus","","","2","51","","","","","","","","","",""
"","","","","","","","","","","","canvas-button-response","449","735663","0.0-449.0","727","car","","","","","","","","","","","","","","perceptual","","","2","51","","","","","354","elephant","10","0","0",""
"","","","","","","","","","","","canvas-button-response","450","736523","0.0-450.0","859","2","","","","","","","","","","","","","","confidence","","","2","51","","","","","","","","","","0"
"","","","","","","","","","","","preload","451","736523","0.0-451.0","","","","","true","","","","","","","","","","","preload","","","2","52","false","[]","[]","[]","","","","","",""
"","","","","","","","","","","","canvas-keyboard-response","452","736826","0.0-452.0","null","null","","","","","","","","","","","","","","fixation","","","2","52","","","","","","","","","",""
"","","","","","","","","","","","canvas-keyboard-response","453","737128","0.0-453.0","null","null","","","","","","","","","","","","","","stimulus","","","2","52","","","","","","","","","",""
"","","","","","","","","","","","canvas-button-response","454","738444","0.0-454.0","1314","bridge","","","","","","","","","","","","","","perceptual","","","2","52","","","","","32","house","10","0","0",""
"","","","","","","","","","","","canvas-button-response","455","739168","0.0-455.0","723","3","","","","","","","","","","","","","","confidence","","","2","52","","","","","","","","","","0"
"","","","","","","","","","","","preload","456","739168","0.0-456.0","","","","","true","","","","","","","","","","","preload","","","2","53","false","[]","[]","[]","","","","","",""
"","","","","","","","","","","","canvas-keyboard-response","457","739471","0.0-457.0","null","null","","","","","","","","","","","","","","fixation","","","2","53","","","","","","","","","",""
"","","","","","","","","","","","canvas-keyboard-response","458","739774","0.0-458.0","null","null","","","","","","","","","","","","","","stimulus","","","2","53","","","","","","","","","",""
"","","","","","","","","","","","canvas-button-response","459","741724","0.0-459.0","1949","house","","","","","","","","","","","","","","perceptual","","","2","53","","","","","11","house","6","0","1",""
"","","","","","","","","","","","canvas-button-response","460","742416","0.0-460.0","691","9","","","","","","","","","","","","","","confidence","","","2","53","","","","","","","","","","1"
"","","","","","","","","","","","preload","461","742416","0.0-461.0","","","","","true","","","","","","","","","","","preload","","","2","54","false","[]","[]","[]","","","","","",""
"","","","","","","","","","","","canvas-keyboard-response","462","742717","0.0-462.0","null","null","","","","","","","","","","","","","","fixation","","","2","54","","","","","","","","","",""
"","","","","","","","","","","","canvas-keyboard-response","463","743019","0.0-463.0","null","null","","","","","","","","","","","","","","stimulus","","","2","54","","","","","","","","","",""
"","","","","","","","","","","","canvas-button-response","464","743927","0.0-464.0","906","bridge","","","","","","","","","","","","","","perceptual","","","2","54","","","","","165","bridge","6","0","1",""
"","","","","","","","","","","","canvas-button-response","465","744739","0.0-465.0","811","10","","","","","","","","","","","","","","confidence","","","2","54","","","","","","","","","","2"
"","","","","","","","","","","","preload","466","744739","0.0-466.0","","","","","true","","","","","","","","","","","preload","","","2","55","false","[]","[]","[]","","","","","",""
"","","","","","","","","","","","canvas-keyboard-response","467","745041","0.0-467.0","null","null","","","","","","","","","","","","","","fixation","","","2","55","","","","","","","","","",""
"","","","","","","","","","","","canvas-keyboard-response","468","745342","0.0-468.0","null","null","","","","","","","","","","","","","","stimulus","","","2","55","","","","","","","","","",""
"","","","","","","","","","","","canvas-button-response","469","746226","0.0-469.0","884","bed","","","","","","","","","","","","","","perceptual","","","2","55","","","","","137","bed","6","0","1",""
"","","","","","","","","","","","canvas-button-response","470","746950","0.0-470.0","723","10","","","","","","","","","","","","","","confidence","","","2","55","","","","","","","","","","3"
"","","","","","","","","","","","preload","471","746950","0.0-471.0","","","","","true","","","","","","","","","","","preload","","","2","56","false","[]","[]","[]","","","","","",""
"","","","","","","","","","","","canvas-keyboard-response","472","747252","0.0-472.0","null","null","","","","","","","","","","","","","","fixation","","","2","56","","","","","","","","","",""
"","","","","","","","","","","","canvas-keyboard-response","473","747554","0.0-473.0","null","null","","","","","","","","","","","","","","stimulus","","","2","56","","","","","","","","","",""
"","","","","","","","","","","","canvas-button-response","474","751604","0.0-474.0","4050","car","","","","","","","","","","","","","","perceptual","","","2","56","","","","","69","car","10","0","1",""
"","","","","","","","","","","","canvas-button-response","475","752384","0.0-475.0","779","1","","","","","","","","","","","","","","confidence","","","2","56","","","","","","","","","","4"
"","","","","","","","","","","","preload","476","752384","0.0-476.0","","","","","true","","","","","","","","","","","preload","","","2","57","false","[]","[]","[]","","","","","",""
"","","","","","","","","","","","canvas-keyboard-response","477","752685","0.0-477.0","null","null","","","","","","","","","","","","","","fixation","","","2","57","","","","","","","","","",""
"","","","","","","","","","","","canvas-keyboard-response","478","752988","0.0-478.0","null","null","","","","","","","","","","","","","","stimulus","","","2","57","","","","","","","","","",""
"","","","","","","","","","","","canvas-button-response","479","755874","0.0-479.0","2884","flower","","","","","","","","","","","","","","perceptual","","","2","57","","","","","145","bed","10","0","0",""
"","","","","","","","","","","","canvas-button-response","480","756750","0.0-480.0","875","0","","","","","","","","","","","","","","confidence","","","2","57","","","","","","","","","","4"
"","","","","","","","","","","","preload","481","756750","0.0-481.0","","","","","true","","","","","","","","","","","preload","","","2","58","false","[]","[]","[]","","","","","",""
"","","","","","","","","","","","canvas-keyboard-response","482","757052","0.0-482.0","null","null","","","","","","","","","","","","","","fixation","","","2","58","","","","","","","","","",""
"","","","","","","","","","","","canvas-keyboard-response","483","757354","0.0-483.0","null","null","","","","","","","","","","","","","","stimulus","","","2","58","","","","","","","","","",""
"","","","","","","","","","","","canvas-button-response","484","759996","0.0-484.0","2640","knife","","","","","","","","","","","","","","perceptual","","","2","58","","","","","378","knife","6","0","1",""
"","","","","","","","","","","","canvas-button-response","485","761918","0.0-485.0","1921","2","","","","","","","","","","","","","","confidence","","","2","58","","","","","","","","","","5"
"","","","","","","","","","","","preload","486","761918","0.0-486.0","","","","","true","","","","","","","","","","","preload","","","2","59","false","[]","[]","[]","","","","","",""
"","","","","","","","","","","","canvas-keyboard-response","487","762220","0.0-487.0","null","null","","","","","","","","","","","","","","fixation","","","2","59","","","","","","","","","",""
"","","","","","","","","","","","canvas-keyboard-response","488","762522","0.0-488.0","null","null","","","","","","","","","","","","","","stimulus","","","2","59","","","","","","","","","",""
"","","","","","","","","","","","canvas-button-response","489","764716","0.0-489.0","2192","phone","","","","","","","","","","","","","","perceptual","","","2","59","","","","","382","knife","10","0","0",""
"","","","","","","","","","","","canvas-button-response","490","765753","0.0-490.0","1036","3","","","","","","","","","","","","","","confidence","","","2","59","","","","","","","","","","5"
"","","","","","","","","","","","preload","491","765754","0.0-491.0","","","","","true","","","","","","","","","","","preload","","","2","60","false","[]","[]","[]","","","","","",""
