"width","height","webaudio","browser","browser_version","mobile","os","fullscreen","vsync_rate","webcam","microphone","trial_type","trial_index","time_elapsed","internal_node_id","rt","response","accuracy","view_history","success","item_width_mm","item_height_mm","item_width_px","px2mm","view_dist_mm","item_width_deg","px2deg","scale_factor","win_width_deg","win_height_deg","stimulus","datetime","subjectID","curr_triallist","trial_no","timeout","failed_images","failed_audio","failed_video","image_index","category","blur","reps","correct","running_score"
"1280","712","true","chrome","141.0.0","false","Mac OS","true","58","true","true","browser-check","0","1044","0.0-0.0","","","","","","","","","","","","","","","","","","","","","","","","","","","","","",""
"","","","","","","","","","","","survey","1","18342","0.0-1.0","17241","{""P0_Q0"":""903890683"",""P0_Q1"":""20"",""P1_Q0"":""Female"",""P1_Q1"":""Not Hispanic or Latino"",""P1_Q2"":""Black or African American"",""P1_Q3"":""Normal"",""P1_Q4"":""Right-Handed""}","[]","","","","","","","","","","","","","","","","","","","","","","","","","","",""
"","","","","","","","","","","","instructions","2","41275","0.0-2.0","22931","","","[{""page_index"":0,""viewing_time"":2446},{""page_index"":1,""viewing_time"":4111},{""page_index"":2,""viewing_time"":10107},{""page_index"":3,""viewing_time"":6267}]","","","","","","","","","","","","","","","","","","","","","","","","","",""
"","","","","","","","","","","","fullscreen","3","44215","0.0-3.0","1932","","","","true","","","","","","","","","","","","","","","","","","","","","","","","",""
"","","","","","","","","","","","virtual-chinrest","4","130013","0.0-4.0","85797","","","","","85.6","53.98","237.08056043457873","2.770234809425784","619.63","7.902685347819291","30.000000000000004","1.552214991079152","42.666666666666664","26.666666666666664","","","","","","","","","","","","","","",""
"","","","","","","","","","","","instructions","5","217665","0.0-5.0","87652","","","[{""page_index"":0,""viewing_time"":7936},{""page_index"":1,""viewing_time"":4459},{""page_index"":0,""viewing_time"":7168},{""page_index"":1,""viewing_time"":5533},{""page_index"":2,""viewing_time"":26848},{""page_index"":3,""viewing_time"":3264},{""page_index"":4,""viewing_time"":4943},{""page_index"":5,""viewing_time"":21667},{""page_index"":6,""viewing_time"":5834}]","","","","","","","","","","","","","","","","","","","","","","","","","",""
"","","","","","","","","","","","html-button-response","6","220243","0.0-6.0","2571","0","","","","","","","","","","","","","","start_practice","Sat Oct 18 2025 21:04:51 GMT-0400 (Eastern Daylight Time)","22758","","","","","","","","","","","",""
"","","","","","","","","","","","preload","7","220246","0.0-7.0","","","","","true","","","","","","","","","","","preload","","","0","0","false","[]","[]","[]","","","","","",""
"","","","","","","","","","","","canvas-keyboard-response","8","220556","0.0-8.0","null","null","","","","","","","","","","","","","","fixation","","","0","0","","","","","","","","","",""
"","","","","","","","","","","","canvas-keyboard-response","9","220859","0.0-9.0","null","null","","","","","","","","","","","","","","stimulus","","","0","0","","","","","","","","","",""
"","","","","","","","","","","","canvas-button-response","10","223026","0.0-10.0","2161","bed","","","","","","","","","","","","","","perceptual","","","0","0","","","","","32","bed","1","","1",""
"","","","","","","","","","","","canvas-button-response","11","225495","0.0-11.0","2465","10","","","","","","","","","","","","","","confidence","","","0","0","","","","","","","","","","1"
"","","","","","","","","","","","html-keyboard-response","12","226500","0.0-12.0","null","null","","","","","","","","","","","","","","feedback","Sat Oct 18 2025 21:04:59 GMT-0400 (Eastern Daylight Time)","22758","0","0","","","","","","","","","",""
"","","","","","","","","","","","preload","13","226501","0.0-13.0","","","","","true","","","","","","","","","","","preload","","","0","1","false","[]","[]","[]","","","","","",""
"","","","","","","","","","","","canvas-keyboard-response","14","226804","0.0-14.0","null","null","","","","","","","","","","","","","","fixation","","","0","1","","","","","","","","","",""
"","","","","","","","","","","","canvas-keyboard-response","15","227106","0.0-15.0","null","null","","","","","","","","","","","","","","stimulus","","","0","1","","","","","","","","","",""
"","","","","","","","","","","","canvas-button-response","16","230671","0.0-16.0","3562","phone","","","","","","","","","","","","","","perceptual","","","0","1","","","","","22","phone","1","","1",""
"","","","","","","","","","","","canvas-button-response","17","232015","0.0-17.0","1341","8","","","","","","","","","","","","","","confidence","","","0","1","","","","","","","","","","2"
"","","","","","","","","","","","html-keyboard-response","18","233020","0.0-18.0","null","null","","","","","","","","","","","","","","feedback","Sat Oct 18 2025 21:05:05 GMT-0400 (Eastern Daylight Time)","22758","0","1","","","","","","","","","",""
"","","","","","","","","","","","preload","19","233023","0.0-19.0","","","","","true","","","","","","","","","","","preload","","","0","2","false","[]","[]","[]","","","","","",""
"","","","","","","","","","","","canvas-keyboard-response","20","233325","0.0-20.0","null","null","","","","","","","","","","","","","","fixation","","","0","2","","","","","","","","","",""
"","","","","","","","","","","","canvas-keyboard-response","21","233627","0.0-21.0","null","null","","","","","","","","","","","","","","stimulus","","","0","2","","","","","","","","","",""
"","","","","","","","","","","","canvas-button-response","22","235039","0.0-22.0","1407","house","","","","","","","","","","","","","","perceptual","","","0","2","","","","","2","house","1","","1",""
"","","","","","","","","","","","canvas-button-response","23","235807","0.0-23.0","764","10","","","","","","","","","","","","","","confidence","","","0","2","","","","","","","","","","3"
"","","","","","","","","","","","html-keyboard-response","24","236812","0.0-24.0","null","null","","","","","","","","","","","","","","feedback","Sat Oct 18 2025 21:05:09 GMT-0400 (Eastern Daylight Time)","22758","0","2","","","","","","","","","",""
"","","","","","","","","","","","preload","25","236813","0.0-25.0","","","","","true","","","","","","","","","","","preload","","","0","3","false","[]","[]","[]","","","","","",""
"","","","","","","","","","","","canvas-keyboard-response","26","237116","0.0-26.0","null","null","","","","","","","","","","","","","","fixation","","","0","3","","","","","","","","","",""
"","","","","","","","","","","","canvas-keyboard-response","27","237418","0.0-27.0","null","null","","","","","","","","","","","","","","stimulus","","","0","3","","","","","","","","","",""
"","","","","","","","","","","","canvas-button-response","28","238891","0.0-28.0","1468","bridge","","","","","","","","","","","","","","perceptual","","","0","3","","","","","42","bridge","1","","1",""
"","","","","","","","","","","","canvas-button-response","29","239674","0.0-29.0","779","10","","","","","","","","","","","","","","confidence","","","0","3","","","","","","","","","","4"
"","","","","","","","","","","","html-keyboard-response","30","240679","0.0-30.0","null","null","","","","","","","","","","","","","","feedback","Sat Oct 18 2025 21:05:13 GMT-0400 (Eastern Daylight Time)","22758","0","3","","","","","","","","","",""
"","","","","","","","","","","","preload","31","240679","0.0-31.0","","","","","true","","","","","","","","","","","preload","","","0","4","false","[]","[]","[]","","","","","",""
"","","","","","","","","","","","canvas-keyboard-response","32","240980","0.0-32.0","null","null","","","","","","","","","","","","","","fixation","","","0","4","","","","","","","","","",""
"","","","","","","","","","","","canvas-keyboard-response","33","241282","0.0-33.0","null","null","","","","","","","","","","","","","","stimulus","","","0","4","","","","","","","","","",""
"","","","","","","","","","","","canvas-button-response","34","242034","0.0-34.0","747","train","","","","","","","","","","","","","","perceptual","","","0","4","","","","","62","train","1","","1",""
"","","","","","","","","","","","canvas-button-response","35","242749","0.0-35.0","710","10","","","","","","","","","","","","","","confidence","","","0","4","","","","","","","","","","5"
"","","","","","","","","","","","html-keyboard-response","36","243754","0.0-36.0","null","null","","","","","","","","","","","","","","feedback","Sat Oct 18 2025 21:05:16 GMT-0400 (Eastern Daylight Time)","22758","0","4","","","","","","","","","",""
"","","","","","","","","","","","preload","37","243756","0.0-37.0","","","","","true","","","","","","","","","","","preload","","","0","5","false","[]","[]","[]","","","","","",""
"","","","","","","","","","","","canvas-keyboard-response","38","244059","0.0-38.0","null","null","","","","","","","","","","","","","","fixation","","","0","5","","","","","","","","","",""
"","","","","","","","","","","","canvas-keyboard-response","39","244361","0.0-39.0","null","null","","","","","","","","","","","","","","stimulus","","","0","5","","","","","","","","","",""
"","","","","","","","","","","","canvas-button-response","40","245199","0.0-40.0","835","cat","","","","","","","","","","","","","","perceptual","","","0","5","","","","","72","cat","1","","1",""
"","","","","","","","","","","","canvas-button-response","41","245955","0.0-41.0","752","10","","","","","","","","","","","","","","confidence","","","0","5","","","","","","","","","","6"
"","","","","","","","","","","","html-keyboard-response","42","246961","0.0-42.0","null","null","","","","","","","","","","","","","","feedback","Sat Oct 18 2025 21:05:19 GMT-0400 (Eastern Daylight Time)","22758","0","5","","","","","","","","","",""
"","","","","","","","","","","","preload","43","246962","0.0-43.0","","","","","true","","","","","","","","","","","preload","","","0","6","false","[]","[]","[]","","","","","",""
"","","","","","","","","","","","canvas-keyboard-response","44","247265","0.0-44.0","null","null","","","","","","","","","","","","","","fixation","","","0","6","","","","","","","","","",""
"","","","","","","","","","","","canvas-keyboard-response","45","247568","0.0-45.0","null","null","","","","","","","","","","","","","","stimulus","","","0","6","","","","","","","","","",""
"","","","","","","","","","","","canvas-button-response","46","250983","0.0-46.0","3411","flower","","","","","","","","","","","","","","perceptual","","","0","6","","","","","52","flower","1","","1",""
"","","","","","","","","","","","canvas-button-response","47","252245","0.0-47.0","1259","10","","","","","","","","","","","","","","confidence","","","0","6","","","","","","","","","","7"
"","","","","","","","","","","","html-keyboard-response","48","253249","0.0-48.0","null","null","","","","","","","","","","","","","","feedback","Sat Oct 18 2025 21:05:26 GMT-0400 (Eastern Daylight Time)","22758","0","6","","","","","","","","","",""
"","","","","","","","","","","","preload","49","253250","0.0-49.0","","","","","true","","","","","","","","","","","preload","","","0","7","false","[]","[]","[]","","","","","",""
"","","","","","","","","","","","canvas-keyboard-response","50","253553","0.0-50.0","null","null","","","","","","","","","","","","","","fixation","","","0","7","","","","","","","","","",""
"","","","","","","","","","","","canvas-keyboard-response","51","253856","0.0-51.0","null","null","","","","","","","","","","","","","","stimulus","","","0","7","","","","","","","","","",""
"","","","","","","","","","","","canvas-button-response","52","255142","0.0-52.0","1280","car","","","","","","","","","","","","","","perceptual","","","0","7","","","","","12","car","1","","1",""
"","","","","","","","","","","","canvas-button-response","53","255968","0.0-53.0","822","10","","","","","","","","","","","","","","confidence","","","0","7","","","","","","","","","","8"
"","","","","","","","","","","","html-keyboard-response","54","256974","0.0-54.0","null","null","","","","","","","","","","","","","","feedback","Sat Oct 18 2025 21:05:29 GMT-0400 (Eastern Daylight Time)","22758","0","7","","","","","","","","","",""
"","","","","","","","","","","","preload","55","256975","0.0-55.0","","","","","true","","","","","","","","","","","preload","","","0","8","false","[]","[]","[]","","","","","",""
"","","","","","","","","","","","canvas-keyboard-response","56","257277","0.0-56.0","null","null","","","","","","","","","","","","","","fixation","","","0","8","","","","","","","","","",""
"","","","","","","","","","","","canvas-keyboard-response","57","257579","0.0-57.0","null","null","","","","","","","","","","","","","","stimulus","","","0","8","","","","","","","","","",""
"","","","","","","","","","","","canvas-button-response","58","263415","0.0-58.0","5831","knife","","","","","","","","","","","","","","perceptual","","","0","8","","","","","82","elephant","1","","0",""
"","","","","","","","","","","","canvas-button-response","59","264722","0.0-59.0","1304","3","","","","","","","","","","","","","","confidence","","","0","8","","","","","","","","","","8"
"","","","","","","","","","","","html-keyboard-response","60","265728","0.0-60.0","null","null","","","","","","","","","","","","","","feedback","Sat Oct 18 2025 21:05:38 GMT-0400 (Eastern Daylight Time)","22758","0","8","","","","","","","","","",""
"","","","","","","","","","","","preload","61","265729","0.0-61.0","","","","","true","","","","","","","","","","","preload","","","0","9","false","[]","[]","[]","","","","","",""
"","","","","","","","","","","","canvas-keyboard-response","62","266031","0.0-62.0","null","null","","","","","","","","","","","","","","fixation","","","0","9","","","","","","","","","",""
"","","","","","","","","","","","canvas-keyboard-response","63","266333","0.0-63.0","null","null","","","","","","","","","","","","","","stimulus","","","0","9","","","","","","","","","",""
"","","","","","","","","","","","canvas-button-response","64","270361","0.0-64.0","4023","car","","","","","","","","","","","","","","perceptual","","","0","9","","","","","92","knife","1","","0",""
"","","","","","","","","","","","canvas-button-response","65","271389","0.0-65.0","1025","6","","","","","","","","","","","","","","confidence","","","0","9","","","","","","","","","","8"
"","","","","","","","","","","","html-keyboard-response","66","272392","0.0-66.0","null","null","","","","","","","","","","","","","","feedback","Sat Oct 18 2025 21:05:45 GMT-0400 (Eastern Daylight Time)","22758","0","9","","","","","","","","","",""
"","","","","","","","","","","","html-button-response","67","278046","0.0-67.0","5650","0","","","","","","","","","","","","","","start_practice","Sat Oct 18 2025 21:05:46 GMT-0400 (Eastern Daylight Time)","22758","0","9","","","","","","","","","",""
"","","","","","","","","","","","preload","68","278048","0.0-68.0","","","","","true","","","","","","","","","","","preload","","","1","0","false","[]","[]","[]","","","","","",""
"","","","","","","","","","","","canvas-keyboard-response","69","278352","0.0-69.0","null","null","","","","","","","","","","","","","","fixation","","","1","0","","","","","","","","","",""
"","","","","","","","","","","","canvas-keyboard-response","70","278655","0.0-70.0","null","null","","","","","","","","","","","","","","stimulus","","","1","0","","","","","","","","","",""
"","","","","","","","","","","","canvas-button-response","71","280838","0.0-71.0","2178","bed","","","","","","","","","","","","","","perceptual","","","1","0","","","","","34","bed","6","","1",""
"","","","","","","","","","","","canvas-button-response","72","281642","0.0-72.0","801","8","","","","","","","","","","","","","","confidence","","","1","0","","","","","","","","","","1"
"","","","","","","","","","","","html-keyboard-response","73","282648","0.0-73.0","null","null","","","","","","","","","","","","","","feedback","Sat Oct 18 2025 21:05:55 GMT-0400 (Eastern Daylight Time)","22758","1","0","","","","","","","","","",""
"","","","","","","","","","","","preload","74","282649","0.0-74.0","","","","","true","","","","","","","","","","","preload","","","1","1","false","[]","[]","[]","","","","","",""
"","","","","","","","","","","","canvas-keyboard-response","75","282952","0.0-75.0","null","null","","","","","","","","","","","","","","fixation","","","1","1","","","","","","","","","",""
"","","","","","","","","","","","canvas-keyboard-response","76","283255","0.0-76.0","null","null","","","","","","","","","","","","","","stimulus","","","1","1","","","","","","","","","",""
"","","","","","","","","","","","canvas-button-response","77","288804","0.0-77.0","5545","elephant","","","","","","","","","","","","","","perceptual","","","1","1","","","","","17","car","10","","0",""
"","","","","","","","","","","","canvas-button-response","78","291271","0.0-78.0","2464","0","","","","","","","","","","","","","","confidence","","","1","1","","","","","","","","","","1"
"","","","","","","","","","","","html-keyboard-response","79","292276","0.0-79.0","null","null","","","","","","","","","","","","","","feedback","Sat Oct 18 2025 21:06:05 GMT-0400 (Eastern Daylight Time)","22758","1","1","","","","","","","","","",""
"","","","","","","","","","","","preload","80","292277","0.0-80.0","","","","","true","","","","","","","","","","","preload","","","1","2","false","[]","[]","[]","","","","","",""
"","","","","","","","","","","","canvas-keyboard-response","81","292579","0.0-81.0","null","null","","","","","","","","","","","","","","fixation","","","1","2","","","","","","","","","",""
"","","","","","","","","","","","canvas-keyboard-response","82","292881","0.0-82.0","null","null","","","","","","","","","","","","","","stimulus","","","1","2","","","","","","","","","",""
"","","","","","","","","","","","canvas-button-response","83","294294","0.0-83.0","1407","house","","","","","","","","","","","","","","perceptual","","","1","2","","","","","4","house","6","","1",""
"","","","","","","","","","","","canvas-button-response","84","295056","0.0-84.0","759","10","","","","","","","","","","","","","","confidence","","","1","2","","","","","","","","","","2"
"","","","","","","","","","","","html-keyboard-response","85","296061","0.0-85.0","null","null","","","","","","","","","","","","","","feedback","Sat Oct 18 2025 21:06:08 GMT-0400 (Eastern Daylight Time)","22758","1","2","","","","","","","","","",""
"","","","","","","","","","","","preload","86","296062","0.0-86.0","","","","","true","","","","","","","","","","","preload","","","1","3","false","[]","[]","[]","","","","","",""
"","","","","","","","","","","","canvas-keyboard-response","87","296364","0.0-87.0","null","null","","","","","","","","","","","","","","fixation","","","1","3","","","","","","","","","",""
"","","","","","","","","","","","canvas-keyboard-response","88","296666","0.0-88.0","null","null","","","","","","","","","","","","","","stimulus","","","1","3","","","","","","","","","",""
"","","","","","","","","","","","canvas-button-response","89","298281","0.0-89.0","1610","train","","","","","","","","","","","","","","perceptual","","","1","3","","","","","87","elephant","10","","0",""
"","","","","","","","","","","","canvas-button-response","90","299066","0.0-90.0","781","8","","","","","","","","","","","","","","confidence","","","1","3","","","","","","","","","","2"
"","","","","","","","","","","","html-keyboard-response","91","300072","0.0-91.0","null","null","","","","","","","","","","","","","","feedback","Sat Oct 18 2025 21:06:12 GMT-0400 (Eastern Daylight Time)","22758","1","3","","","","","","","","","",""
"","","","","","","","","","","","preload","92","300073","0.0-92.0","","","","","true","","","","","","","","","","","preload","","","1","4","false","[]","[]","[]","","","","","",""
"","","","","","","","","","","","canvas-keyboard-response","93","300375","0.0-93.0","null","null","","","","","","","","","","","","","","fixation","","","1","4","","","","","","","","","",""
"","","","","","","","","","","","canvas-keyboard-response","94","300677","0.0-94.0","null","null","","","","","","","","","","","","","","stimulus","","","1","4","","","","","","","","","",""
"","","","","","","","","","","","canvas-button-response","95","305036","0.0-95.0","4355","knife","","","","","","","","","","","","","","perceptual","","","1","4","","","","","74","cat","6","","0",""
"","","","","","","","","","","","canvas-button-response","96","306695","0.0-96.0","1656","5","","","","","","","","","","","","","","confidence","","","1","4","","","","","","","","","","2"
"","","","","","","","","","","","html-keyboard-response","97","307699","0.0-97.0","null","null","","","","","","","","","","","","","","feedback","Sat Oct 18 2025 21:06:20 GMT-0400 (Eastern Daylight Time)","22758","1","4","","","","","","","","","",""
"","","","","","","","","","","","preload","98","307700","0.0-98.0","","","","","true","","","","","","","","","","","preload","","","1","5","false","[]","[]","[]","","","","","",""
"","","","","","","","","","","","canvas-keyboard-response","99","308002","0.0-99.0","null","null","","","","","","","","","","","","","","fixation","","","1","5","","","","","","","","","",""
"","","","","","","","","","","","canvas-keyboard-response","100","308305","0.0-100.0","null","null","","","","","","","","","","","","","","stimulus","","","1","5","","","","","","","","","",""
"","","","","","","","","","","","canvas-button-response","101","311577","0.0-101.0","3267","phone","","","","","","","","","","","","","","perceptual","","","1","5","","","","","47","bridge","10","","0",""
"","","","","","","","","","","","canvas-button-response","102","312962","0.0-102.0","1382","0","","","","","","","","","","","","","","confidence","","","1","5","","","","","","","","","","2"
"","","","","","","","","","","","html-keyboard-response","103","313967","0.0-103.0","null","null","","","","","","","","","","","","","","feedback","Sat Oct 18 2025 21:06:26 GMT-0400 (Eastern Daylight Time)","22758","1","5","","","","","","","","","",""
"","","","","","","","","","","","preload","104","313968","0.0-104.0","","","","","true","","","","","","","","","","","preload","","","1","6","false","[]","[]","[]","","","","","",""
"","","","","","","","","","","","canvas-keyboard-response","105","314269","0.0-105.0","null","null","","","","","","","","","","","","","","fixation","","","1","6","","","","","","","","","",""
"","","","","","","","","","","","canvas-keyboard-response","106","314571","0.0-106.0","null","null","","","","","","","","","","","","","","stimulus","","","1","6","","","","","","","","","",""
"","","","","","","","","","","","canvas-button-response","107","319083","0.0-107.0","4507","elephant","","","","","","","","","","","","","","perceptual","","","1","6","","","","","14","car","6","","0",""
"","","","","","","","","","","","canvas-button-response","108","320153","0.0-108.0","1068","1","","","","","","","","","","","","","","confidence","","","1","6","","","","","","","","","","2"
"","","","","","","","","","","","html-keyboard-response","109","321158","0.0-109.0","null","null","","","","","","","","","","","","","","feedback","Sat Oct 18 2025 21:06:34 GMT-0400 (Eastern Daylight Time)","22758","1","6","","","","","","","","","",""
"","","","","","","","","","","","preload","110","321159","0.0-110.0","","","","","true","","","","","","","","","","","preload","","","1","7","false","[]","[]","[]","","","","","",""
"","","","","","","","","","","","canvas-keyboard-response","111","321462","0.0-111.0","null","null","","","","","","","","","","","","","","fixation","","","1","7","","","","","","","","","",""
"","","","","","","","","","","","canvas-keyboard-response","112","321764","0.0-112.0","null","null","","","","","","","","","","","","","","stimulus","","","1","7","","","","","","","","","",""
"","","","","","","","","","","","canvas-button-response","113","323579","0.0-113.0","1809","house","","","","","","","","","","","","","","perceptual","","","1","7","","","","","84","elephant","6","","0",""
"","","","","","","","","","","","canvas-button-response","114","324642","0.0-114.0","1060","3","","","","","","","","","","","","","","confidence","","","1","7","","","","","","","","","","2"
"","","","","","","","","","","","html-keyboard-response","115","325647","0.0-115.0","null","null","","","","","","","","","","","","","","feedback","Sat Oct 18 2025 21:06:38 GMT-0400 (Eastern Daylight Time)","22758","1","7","","","","","","","","","",""
"","","","","","","","","","","","preload","116","325648","0.0-116.0","","","","","true","","","","","","","","","","","preload","","","1","8","false","[]","[]","[]","","","","","",""
"","","","","","","","","","","","canvas-keyboard-response","117","325950","0.0-117.0","null","null","","","","","","","","","","","","","","fixation","","","1","8","","","","","","","","","",""
"","","","","","","","","","","","canvas-keyboard-response","118","326251","0.0-118.0","null","null","","","","","","","","","","","","","","stimulus","","","1","8","","","","","","","","","",""
"","","","","","","","","","","","canvas-button-response","119","327265","0.0-119.0","1009","train","","","","","","","","","","","","","","perceptual","","","1","8","","","","","67","train","10","","1",""
"","","","","","","","","","","","canvas-button-response","120","327879","0.0-120.0","611","5","","","","","","","","","","","","","","confidence","","","1","8","","","","","","","","","","3"
"","","","","","","","","","","","html-keyboard-response","121","328885","0.0-121.0","null","null","","","","","","","","","","","","","","feedback","Sat Oct 18 2025 21:06:41 GMT-0400 (Eastern Daylight Time)","22758","1","8","","","","","","","","","",""
"","","","","","","","","","","","preload","122","328886","0.0-122.0","","","","","true","","","","","","","","","","","preload","","","1","9","false","[]","[]","[]","","","","","",""
"","","","","","","","","","","","canvas-keyboard-response","123","329188","0.0-123.0","null","null","","","","","","","","","","","","","","fixation","","","1","9","","","","","","","","","",""
"","","","","","","","","","","","canvas-keyboard-response","124","329490","0.0-124.0","null","null","","","","","","","","","","","","","","stimulus","","","1","9","","","","","","","","","",""
"","","","","","","","","","","","canvas-button-response","125","331037","0.0-125.0","1542","bridge","","","","","","","","","","","","","","perceptual","","","1","9","","","","","7","house","10","","0",""
"","","","","","","","","","","","canvas-button-response","126","331883","0.0-126.0","842","7","","","","","","","","","","","","","","confidence","","","1","9","","","","","","","","","","3"
"","","","","","","","","","","","html-keyboard-response","127","332887","0.0-127.0","null","null","","","","","","","","","","","","","","feedback","Sat Oct 18 2025 21:06:45 GMT-0400 (Eastern Daylight Time)","22758","1","9","","","","","","","","","",""
"","","","","","","","","","","","preload","128","332888","0.0-128.0","","","","","true","","","","","","","","","","","preload","","","1","10","false","[]","[]","[]","","","","","",""
"","","","","","","","","","","","canvas-keyboard-response","129","333190","0.0-129.0","null","null","","","","","","","","","","","","","","fixation","","","1","10","","","","","","","","","",""
"","","","","","","","","","","","canvas-keyboard-response","130","333493","0.0-130.0","null","null","","","","","","","","","","","","","","stimulus","","","1","10","","","","","","","","","",""
"","","","","","","","","","","","canvas-button-response","131","339313","0.0-131.0","5815","car","","","","","","","","","","","","","","perceptual","","","1","10","","","","","94","knife","6","","0",""
"","","","","","","","","","","","canvas-button-response","132","340303","0.0-132.0","987","3","","","","","","","","","","","","","","confidence","","","1","10","","","","","","","","","","3"
"","","","","","","","","","","","html-keyboard-response","133","341309","0.0-133.0","null","null","","","","","","","","","","","","","","feedback","Sat Oct 18 2025 21:06:54 GMT-0400 (Eastern Daylight Time)","22758","1","10","","","","","","","","","",""
"","","","","","","","","","","","preload","134","341311","0.0-134.0","","","","","true","","","","","","","","","","","preload","","","1","11","false","[]","[]","[]","","","","","",""
"","","","","","","","","","","","canvas-keyboard-response","135","341614","0.0-135.0","null","null","","","","","","","","","","","","","","fixation","","","1","11","","","","","","","","","",""
"","","","","","","","","","","","canvas-keyboard-response","136","341915","0.0-136.0","null","null","","","","","","","","","","","","","","stimulus","","","1","11","","","","","","","","","",""
"","","","","","","","","","","","canvas-button-response","137","343364","0.0-137.0","1444","house","","","","","","","","","","","","","","perceptual","","","1","11","","","","","57","flower","10","","0",""
"","","","","","","","","","","","canvas-button-response","138","344086","0.0-138.0","719","3","","","","","","","","","","","","","","confidence","","","1","11","","","","","","","","","","3"
"","","","","","","","","","","","html-keyboard-response","139","345092","0.0-139.0","null","null","","","","","","","","","","","","","","feedback","Sat Oct 18 2025 21:06:57 GMT-0400 (Eastern Daylight Time)","22758","1","11","","","","","","","","","",""
"","","","","","","","","","","","preload","140","345093","0.0-140.0","","","","","true","","","","","","","","","","","preload","","","1","12","false","[]","[]","[]","","","","","",""
"","","","","","","","","","","","canvas-keyboard-response","141","345395","0.0-141.0","null","null","","","","","","","","","","","","","","fixation","","","1","12","","","","","","","","","",""
"","","","","","","","","","","","canvas-keyboard-response","142","345698","0.0-142.0","null","null","","","","","","","","","","","","","","stimulus","","","1","12","","","","","","","","","",""
"","","","","","","","","","","","canvas-button-response","143","346815","0.0-143.0","1112","bridge","","","","","","","","","","","","","","perceptual","","","1","12","","","","","44","bridge","6","","1",""
"","","","","","","","","","","","canvas-button-response","144","347352","0.0-144.0","533","4","","","","","","","","","","","","","","confidence","","","1","12","","","","","","","","","","4"
"","","","","","","","","","","","html-keyboard-response","145","348358","0.0-145.0","null","null","","","","","","","","","","","","","","feedback","Sat Oct 18 2025 21:07:01 GMT-0400 (Eastern Daylight Time)","22758","1","12","","","","","","","","","",""
"","","","","","","","","","","","preload","146","348359","0.0-146.0","","","","","true","","","","","","","","","","","preload","","","1","13","false","[]","[]","[]","","","","","",""
"","","","","","","","","","","","canvas-keyboard-response","147","348661","0.0-147.0","null","null","","","","","","","","","","","","","","fixation","","","1","13","","","","","","","","","",""
"","","","","","","","","","","","canvas-keyboard-response","148","348964","0.0-148.0","null","null","","","","","","","","","","","","","","stimulus","","","1","13","","","","","","","","","",""
"","","","","","","","","","","","canvas-button-response","149","349765","0.0-149.0","797","knife","","","","","","","","","","","","","","perceptual","","","1","13","","","","","97","knife","10","","1",""
"","","","","","","","","","","","canvas-button-response","150","350537","0.0-150.0","769","10","","","","","","","","","","","","","","confidence","","","1","13","","","","","","","","","","5"
"","","","","","","","","","","","html-keyboard-response","151","351543","0.0-151.0","null","null","","","","","","","","","","","","","","feedback","Sat Oct 18 2025 21:07:04 GMT-0400 (Eastern Daylight Time)","22758","1","13","","","","","","","","","",""
"","","","","","","","","","","","preload","152","351544","0.0-152.0","","","","","true","","","","","","","","","","","preload","","","1","14","false","[]","[]","[]","","","","","",""
"","","","","","","","","","","","canvas-keyboard-response","153","351846","0.0-153.0","null","null","","","","","","","","","","","","","","fixation","","","1","14","","","","","","","","","",""
"","","","","","","","","","","","canvas-keyboard-response","154","352148","0.0-154.0","null","null","","","","","","","","","","","","","","stimulus","","","1","14","","","","","","","","","",""
"","","","","","","","","","","","canvas-button-response","155","353026","0.0-155.0","872","flower","","","","","","","","","","","","","","perceptual","","","1","14","","","","","54","flower","6","","1",""
"","","","","","","","","","","","canvas-button-response","156","353797","0.0-156.0","769","6","","","","","","","","","","","","","","confidence","","","1","14","","","","","","","","","","6"
"","","","","","","","","","","","html-keyboard-response","157","354802","0.0-157.0","null","null","","","","","","","","","","","","","","feedback","Sat Oct 18 2025 21:07:07 GMT-0400 (Eastern Daylight Time)","22758","1","14","","","","","","","","","",""
"","","","","","","","","","","","preload","158","354803","0.0-158.0","","","","","true","","","","","","","","","","","preload","","","1","15","false","[]","[]","[]","","","","","",""
"","","","","","","","","","","","canvas-keyboard-response","159","355106","0.0-159.0","null","null","","","","","","","","","","","","","","fixation","","","1","15","","","","","","","","","",""
"","","","","","","","","","","","canvas-keyboard-response","160","355409","0.0-160.0","null","null","","","","","","","","","","","","","","stimulus","","","1","15","","","","","","","","","",""
"","","","","","","","","","","","canvas-button-response","161","361370","0.0-161.0","5956","train","","","","","","","","","","","","","","perceptual","","","1","15","","","","","24","phone","6","","0",""
"","","","","","","","","","","","canvas-button-response","162","362421","0.0-162.0","1048","0","","","","","","","","","","","","","","confidence","","","1","15","","","","","","","","","","6"
"","","","","","","","","","","","html-keyboard-response","163","363425","0.0-163.0","null","null","","","","","","","","","","","","","","feedback","Sat Oct 18 2025 21:07:16 GMT-0400 (Eastern Daylight Time)","22758","1","15","","","","","","","","","",""
"","","","","","","","","","","","preload","164","363426","0.0-164.0","","","","","true","","","","","","","","","","","preload","","","1","16","false","[]","[]","[]","","","","","",""
"","","","","","","","","","","","canvas-keyboard-response","165","363728","0.0-165.0","null","null","","","","","","","","","","","","","","fixation","","","1","16","","","","","","","","","",""
"","","","","","","","","","","","canvas-keyboard-response","166","364031","0.0-166.0","null","null","","","","","","","","","","","","","","stimulus","","","1","16","","","","","","","","","",""
"","","","","","","","","","","","canvas-button-response","167","365032","0.0-167.0","995","knife","","","","","","","","","","","","","","perceptual","","","1","16","","","","","37","bed","10","","0",""
"","","","","","","","","","","","canvas-button-response","168","365670","0.0-168.0","635","5","","","","","","","","","","","","","","confidence","","","1","16","","","","","","","","","","6"
"","","","","","","","","","","","html-keyboard-response","169","366674","0.0-169.0","null","null","","","","","","","","","","","","","","feedback","Sat Oct 18 2025 21:07:19 GMT-0400 (Eastern Daylight Time)","22758","1","16","","","","","","","","","",""
"","","","","","","","","","","","preload","170","366675","0.0-170.0","","","","","true","","","","","","","","","","","preload","","","1","17","false","[]","[]","[]","","","","","",""
"","","","","","","","","","","","canvas-keyboard-response","171","366978","0.0-171.0","null","null","","","","","","","","","","","","","","fixation","","","1","17","","","","","","","","","",""
"","","","","","","","","","","","canvas-keyboard-response","172","367280","0.0-172.0","null","null","","","","","","","","","","","","","","stimulus","","","1","17","","","","","","","","","",""
"","","","","","","","","","","","canvas-button-response","173","368151","0.0-173.0","866","train","","","","","","","","","","","","","","perceptual","","","1","17","","","","","64","train","6","","1",""
"","","","","","","","","","","","canvas-button-response","174","368495","0.0-174.0","340","9","","","","","","","","","","","","","","confidence","","","1","17","","","","","","","","","","7"
"","","","","","","","","","","","html-keyboard-response","175","369500","0.0-175.0","null","null","","","","","","","","","","","","","","feedback","Sat Oct 18 2025 21:07:22 GMT-0400 (Eastern Daylight Time)","22758","1","17","","","","","","","","","",""
"","","","","","","","","","","","preload","176","369501","0.0-176.0","","","","","true","","","","","","","","","","","preload","","","1","18","false","[]","[]","[]","","","","","",""
"","","","","","","","","","","","canvas-keyboard-response","177","369803","0.0-177.0","null","null","","","","","","","","","","","","","","fixation","","","1","18","","","","","","","","","",""
"","","","","","","","","","","","canvas-keyboard-response","178","370104","0.0-178.0","null","null","","","","","","","","","","","","","","stimulus","","","1","18","","","","","","","","","",""
"","","","","","","","","","","","canvas-button-response","179","371754","0.0-179.0","1645","cat","","","","","","","","","","","","","","perceptual","","","1","18","","","","","77","cat","10","","1",""
"","","","","","","","","","","","canvas-button-response","180","372289","0.0-180.0","532","7","","","","","","","","","","","","","","confidence","","","1","18","","","","","","","","","","8"
"","","","","","","","","","","","html-keyboard-response","181","373295","0.0-181.0","null","null","","","","","","","","","","","","","","feedback","Sat Oct 18 2025 21:07:26 GMT-0400 (Eastern Daylight Time)","22758","1","18","","","","","","","","","",""
"","","","","","","","","","","","preload","182","373295","0.0-182.0","","","","","true","","","","","","","","","","","preload","","","1","19","false","[]","[]","[]","","","","","",""
"","","","","","","","","","","","canvas-keyboard-response","183","373598","0.0-183.0","null","null","","","","","","","","","","","","","","fixation","","","1","19","","","","","","","","","",""
"","","","","","","","","","","","canvas-keyboard-response","184","373900","0.0-184.0","null","null","","","","","","","","","","","","","","stimulus","","","1","19","","","","","","","","","",""
"","","","","","","","","","","","canvas-button-response","185","377225","0.0-185.0","3320","flower","","","","","","","","","","","","","","perceptual","","","1","19","","","","","27","phone","10","","0",""
"","","","","","","","","","","","canvas-button-response","186","378297","0.0-186.0","1069","2","","","","","","","","","","","","","","confidence","","","1","19","","","","","","","","","","8"
"","","","","","","","","","","","html-keyboard-response","187","379302","0.0-187.0","null","null","","","","","","","","","","","","","","feedback","Sat Oct 18 2025 21:07:32 GMT-0400 (Eastern Daylight Time)","22758","1","19","","","","","","","","","",""
"","","","","","","","","","","","html-button-response","188","386495","0.0-188.0","7189","0","","","","","","","","","","","","","","start experiment","Sat Oct 18 2025 21:07:33 GMT-0400 (Eastern Daylight Time)","22758","1","19","","","","","","","","","",""
"","","","","","","","","","","","preload","189","386497","0.0-189.0","","","","","true","","","","","","","","","","","preload","","","2","0","false","[]","[]","[]","","","","","",""
"","","","","","","","","","","","canvas-keyboard-response","190","386802","0.0-190.0","null","null","","","","","","","","","","","","","","fixation","","","2","0","","","","","","","","","",""
"","","","","","","","","","","","canvas-keyboard-response","191","387105","0.0-191.0","null","null","","","","","","","","","","","","","","stimulus","","","2","0","","","","","","","","","",""
"","","","","","","","","","","","canvas-button-response","192","389208","0.0-192.0","2098","cat","","","","","","","","","","","","","","perceptual","","","2","0","","","","","229","flower","10","0","0",""
"","","","","","","","","","","","canvas-button-response","193","389831","0.0-193.0","620","3","","","","","","","","","","","","","","confidence","","","2","0","","","","","","","","","","0"
"","","","","","","","","","","","preload","194","389834","0.0-194.0","","","","","true","","","","","","","","","","","preload","","","2","1","false","[]","[]","[]","","","","","",""
"","","","","","","","","","","","canvas-keyboard-response","195","390137","0.0-195.0","null","null","","","","","","","","","","","","","","fixation","","","2","1","","","","","","","","","",""
"","","","","","","","","","","","canvas-keyboard-response","196","390439","0.0-196.0","null","null","","","","","","","","","","","","","","stimulus","","","2","1","","","","","","","","","",""
"","","","","","","","","","","","canvas-button-response","197","392665","0.0-197.0","2222","house","","","","","","","","","","","","","","perceptual","","","2","1","","","","","21","house","10","0","1",""
"","","","","","","","","","","","canvas-button-response","198","393778","0.0-198.0","1109","1","","","","","","","","","","","","","","confidence","","","2","1","","","","","","","","","","1"
"","","","","","","","","","","","preload","199","393780","0.0-199.0","","","","","true","","","","","","","","","","","preload","","","2","2","false","[]","[]","[]","","","","","",""
"","","","","","","","","","","","canvas-keyboard-response","200","394083","0.0-200.0","null","null","","","","","","","","","","","","","","fixation","","","2","2","","","","","","","","","",""
"","","","","","","","","","","","canvas-keyboard-response","201","394385","0.0-201.0","null","null","","","","","","","","","","","","","","stimulus","","","2","2","","","","","","","","","",""
"","","","","","","","","","","","canvas-button-response","202","395741","0.0-202.0","1351","knife","","","","","","","","","","","","","","perceptual","","","2","2","","","","","111","phone","10","0","0",""
"","","","","","","","","","","","canvas-button-response","203","397479","0.0-203.0","1735","0","","","","","","","","","","","","","","confidence","","","2","2","","","","","","","","","","1"
"","","","","","","","","","","","preload","204","397481","0.0-204.0","","","","","true","","","","","","","","","","","preload","","","2","3","false","[]","[]","[]","","","","","",""
"","","","","","","","","","","","canvas-keyboard-response","205","397784","0.0-205.0","null","null","","","","","","","","","","","","","","fixation","","","2","3","","","","","","","","","",""
"","","","","","","","","","","","canvas-keyboard-response","206","398088","0.0-206.0","null","null","","","","","","","","","","","","","","stimulus","","","2","3","","","","","","","","","",""
"","","","","","","","","","","","canvas-button-response","207","404183","0.0-207.0","6091","house","","","","","","","","","","","","","","perceptual","","","2","3","","","","","385","knife","10","0","0",""
"","","","","","","","","","","","canvas-button-response","208","405451","0.0-208.0","1266","0","","","","","","","","","","","","","","confidence","","","2","3","","","","","","","","","","1"
"","","","","","","","","","","","preload","209","405453","0.0-209.0","","","","","true","","","","","","","","","","","preload","","","2","4","false","[]","[]","[]","","","","","",""
"","","","","","","","","","","","canvas-keyboard-response","210","405757","0.0-210.0","null","null","","","","","","","","","","","","","","fixation","","","2","4","","","","","","","","","",""
"","","","","","","","","","","","canvas-keyboard-response","211","406058","0.0-211.0","null","null","","","","","","","","","","","","","","stimulus","","","2","4","","","","","","","","","",""
"","","","","","","","","","","","canvas-button-response","212","407364","0.0-212.0","1301","cat","","","","","","","","","","","","","","perceptual","","","2","4","","","","","182","bridge","10","0","0",""
"","","","","","","","","","","","canvas-button-response","213","408189","0.0-213.0","822","4","","","","","","","","","","","","","","confidence","","","2","4","","","","","","","","","","1"
"","","","","","","","","","","","preload","214","408191","0.0-214.0","","","","","true","","","","","","","","","","","preload","","","2","5","false","[]","[]","[]","","","","","",""
"","","","","","","","","","","","canvas-keyboard-response","215","408495","0.0-215.0","null","null","","","","","","","","","","","","","","fixation","","","2","5","","","","","","","","","",""
"","","","","","","","","","","","canvas-keyboard-response","216","408797","0.0-216.0","null","null","","","","","","","","","","","","","","stimulus","","","2","5","","","","","","","","","",""
"","","","","","","","","","","","canvas-button-response","217","413165","0.0-217.0","4363","flower","","","","","","","","","","","","","","perceptual","","","2","5","","","","","190","bridge","10","0","0",""
"","","","","","","","","","","","canvas-button-response","218","413939","0.0-218.0","770","4","","","","","","","","","","","","","","confidence","","","2","5","","","","","","","","","","1"
"","","","","","","","","","","","preload","219","413941","0.0-219.0","","","","","true","","","","","","","","","","","preload","","","2","6","false","[]","[]","[]","","","","","",""
"","","","","","","","","","","","canvas-keyboard-response","220","414244","0.0-220.0","null","null","","","","","","","","","","","","","","fixation","","","2","6","","","","","","","","","",""
"","","","","","","","","","","","canvas-keyboard-response","221","414547","0.0-221.0","null","null","","","","","","","","","","","","","","stimulus","","","2","6","","","","","","","","","",""
"","","","","","","","","","","","canvas-button-response","222","415636","0.0-222.0","1084","bed","","","","","","","","","","","","","","perceptual","","","2","6","","","","","41","car","6","0","0",""
"","","","","","","","","","","","canvas-button-response","223","416586","0.0-223.0","946","7","","","","","","","","","","","","","","confidence","","","2","6","","","","","","","","","","1"
"","","","","","","","","","","","preload","224","416588","0.0-224.0","","","","","true","","","","","","","","","","","preload","","","2","7","false","[]","[]","[]","","","","","",""
"","","","","","","","","","","","canvas-keyboard-response","225","416893","0.0-225.0","null","null","","","","","","","","","","","","","","fixation","","","2","7","","","","","","","","","",""
"","","","","","","","","","","","canvas-keyboard-response","226","417195","0.0-226.0","null","null","","","","","","","","","","","","","","stimulus","","","2","7","","","","","","","","","",""
"","","","","","","","","","","","canvas-button-response","227","419871","0.0-227.0","2672","elephant","","","","","","","","","","","","","","perceptual","","","2","7","","","","","64","car","10","0","0",""
"","","","","","","","","","","","canvas-button-response","228","420378","0.0-228.0","504","2","","","","","","","","","","","","","","confidence","","","2","7","","","","","","","","","","1"
"","","","","","","","","","","","preload","229","420380","0.0-229.0","","","","","true","","","","","","","","","","","preload","","","2","8","false","[]","[]","[]","","","","","",""
"","","","","","","","","","","","canvas-keyboard-response","230","420683","0.0-230.0","null","null","","","","","","","","","","","","","","fixation","","","2","8","","","","","","","","","",""
"","","","","","","","","","","","canvas-keyboard-response","231","420985","0.0-231.0","null","null","","","","","","","","","","","","","","stimulus","","","2","8","","","","","","","","","",""
"","","","","","","","","","","","canvas-button-response","232","423296","0.0-232.0","2307","bridge","","","","","","","","","","","","","","perceptual","","","2","8","","","","","395","knife","10","0","0",""
"","","","","","","","","","","","canvas-button-response","233","423869","0.0-233.0","570","1","","","","","","","","","","","","","","confidence","","","2","8","","","","","","","","","","1"
"","","","","","","","","","","","preload","234","423872","0.0-234.0","","","","","true","","","","","","","","","","","preload","","","2","9","false","[]","[]","[]","","","","","",""
"","","","","","","","","","","","canvas-keyboard-response","235","424175","0.0-235.0","null","null","","","","","","","","","","","","","","fixation","","","2","9","","","","","","","","","",""
"","","","","","","","","","","","canvas-keyboard-response","236","424478","0.0-236.0","null","null","","","","","","","","","","","","","","stimulus","","","2","9","","","","","","","","","",""
"","","","","","","","","","","","canvas-button-response","237","426018","0.0-237.0","1535","phone","","","","","","","","","","","","","","perceptual","","","2","9","","","","","115","phone","10","0","1",""
"","","","","","","","","","","","canvas-button-response","238","426743","0.0-238.0","721","1","","","","","","","","","","","","","","confidence","","","2","9","","","","","","","","","","2"
"","","","","","","","","","","","preload","239","426745","0.0-239.0","","","","","true","","","","","","","","","","","preload","","","2","10","false","[]","[]","[]","","","","","",""
"","","","","","","","","","","","canvas-keyboard-response","240","427049","0.0-240.0","null","null","","","","","","","","","","","","","","fixation","","","2","10","","","","","","","","","",""
"","","","","","","","","","","","canvas-keyboard-response","241","427351","0.0-241.0","null","null","","","","","","","","","","","","","","stimulus","","","2","10","","","","","","","","","",""
"","","","","","","","","","","","canvas-button-response","242","430970","0.0-242.0","3614","train","","","","","","","","","","","","","","perceptual","","","2","10","","","","","310","cat","10","0","0",""
"","","","","","","","","","","","canvas-button-response","243","432026","0.0-243.0","1053","0","","","","","","","","","","","","","","confidence","","","2","10","","","","","","","","","","2"
"","","","","","","","","","","","preload","244","432029","0.0-244.0","","","","","true","","","","","","","","","","","preload","","","2","11","false","[]","[]","[]","","","","","",""
"","","","","","","","","","","","canvas-keyboard-response","245","432333","0.0-245.0","null","null","","","","","","","","","","","","","","fixation","","","2","11","","","","","","","","","",""
"","","","","","","","","","","","canvas-keyboard-response","246","432635","0.0-246.0","null","null","","","","","","","","","","","","","","stimulus","","","2","11","","","","","","","","","",""
"","","","","","","","","","","","canvas-button-response","247","439867","0.0-247.0","7227","cat","","","","","","","","","","","","","","perceptual","","","2","11","","","","","130","bed","6","0","0",""
"","","","","","","","","","","","canvas-button-response","248","440805","0.0-248.0","935","0","","","","","","","","","","","","","","confidence","","","2","11","","","","","","","","","","2"
"","","","","","","","","","","","preload","249","440807","0.0-249.0","","","","","true","","","","","","","","","","","preload","","","2","12","false","[]","[]","[]","","","","","",""
"","","","","","","","","","","","canvas-keyboard-response","250","441110","0.0-250.0","null","null","","","","","","","","","","","","","","fixation","","","2","12","","","","","","","","","",""
"","","","","","","","","","","","canvas-keyboard-response","251","441412","0.0-251.0","null","null","","","","","","","","","","","","","","stimulus","","","2","12","","","","","","","","","",""
"","","","","","","","","","","","canvas-button-response","252","442332","0.0-252.0","915","car","","","","","","","","","","","","","","perceptual","","","2","12","","","","","44","car","6","0","1",""
"","","","","","","","","","","","canvas-button-response","253","443302","0.0-253.0","967","5","","","","","","","","","","","","","","confidence","","","2","12","","","","","","","","","","3"
"","","","","","","","","","","","preload","254","443304","0.0-254.0","","","","","true","","","","","","","","","","","preload","","","2","13","false","[]","[]","[]","","","","","",""
"","","","","","","","","","","","canvas-keyboard-response","255","443608","0.0-255.0","null","null","","","","","","","","","","","","","","fixation","","","2","13","","","","","","","","","",""
"","","","","","","","","","","","canvas-keyboard-response","256","443911","0.0-256.0","null","null","","","","","","","","","","","","","","stimulus","","","2","13","","","","","","","","","",""
"","","","","","","","","","","","canvas-button-response","257","445090","0.0-257.0","1174","house","","","","","","","","","","","","","","perceptual","","","2","13","","","","","11","house","6","0","1",""
"","","","","","","","","","","","canvas-button-response","258","445757","0.0-258.0","664","8","","","","","","","","","","","","","","confidence","","","2","13","","","","","","","","","","4"
"","","","","","","","","","","","preload","259","445759","0.0-259.0","","","","","true","","","","","","","","","","","preload","","","2","14","false","[]","[]","[]","","","","","",""
"","","","","","","","","","","","canvas-keyboard-response","260","446063","0.0-260.0","null","null","","","","","","","","","","","","","","fixation","","","2","14","","","","","","","","","",""
"","","","","","","","","","","","canvas-keyboard-response","261","446365","0.0-261.0","null","null","","","","","","","","","","","","","","stimulus","","","2","14","","","","","","","","","",""
"","","","","","","","","","","","canvas-button-response","262","449506","0.0-262.0","3136","phone","","","","","","","","","","","","","","perceptual","","","2","14","","","","","303","cat","10","0","0",""
"","","","","","","","","","","","canvas-button-response","263","450197","0.0-263.0","688","1","","","","","","","","","","","","","","confidence","","","2","14","","","","","","","","","","4"
"","","","","","","","","","","","preload","264","450199","0.0-264.0","","","","","true","","","","","","","","","","","preload","","","2","15","false","[]","[]","[]","","","","","",""
"","","","","","","","","","","","canvas-keyboard-response","265","450502","0.0-265.0","null","null","","","","","","","","","","","","","","fixation","","","2","15","","","","","","","","","",""
"","","","","","","","","","","","canvas-keyboard-response","266","450805","0.0-266.0","null","null","","","","","","","","","","","","","","stimulus","","","2","15","","","","","","","","","",""
"","","","","","","","","","","","canvas-button-response","267","453754","0.0-267.0","2944","elephant","","","","","","","","","","","","","","perceptual","","","2","15","","","","","85","phone","6","0","0",""
"","","","","","","","","","","","canvas-button-response","268","454628","0.0-268.0","870","0","","","","","","","","","","","","","","confidence","","","2","15","","","","","","","","","","4"
"","","","","","","","","","","","preload","269","454630","0.0-269.0","","","","","true","","","","","","","","","","","preload","","","2","16","false","[]","[]","[]","","","","","",""
"","","","","","","","","","","","canvas-keyboard-response","270","454933","0.0-270.0","null","null","","","","","","","","","","","","","","fixation","","","2","16","","","","","","","","","",""
"","","","","","","","","","","","canvas-keyboard-response","271","455236","0.0-271.0","null","null","","","","","","","","","","","","","","stimulus","","","2","16","","","","","","","","","",""
"","","","","","","","","","","","canvas-button-response","272","458176","0.0-272.0","2935","bed","","","","","","","","","","","","","","perceptual","","","2","16","","","","","129","bed","6","0","1",""
"","","","","","","","","","","","canvas-button-response","273","458959","0.0-273.0","779","3","","","","","","","","","","","","","","confidence","","","2","16","","","","","","","","","","5"
"","","","","","","","","","","","preload","274","458961","0.0-274.0","","","","","true","","","","","","","","","","","preload","","","2","17","false","[]","[]","[]","","","","","",""
"","","","","","","","","","","","canvas-keyboard-response","275","459265","0.0-275.0","null","null","","","","","","","","","","","","","","fixation","","","2","17","","","","","","","","","",""
"","","","","","","","","","","","canvas-keyboard-response","276","459567","0.0-276.0","null","null","","","","","","","","","","","","","","stimulus","","","2","17","","","","","","","","","",""
"","","","","","","","","","","","canvas-button-response","277","465028","0.0-277.0","5456","elephant","","","","","","","","","","","","","","perceptual","","","2","17","","","","","305","cat","10","0","0",""
"","","","","","","","","","","","canvas-button-response","278","465979","0.0-278.0","948","1","","","","","","","","","","","","","","confidence","","","2","17","","","","","","","","","","5"
"","","","","","","","","","","","preload","279","465981","0.0-279.0","","","","","true","","","","","","","","","","","preload","","","2","18","false","[]","[]","[]","","","","","",""
"","","","","","","","","","","","canvas-keyboard-response","280","466284","0.0-280.0","null","null","","","","","","","","","","","","","","fixation","","","2","18","","","","","","","","","",""
"","","","","","","","","","","","canvas-keyboard-response","281","466588","0.0-281.0","null","null","","","","","","","","","","","","","","stimulus","","","2","18","","","","","","","","","",""
"","","","","","","","","","","","canvas-button-response","282","467799","0.0-282.0","1206","house","","","","","","","","","","","","","","perceptual","","","2","18","","","","","172","bridge","6","0","0",""
"","","","","","","","","","","","canvas-button-response","283","468264","0.0-283.0","461","4","","","","","","","","","","","","","","confidence","","","2","18","","","","","","","","","","5"
"","","","","","","","","","","","preload","284","468265","0.0-284.0","","","","","true","","","","","","","","","","","preload","","","2","19","false","[]","[]","[]","","","","","",""
"","","","","","","","","","","","canvas-keyboard-response","285","468569","0.0-285.0","null","null","","","","","","","","","","","","","","fixation","","","2","19","","","","","","","","","",""
"","","","","","","","","","","","canvas-keyboard-response","286","468872","0.0-286.0","null","null","","","","","","","","","","","","","","stimulus","","","2","19","","","","","","","","","",""
"","","","","","","","","","","","canvas-button-response","287","469697","0.0-287.0","821","bridge","","","","","","","","","","","","","","perceptual","","","2","19","","","","","169","bridge","6","0","1",""
"","","","","","","","","","","","canvas-button-response","288","471290","0.0-288.0","1590","9","","","","","","","","","","","","","","confidence","","","2","19","","","","","","","","","","6"
"","","","","","","","","","","","preload","289","471292","0.0-289.0","","","","","true","","","","","","","","","","","preload","","","2","20","false","[]","[]","[]","","","","","",""
"","","","","","","","","","","","canvas-keyboard-response","290","471595","0.0-290.0","null","null","","","","","","","","","","","","","","fixation","","","2","20","","","","","","","","","",""
"","","","","","","","","","","","canvas-keyboard-response","291","471897","0.0-291.0","null","null","","","","","","","","","","","","","","stimulus","","","2","20","","","","","","","","","",""
"","","","","","","","","","","","canvas-button-response","292","475509","0.0-292.0","3607","elephant","","","","","","","","","","","","","","perceptual","","","2","20","","","","","336","elephant","6","0","1",""
"","","","","","","","","","","","canvas-button-response","293","476252","0.0-293.0","741","3","","","","","","","","","","","","","","confidence","","","2","20","","","","","","","","","","7"
"","","","","","","","","","","","preload","294","476254","0.0-294.0","","","","","true","","","","","","","","","","","preload","","","2","21","false","[]","[]","[]","","","","","",""
"","","","","","","","","","","","canvas-keyboard-response","295","476558","0.0-295.0","null","null","","","","","","","","","","","","","","fixation","","","2","21","","","","","","","","","",""
"","","","","","","","","","","","canvas-keyboard-response","296","476861","0.0-296.0","null","null","","","","","","","","","","","","","","stimulus","","","2","21","","","","","","","","","",""
"","","","","","","","","","","","canvas-button-response","297","478253","0.0-297.0","1388","knife","","","","","","","","","","","","","","perceptual","","","2","21","","","","","134","bed","6","0","0",""
"","","","","","","","","","","","canvas-button-response","298","478766","0.0-298.0","509","5","","","","","","","","","","","","","","confidence","","","2","21","","","","","","","","","","7"
"","","","","","","","","","","","preload","299","478768","0.0-299.0","","","","","true","","","","","","","","","","","preload","","","2","22","false","[]","[]","[]","","","","","",""
"","","","","","","","","","","","canvas-keyboard-response","300","479072","0.0-300.0","null","null","","","","","","","","","","","","","","fixation","","","2","22","","","","","","","","","",""
"","","","","","","","","","","","canvas-keyboard-response","301","479374","0.0-301.0","null","null","","","","","","","","","","","","","","stimulus","","","2","22","","","","","","","","","",""
"","","","","","","","","","","","canvas-button-response","302","480248","0.0-302.0","869","flower","","","","","","","","","","","","","","perceptual","","","2","22","","","","","213","flower","6","0","1",""
"","","","","","","","","","","","canvas-button-response","303","480921","0.0-303.0","670","8","","","","","","","","","","","","","","confidence","","","2","22","","","","","","","","","","8"
"","","","","","","","","","","","preload","304","480923","0.0-304.0","","","","","true","","","","","","","","","","","preload","","","2","23","false","[]","[]","[]","","","","","",""
"","","","","","","","","","","","canvas-keyboard-response","305","481226","0.0-305.0","null","null","","","","","","","","","","","","","","fixation","","","2","23","","","","","","","","","",""
"","","","","","","","","","","","canvas-keyboard-response","306","481529","0.0-306.0","null","null","","","","","","","","","","","","","","stimulus","","","2","23","","","","","","","","","",""
"","","","","","","","","","","","canvas-button-response","307","482983","0.0-307.0","1449","house","","","","","","","","","","","","","","perceptual","","","2","23","","","","","262","train","10","0","0",""
"","","","","","","","","","","","canvas-button-response","308","483503","0.0-308.0","517","2","","","","","","","","","","","","","","confidence","","","2","23","","","","","","","","","","8"
"","","","","","","","","","","","preload","309","483505","0.0-309.0","","","","","true","","","","","","","","","","","preload","","","2","24","false","[]","[]","[]","","","","","",""
"","","","","","","","","","","","canvas-keyboard-response","310","483809","0.0-310.0","null","null","","","","","","","","","","","","","","fixation","","","2","24","","","","","","","","","",""
"","","","","","","","","","","","canvas-keyboard-response","311","484111","0.0-311.0","null","null","","","","","","","","","","","","","","stimulus","","","2","24","","","","","","","","","",""
"","","","","","","","","","","","canvas-button-response","312","485858","0.0-312.0","1742","bridge","","","","","","","","","","","","","","perceptual","","","2","24","","","","","25","house","10","0","0",""
"","","","","","","","","","","","canvas-button-response","313","486796","0.0-313.0","935","1","","","","","","","","","","","","","","confidence","","","2","24","","","","","","","","","","8"
"","","","","","","","","","","","preload","314","486798","0.0-314.0","","","","","true","","","","","","","","","","","preload","","","2","25","false","[]","[]","[]","","","","","",""
"","","","","","","","","","","","canvas-keyboard-response","315","487102","0.0-315.0","null","null","","","","","","","","","","","","","","fixation","","","2","25","","","","","","","","","",""
"","","","","","","","","","","","canvas-keyboard-response","316","487404","0.0-316.0","null","null","","","","","","","","","","","","","","stimulus","","","2","25","","","","","","","","","",""
"","","","","","","","","","","","canvas-button-response","317","488638","0.0-317.0","1230","house","","","","","","","","","","","","","","perceptual","","","2","25","","","","","184","bridge","10","0","0",""
"","","","","","","","","","","","canvas-button-response","318","489067","0.0-318.0","426","4","","","","","","","","","","","","","","confidence","","","2","25","","","","","","","","","","8"
"","","","","","","","","","","","preload","319","489069","0.0-319.0","","","","","true","","","","","","","","","","","preload","","","2","26","false","[]","[]","[]","","","","","",""
"","","","","","","","","","","","canvas-keyboard-response","320","489373","0.0-320.0","null","null","","","","","","","","","","","","","","fixation","","","2","26","","","","","","","","","",""
"","","","","","","","","","","","canvas-keyboard-response","321","489676","0.0-321.0","null","null","","","","","","","","","","","","","","stimulus","","","2","26","","","","","","","","","",""
"","","","","","","","","","","","canvas-button-response","322","492535","0.0-322.0","2854","phone","","","","","","","","","","","","","","perceptual","","","2","26","","","","","230","flower","10","0","0",""
"","","","","","","","","","","","canvas-button-response","323","493395","0.0-323.0","856","2","","","","","","","","","","","","","","confidence","","","2","26","","","","","","","","","","8"
"","","","","","","","","","","","preload","324","493397","0.0-324.0","","","","","true","","","","","","","","","","","preload","","","2","27","false","[]","[]","[]","","","","","",""
"","","","","","","","","","","","canvas-keyboard-response","325","493700","0.0-325.0","null","null","","","","","","","","","","","","","","fixation","","","2","27","","","","","","","","","",""
"","","","","","","","","","","","canvas-keyboard-response","326","494002","0.0-326.0","null","null","","","","","","","","","","","","","","stimulus","","","2","27","","","","","","","","","",""
"","","","","","","","","","","","canvas-button-response","327","494871","0.0-327.0","864","phone","","","","","","","","","","","","","","perceptual","","","2","27","","","","","34","house","10","0","0",""
"","","","","","","","","","","","canvas-button-response","328","495428","0.0-328.0","554","2","","","","","","","","","","","","","","confidence","","","2","27","","","","","","","","","","8"
"","","","","","","","","","","","preload","329","495430","0.0-329.0","","","","","true","","","","","","","","","","","preload","","","2","28","false","[]","[]","[]","","","","","",""
"","","","","","","","","","","","canvas-keyboard-response","330","495734","0.0-330.0","null","null","","","","","","","","","","","","","","fixation","","","2","28","","","","","","","","","",""
"","","","","","","","","","","","canvas-keyboard-response","331","496036","0.0-331.0","null","null","","","","","","","","","","","","","","stimulus","","","2","28","","","","","","","","","",""
"","","","","","","","","","","","canvas-button-response","332","497264","0.0-332.0","1223","flower","","","","","","","","","","","","","","perceptual","","","2","28","","","","","145","bed","10","0","0",""
"","","","","","","","","","","","canvas-button-response","333","498222","0.0-333.0","954","0","","","","","","","","","","","","","","confidence","","","2","28","","","","","","","","","","8"
"","","","","","","","","","","","preload","334","498224","0.0-334.0","","","","","true","","","","","","","","","","","preload","","","2","29","false","[]","[]","[]","","","","","",""
"","","","","","","","","","","","canvas-keyboard-response","335","498527","0.0-335.0","null","null","","","","","","","","","","","","","","fixation","","","2","29","","","","","","","","","",""
"","","","","","","","","","","","canvas-keyboard-response","336","498830","0.0-336.0","null","null","","","","","","","","","","","","","","stimulus","","","2","29","","","","","","","","","",""
"","","","","","","","","","","","canvas-button-response","337","499870","0.0-337.0","1035","house","","","","","","","","","","","","","","perceptual","","","2","29","","","","","349","elephant","10","0","0",""
"","","","","","","","","","","","canvas-button-response","338","500553","0.0-338.0","680","1","","","","","","","","","","","","","","confidence","","","2","29","","","","","","","","","","8"
"","","","","","","","","","","","preload","339","500555","0.0-339.0","","","","","true","","","","","","","","","","","preload","","","2","30","false","[]","[]","[]","","","","","",""
"","","","","","","","","","","","canvas-keyboard-response","340","500859","0.0-340.0","null","null","","","","","","","","","","","","","","fixation","","","2","30","","","","","","","","","",""
"","","","","","","","","","","","canvas-keyboard-response","341","501162","0.0-341.0","null","null","","","","","","","","","","","","","","stimulus","","","2","30","","","","","","","","","",""
"","","","","","","","","","","","canvas-button-response","342","502434","0.0-342.0","1267","phone","","","","","","","","","","","","","","perceptual","","","2","30","","","","","86","phone","6","0","1",""
"","","","","","","","","","","","canvas-button-response","343","503065","0.0-343.0","628","4","","","","","","","","","","","","","","confidence","","","2","30","","","","","","","","","","9"
"","","","","","","","","","","","preload","344","503067","0.0-344.0","","","","","true","","","","","","","","","","","preload","","","2","31","false","[]","[]","[]","","","","","",""
"","","","","","","","","","","","canvas-keyboard-response","345","503371","0.0-345.0","null","null","","","","","","","","","","","","","","fixation","","","2","31","","","","","","","","","",""
"","","","","","","","","","","","canvas-keyboard-response","346","503673","0.0-346.0","null","null","","","","","","","","","","","","","","stimulus","","","2","31","","","","","","","","","",""
"","","","","","","","","","","","canvas-button-response","347","504608","0.0-347.0","930","flower","","","","","","","","","","","","","","perceptual","","","2","31","","","","","359","elephant","10","0","0",""
"","","","","","","","","","","","canvas-button-response","348","505345","0.0-348.0","734","2","","","","","","","","","","","","","","confidence","","","2","31","","","","","","","","","","9"
"","","","","","","","","","","","preload","349","505347","0.0-349.0","","","","","true","","","","","","","","","","","preload","","","2","32","false","[]","[]","[]","","","","","",""
"","","","","","","","","","","","canvas-keyboard-response","350","505651","0.0-350.0","null","null","","","","","","","","","","","","","","fixation","","","2","32","","","","","","","","","",""
"","","","","","","","","","","","canvas-keyboard-response","351","505953","0.0-351.0","null","null","","","","","","","","","","","","","","stimulus","","","2","32","","","","","","","","","",""
"","","","","","","","","","","","canvas-button-response","352","508867","0.0-352.0","2909","bed","","","","","","","","","","","","","","perceptual","","","2","32","","","","","75","car","10","0","0",""
"","","","","","","","","","","","canvas-button-response","353","509532","0.0-353.0","661","3","","","","","","","","","","","","","","confidence","","","2","32","","","","","","","","","","9"
"","","","","","","","","","","","preload","354","509534","0.0-354.0","","","","","true","","","","","","","","","","","preload","","","2","33","false","[]","[]","[]","","","","","",""
"","","","","","","","","","","","canvas-keyboard-response","355","509838","0.0-355.0","null","null","","","","","","","","","","","","","","fixation","","","2","33","","","","","","","","","",""
"","","","","","","","","","","","canvas-keyboard-response","356","510140","0.0-356.0","null","null","","","","","","","","","","","","","","stimulus","","","2","33","","","","","","","","","",""
"","","","","","","","","","","","canvas-button-response","357","511002","0.0-357.0","857","car","","","","","","","","","","","","","","perceptual","","","2","33","","","","","74","car","10","0","1",""
"","","","","","","","","","","","canvas-button-response","358","511547","0.0-358.0","542","5","","","","","","","","","","","","","","confidence","","","2","33","","","","","","","","","","10"
"","","","","","","","","","","","preload","359","511549","0.0-359.0","","","","","true","","","","","","","","","","","preload","","","2","34","false","[]","[]","[]","","","","","",""
"","","","","","","","","","","","canvas-keyboard-response","360","511853","0.0-360.0","null","null","","","","","","","","","","","","","","fixation","","","2","34","","","","","","","","","",""
"","","","","","","","","","","","canvas-keyboard-response","361","512156","0.0-361.0","null","null","","","","","","","","","","","","","","stimulus","","","2","34","","","","","","","","","",""
"","","","","","","","","","","","canvas-button-response","362","513577","0.0-362.0","1418","bed","","","","","","","","","","","","","","perceptual","","","2","34","","","","","131","bed","6","0","1",""
"","","","","","","","","","","","canvas-button-response","363","514142","0.0-363.0","562","6","","","","","","","","","","","","","","confidence","","","2","34","","","","","","","","","","11"
"","","","","","","","","","","","preload","364","514144","0.0-364.0","","","","","true","","","","","","","","","","","preload","","","2","35","false","[]","[]","[]","","","","","",""
"","","","","","","","","","","","canvas-keyboard-response","365","514449","0.0-365.0","null","null","","","","","","","","","","","","","","fixation","","","2","35","","","","","","","","","",""
"","","","","","","","","","","","canvas-keyboard-response","366","514751","0.0-366.0","null","null","","","","","","","","","","","","","","stimulus","","","2","35","","","","","","","","","",""
"","","","","","","","","","","","canvas-button-response","367","515568","0.0-367.0","814","knife","","","","","","","","","","","","","","perceptual","","","2","35","","","","","393","knife","10","0","1",""
"","","","","","","","","","","","canvas-button-response","368","516096","0.0-368.0","525","7","","","","","","","","","","","","","","confidence","","","2","35","","","","","","","","","","12"
"","","","","","","","","","","","preload","369","516099","0.0-369.0","","","","","true","","","","","","","","","","","preload","","","2","36","false","[]","[]","[]","","","","","",""
"","","","","","","","","","","","canvas-keyboard-response","370","516402","0.0-370.0","null","null","","","","","","","","","","","","","","fixation","","","2","36","","","","","","","","","",""
"","","","","","","","","","","","canvas-keyboard-response","371","516705","0.0-371.0","null","null","","","","","","","","","","","","","","stimulus","","","2","36","","","","","","","","","",""
"","","","","","","","","","","","canvas-button-response","372","517619","0.0-372.0","910","bridge","","","","","","","","","","","","","","perceptual","","","2","36","","","","","73","car","10","0","0",""
"","","","","","","","","","","","canvas-button-response","373","518253","0.0-373.0","631","2","","","","","","","","","","","","","","confidence","","","2","36","","","","","","","","","","12"
"","","","","","","","","","","","preload","374","518255","0.0-374.0","","","","","true","","","","","","","","","","","preload","","","2","37","false","[]","[]","[]","","","","","",""
"","","","","","","","","","","","canvas-keyboard-response","375","518560","0.0-375.0","null","null","","","","","","","","","","","","","","fixation","","","2","37","","","","","","","","","",""
"","","","","","","","","","","","canvas-keyboard-response","376","518862","0.0-376.0","null","null","","","","","","","","","","","","","","stimulus","","","2","37","","","","","","","","","",""
"","","","","","","","","","","","canvas-button-response","377","522752","0.0-377.0","3885","bridge","","","","","","","","","","","","","","perceptual","","","2","37","","","","","135","bed","6","0","0",""
"","","","","","","","","","","","canvas-button-response","378","523485","0.0-378.0","730","2","","","","","","","","","","","","","","confidence","","","2","37","","","","","","","","","","12"
"","","","","","","","","","","","preload","379","523487","0.0-379.0","","","","","true","","","","","","","","","","","preload","","","2","38","false","[]","[]","[]","","","","","",""
"","","","","","","","","","","","canvas-keyboard-response","380","523791","0.0-380.0","null","null","","","","","","","","","","","","","","fixation","","","2","38","","","","","","","","","",""
"","","","","","","","","","","","canvas-keyboard-response","381","524094","0.0-381.0","null","null","","","","","","","","","","","","","","stimulus","","","2","38","","","","","","","","","",""
"","","","","","","","","","","","canvas-button-response","382","525406","0.0-382.0","1307","train","","","","","","","","","","","","","","perceptual","","","2","38","","","","","247","train","6","0","1",""
"","","","","","","","","","","","canvas-button-response","383","526015","0.0-383.0","606","1","","","","","","","","","","","","","","confidence","","","2","38","","","","","","","","","","13"
"","","","","","","","","","","","preload","384","526018","0.0-384.0","","","","","true","","","","","","","","","","","preload","","","2","39","false","[]","[]","[]","","","","","",""
"","","","","","","","","","","","canvas-keyboard-response","385","526321","0.0-385.0","null","null","","","","","","","","","","","","","","fixation","","","2","39","","","","","","","","","",""
"","","","","","","","","","","","canvas-keyboard-response","386","526624","0.0-386.0","null","null","","","","","","","","","","","","","","stimulus","","","2","39","","","","","","","","","",""
"","","","","","","","","","","","canvas-button-response","387","528450","0.0-387.0","1821","house","","","","","","","","","","","","","","perceptual","","","2","39","","","","","33","house","10","0","1",""
"","","","","","","","","","","","canvas-button-response","388","528888","0.0-388.0","435","2","","","","","","","","","","","","","","confidence","","","2","39","","","","","","","","","","14"
"","","","","","","","","","","","preload","389","528891","0.0-389.0","","","","","true","","","","","","","","","","","preload","","","2","40","false","[]","[]","[]","","","","","",""
"","","","","","","","","","","","canvas-keyboard-response","390","529194","0.0-390.0","null","null","","","","","","","","","","","","","","fixation","","","2","40","","","","","","","","","",""
"","","","","","","","","","","","canvas-keyboard-response","391","529497","0.0-391.0","null","null","","","","","","","","","","","","","","stimulus","","","2","40","","","","","","","","","",""
"","","","","","","","","","","","canvas-button-response","392","530201","0.0-392.0","699","house","","","","","","","","","","","","","","perceptual","","","2","40","","","","","341","elephant","10","0","0",""
"","","","","","","","","","","","canvas-button-response","393","530622","0.0-393.0","418","1","","","","","","","","","","","","","","confidence","","","2","40","","","","","","","","","","14"
"","","","","","","","","","","","preload","394","530624","0.0-394.0","","","","","true","","","","","","","","","","","preload","","","2","41","false","[]","[]","[]","","","","","",""
"","","","","","","","","","","","canvas-keyboard-response","395","530928","0.0-395.0","null","null","","","","","","","","","","","","","","fixation","","","2","41","","","","","","","","","",""
"","","","","","","","","","","","canvas-keyboard-response","396","531231","0.0-396.0","null","null","","","","","","","","","","","","","","stimulus","","","2","41","","","","","","","","","",""
"","","","","","","","","","","","canvas-button-response","397","533184","0.0-397.0","1949","bridge","","","","","","","","","","","","","","perceptual","","","2","41","","","","","248","train","6","0","0",""
"","","","","","","","","","","","canvas-button-response","398","533593","0.0-398.0","406","2","","","","","","","","","","","","","","confidence","","","2","41","","","","","","","","","","14"
"","","","","","","","","","","","preload","399","533595","0.0-399.0","","","","","true","","","","","","","","","","","preload","","","2","42","false","[]","[]","[]","","","","","",""
"","","","","","","","","","","","canvas-keyboard-response","400","533899","0.0-400.0","null","null","","","","","","","","","","","","","","fixation","","","2","42","","","","","","","","","",""
"","","","","","","","","","","","canvas-keyboard-response","401","534201","0.0-401.0","null","null","","","","","","","","","","","","","","stimulus","","","2","42","","","","","","","","","",""
"","","","","","","","","","","","canvas-button-response","402","535376","0.0-402.0","1171","bed","","","","","","","","","","","","","","perceptual","","","2","42","","","","","121","bed","6","0","1",""
"","","","","","","","","","","","canvas-button-response","403","535816","0.0-403.0","436","4","","","","","","","","","","","","","","confidence","","","2","42","","","","","","","","","","15"
"","","","","","","","","","","","preload","404","535818","0.0-404.0","","","","","true","","","","","","","","","","","preload","","","2","43","false","[]","[]","[]","","","","","",""
"","","","","","","","","","","","canvas-keyboard-response","405","536122","0.0-405.0","null","null","","","","","","","","","","","","","","fixation","","","2","43","","","","","","","","","",""
"","","","","","","","","","","","canvas-keyboard-response","406","536425","0.0-406.0","null","null","","","","","","","","","","","","","","stimulus","","","2","43","","","","","","","","","",""
"","","","","","","","","","","","canvas-button-response","407","537510","0.0-407.0","1080","phone","","","","","","","","","","","","","","perceptual","","","2","43","","","","","13","house","6","0","0",""
"","","","","","","","","","","","canvas-button-response","408","538260","0.0-408.0","747","1","","","","","","","","","","","","","","confidence","","","2","43","","","","","","","","","","15"
"","","","","","","","","","","","preload","409","538262","0.0-409.0","","","","","true","","","","","","","","","","","preload","","","2","44","false","[]","[]","[]","","","","","",""
"","","","","","","","","","","","canvas-keyboard-response","410","538566","0.0-410.0","null","null","","","","","","","","","","","","","","fixation","","","2","44","","","","","","","","","",""
"","","","","","","","","","","","canvas-keyboard-response","411","538869","0.0-411.0","null","null","","","","","","","","","","","","","","stimulus","","","2","44","","","","","","","","","",""
"","","","","","","","","","","","canvas-button-response","412","539974","0.0-412.0","1100","house","","","","","","","","","","","","","","perceptual","","","2","44","","","","","113","phone","10","0","0",""
"","","","","","","","","","","","canvas-button-response","413","540532","0.0-413.0","555","1","","","","","","","","","","","","","","confidence","","","2","44","","","","","","","","","","15"
"","","","","","","","","","","","preload","414","540534","0.0-414.0","","","","","true","","","","","","","","","","","preload","","","2","45","false","[]","[]","[]","","","","","",""
"","","","","","","","","","","","canvas-keyboard-response","415","540838","0.0-415.0","null","null","","","","","","","","","","","","","","fixation","","","2","45","","","","","","","","","",""
"","","","","","","","","","","","canvas-keyboard-response","416","541141","0.0-416.0","null","null","","","","","","","","","","","","","","stimulus","","","2","45","","","","","","","","","",""
"","","","","","","","","","","","canvas-button-response","417","541851","0.0-417.0","706","knife","","","","","","","","","","","","","","perceptual","","","2","45","","","","","197","bridge","10","0","0",""
"","","","","","","","","","","","canvas-button-response","418","542567","0.0-418.0","713","1","","","","","","","","","","","","","","confidence","","","2","45","","","","","","","","","","15"
"","","","","","","","","","","","preload","419","542569","0.0-419.0","","","","","true","","","","","","","","","","","preload","","","2","46","false","[]","[]","[]","","","","","",""
"","","","","","","","","","","","canvas-keyboard-response","420","542872","0.0-420.0","null","null","","","","","","","","","","","","","","fixation","","","2","46","","","","","","","","","",""
"","","","","","","","","","","","canvas-keyboard-response","421","543175","0.0-421.0","null","null","","","","","","","","","","","","","","stimulus","","","2","46","","","","","","","","","",""
"","","","","","","","","","","","canvas-button-response","422","544010","0.0-422.0","830","knife","","","","","","","","","","","","","","perceptual","","","2","46","","","","","383","knife","10","0","1",""
"","","","","","","","","","","","canvas-button-response","423","544599","0.0-423.0","587","1","","","","","","","","","","","","","","confidence","","","2","46","","","","","","","","","","16"
"","","","","","","","","","","","preload","424","544601","0.0-424.0","","","","","true","","","","","","","","","","","preload","","","2","47","false","[]","[]","[]","","","","","",""
"","","","","","","","","","","","canvas-keyboard-response","425","544905","0.0-425.0","null","null","","","","","","","","","","","","","","fixation","","","2","47","","","","","","","","","",""
"","","","","","","","","","","","canvas-keyboard-response","426","545208","0.0-426.0","null","null","","","","","","","","","","","","","","stimulus","","","2","47","","","","","","","","","",""
"","","","","","","","","","","","canvas-button-response","427","545997","0.0-427.0","785","knife","","","","","","","","","","","","","","perceptual","","","2","47","","","","","143","bed","10","0","0",""
"","","","","","","","","","","","canvas-button-response","428","546520","0.0-428.0","519","3","","","","","","","","","","","","","","confidence","","","2","47","","","","","","","","","","16"
"","","","","","","","","","","","preload","429","546522","0.0-429.0","","","","","true","","","","","","","","","","","preload","","","2","48","false","[]","[]","[]","","","","","",""
"","","","","","","","","","","","canvas-keyboard-response","430","546826","0.0-430.0","null","null","","","","","","","","","","","","","","fixation","","","2","48","","","","","","","","","",""
"","","","","","","","","","","","canvas-keyboard-response","431","547129","0.0-431.0","null","null","","","","","","","","","","","","","","stimulus","","","2","48","","","","","","","","","",""
"","","","","","","","","","","","canvas-button-response","432","548332","0.0-432.0","1200","flower","","","","","","","","","","","","","","perceptual","","","2","48","","","","","210","flower","6","0","1",""
"","","","","","","","","","","","canvas-button-response","433","549254","0.0-433.0","919","4","","","","","","","","","","","","","","confidence","","","2","48","","","","","","","","","","17"
"","","","","","","","","","","","preload","434","549256","0.0-434.0","","","","","true","","","","","","","","","","","preload","","","2","49","false","[]","[]","[]","","","","","",""
"","","","","","","","","","","","canvas-keyboard-response","435","549559","0.0-435.0","null","null","","","","","","","","","","","","","","fixation","","","2","49","","","","","","","","","",""
"","","","","","","","","","","","canvas-keyboard-response","436","549861","0.0-436.0","null","null","","","","","","","","","","","","","","stimulus","","","2","49","","","","","","","","","",""
"","","","","","","","","","","","canvas-button-response","437","550786","0.0-437.0","920","train","","","","","","","","","","","","","","perceptual","","","2","49","","","","","254","train","6","0","1",""
"","","","","","","","","","","","canvas-button-response","438","551260","0.0-438.0","471","5","","","","","","","","","","","","","","confidence","","","2","49","","","","","","","","","","18"
"","","","","","","","","","","","html-button-response","439","565156","0.0-439.0","13893","0","","","","","","","","","","","","","","<p style=""font-size:20px;color:#000000"">You got 18 out of 50 trials correct in this block.<br><br>You have completed 6% of the experiment.<br><br>Take a short break.<br><br>When you are ready, click Continue to proceed.","","","2","49","","","","","","","","","",""
"","","","","","","","","","","","html-keyboard-response","440","566160","0.0-440.0","null","null","","","","","","","","","","","","","","<p style=""font-size:32px;color:#000000""><br><br> RUN: &nbsp 1/4 <br><br> BLOCK: 2/4 ","","","2","49","","","","","","","","","",""
"","","","","","","","","","","","preload","441","566160","0.0-441.0","","","","","true","","","","","","","","","","","preload","","","2","50","false","[]","[]","[]","","","","","",""
"","","","","","","","","","","","canvas-keyboard-response","442","566466","0.0-442.0","null","null","","","","","","","","","","","","","","fixation","","","2","50","","","","","","","","","",""
"","","","","","","","","","","","canvas-keyboard-response","443","566768","0.0-443.0","null","null","","","","","","","","","","","","","","stimulus","","","2","50","","","","","","","","","",""
"","","","","","","","","","","","canvas-button-response","444","571347","0.0-444.0","4574","train","","","","","","","","","","","","","","perceptual","","","2","50","","","","","348","elephant","10","0","0",""
"","","","","","","","","","","","canvas-button-response","445","572419","0.0-445.0","1069","1","","","","","","","","","","","","","","confidence","","","2","50","","","","","","","","","","0"
"","","","","","","","","","","","preload","446","572422","0.0-446.0","","","","","true","","","","","","","","","","","preload","","","2","51","false","[]","[]","[]","","","","","",""
"","","","","","","","","","","","canvas-keyboard-response","447","572725","0.0-447.0","null","null","","","","","","","","","","","","","","fixation","","","2","51","","","","","","","","","",""
"","","","","","","","","","","","canvas-keyboard-response","448","573028","0.0-448.0","null","null","","","","","","","","","","","","","","stimulus","","","2","51","","","","","","","","","",""
"","","","","","","","","","","","canvas-button-response","449","574171","0.0-449.0","1139","bed","","","","","","","","","","","","","","perceptual","","","2","51","","","","","154","bed","10","0","1",""
"","","","","","","","","","","","canvas-button-response","450","575003","0.0-450.0","828","4","","","","","","","","","","","","","","confidence","","","2","51","","","","","","","","","","1"
"","","","","","","","","","","","preload","451","575005","0.0-451.0","","","","","true","","","","","","","","","","","preload","","","2","52","false","[]","[]","[]","","","","","",""
"","","","","","","","","","","","canvas-keyboard-response","452","575308","0.0-452.0","null","null","","","","","","","","","","","","","","fixation","","","2","52","","","","","","","","","",""
"","","","","","","","","","","","canvas-keyboard-response","453","575611","0.0-453.0","null","null","","","","","","","","","","","","","","stimulus","","","2","52","","","","","","","","","",""
"","","","","","","","","","","","canvas-button-response","454","582777","0.0-454.0","7161","knife","","","","","","","","","","","","","","perceptual","","","2","52","","","","","329","elephant","6","0","0",""
"","","","","","","","","","","","canvas-button-response","455","584097","0.0-455.0","1317","1","","","","","","","","","","","","","","confidence","","","2","52","","","","","","","","","","1"
"","","","","","","","","","","","preload","456","584098","0.0-456.0","","","","","true","","","","","","","","","","","preload","","","2","53","false","[]","[]","[]","","","","","",""
"","","","","","","","","","","","canvas-keyboard-response","457","584400","0.0-457.0","null","null","","","","","","","","","","","","","","fixation","","","2","53","","","","","","","","","",""
"","","","","","","","","","","","canvas-keyboard-response","458","584702","0.0-458.0","null","null","","","","","","","","","","","","","","stimulus","","","2","53","","","","","","","","","",""
"","","","","","","","","","","","canvas-button-response","459","587582","0.0-459.0","2876","house","","","","","","","","","","","","","","perceptual","","","2","53","","","","","138","bed","6","0","0",""
"","","","","","","","","","","","canvas-button-response","460","588288","0.0-460.0","704","1","","","","","","","","","","","","","","confidence","","","2","53","","","","","","","","","","1"
"","","","","","","","","","","","preload","461","588290","0.0-461.0","","","","","true","","","","","","","","","","","preload","","","2","54","false","[]","[]","[]","","","","","",""
"","","","","","","","","","","","canvas-keyboard-response","462","588593","0.0-462.0","null","null","","","","","","","","","","","","","","fixation","","","2","54","","","","","","","","","",""
"","","","","","","","","","","","canvas-keyboard-response","463","588896","0.0-463.0","null","null","","","","","","","","","","","","","","stimulus","","","2","54","","","","","","","","","",""
"","","","","","","","","","","","canvas-button-response","464","589829","0.0-464.0","931","knife","","","","","","","","","","","","","","perceptual","","","2","54","","","","","293","cat","6","0","0",""
"","","","","","","","","","","","canvas-button-response","465","590489","0.0-465.0","657","1","","","","","","","","","","","","","","confidence","","","2","54","","","","","","","","","","1"
"","","","","","","","","","","","preload","466","590491","0.0-466.0","","","","","true","","","","","","","","","","","preload","","","2","55","false","[]","[]","[]","","","","","",""
"","","","","","","","","","","","canvas-keyboard-response","467","590796","0.0-467.0","null","null","","","","","","","","","","","","","","fixation","","","2","55","","","","","","","","","",""
"","","","","","","","","","","","canvas-keyboard-response","468","591098","0.0-468.0","null","null","","","","","","","","","","","","","","stimulus","","","2","55","","","","","","","","","",""
"","","","","","","","","","","","canvas-button-response","469","592191","0.0-469.0","1088","knife","","","","","","","","","","","","","","perceptual","","","2","55","","","","","290","cat","6","0","0",""
"","","","","","","","","","","","canvas-button-response","470","593111","0.0-470.0","917","1","","","","","","","","","","","","","","confidence","","","2","55","","","","","","","","","","1"
"","","","","","","","","","","","preload","471","593113","0.0-471.0","","","","","true","","","","","","","","","","","preload","","","2","56","false","[]","[]","[]","","","","","",""
"","","","","","","","","","","","canvas-keyboard-response","472","593416","0.0-472.0","null","null","","","","","","","","","","","","","","fixation","","","2","56","","","","","","","","","",""
"","","","","","","","","","","","canvas-keyboard-response","473","593718","0.0-473.0","null","null","","","","","","","","","","","","","","stimulus","","","2","56","","","","","","","","","",""
"","","","","","","","","","","","canvas-button-response","474","594668","0.0-474.0","945","train","","","","","","","","","","","","","","perceptual","","","2","56","","","","","253","train","6","0","1",""
"","","","","","","","","","","","canvas-button-response","475","595088","0.0-475.0","417","4","","","","","","","","","","","","","","confidence","","","2","56","","","","","","","","","","2"
"","","","","","","","","","","","preload","476","595090","0.0-476.0","","","","","true","","","","","","","","","","","preload","","","2","57","false","[]","[]","[]","","","","","",""
"","","","","","","","","","","","canvas-keyboard-response","477","595394","0.0-477.0","null","null","","","","","","","","","","","","","","fixation","","","2","57","","","","","","","","","",""
"","","","","","","","","","","","canvas-keyboard-response","478","595697","0.0-478.0","null","null","","","","","","","","","","","","","","stimulus","","","2","57","","","","","","","","","",""
"","","","","","","","","","","","canvas-button-response","479","597493","0.0-479.0","1792","car","","","","","","","","","","","","","","perceptual","","","2","57","","","","","327","elephant","6","0","0",""
"","","","","","","","","","","","canvas-button-response","480","598131","0.0-480.0","634","1","","","","","","","","","","","","","","confidence","","","2","57","","","","","","","","","","2"
"","","","","","","","","","","","preload","481","598133","0.0-481.0","","","","","true","","","","","","","","","","","preload","","","2","58","false","[]","[]","[]","","","","","",""
"","","","","","","","","","","","canvas-keyboard-response","482","598437","0.0-482.0","null","null","","","","","","","","","","","","","","fixation","","","2","58","","","","","","","","","",""
"","","","","","","","","","","","canvas-keyboard-response","483","598740","0.0-483.0","null","null","","","","","","","","","","","","","","stimulus","","","2","58","","","","","","","","","",""
"","","","","","","","","","","","canvas-button-response","484","599718","0.0-484.0","974","elephant","","","","","","","","","","","","","","perceptual","","","2","58","","","","","333","elephant","6","0","1",""
"","","","","","","","","","","","canvas-button-response","485","600658","0.0-485.0","936","4","","","","","","","","","","","","","","confidence","","","2","58","","","","","","","","","","3"
"","","","","","","","","","","","preload","486","600660","0.0-486.0","","","","","true","","","","","","","","","","","preload","","","2","59","false","[]","[]","[]","","","","","",""
"","","","","","","","","","","","canvas-keyboard-response","487","600964","0.0-487.0","null","null","","","","","","","","","","","","","","fixation","","","2","59","","","","","","","","","",""
"","","","","","","","","","","","canvas-keyboard-response","488","601267","0.0-488.0","null","null","","","","","","","","","","","","","","stimulus","","","2","59","","","","","","","","","",""
"","","","","","","","","","","","canvas-button-response","489","602120","0.0-489.0","848","cat","","","","","","","","","","","","","","perceptual","","","2","59","","","","","69","car","10","0","0",""
"","","","","","","","","","","","canvas-button-response","490","602843","0.0-490.0","720","1","","","","","","","","","","","","","","confidence","","","2","59","","","","","","","","","","3"
"","","","","","","","","","","","preload","491","602846","0.0-491.0","","","","","true","","","","","","","","","","","preload","","","2","60","false","[]","[]","[]","","","","","",""
