"width","height","webaudio","browser","browser_version","mobile","os","fullscreen","vsync_rate","webcam","microphone","trial_type","trial_index","time_elapsed","internal_node_id","rt","response","accuracy","view_history","success","item_width_mm","item_height_mm","item_width_px","px2mm","view_dist_mm","item_width_deg","px2deg","scale_factor","win_width_deg","win_height_deg","stimulus","datetime","subjectID","curr_triallist","trial_no","timeout","failed_images","failed_audio","failed_video","image_index","category","blur","reps","correct","running_score"
"1710","982","true","chrome","140.0.0","false","Mac OS","true","60.01","true","true","browser-check","0","1010","0.0-0.0","","","","","","","","","","","","","","","","","","","","","","","","","","","","","",""
"","","","","","","","","","","","survey","1","127269","0.0-1.0","126240","{""P0_Q0"":""903876258"",""P0_Q1"":""19"",""P1_Q0"":""Female"",""P1_Q1"":""Not Hispanic or Latino"",""P1_Q2"":""Black or African American"",""P1_Q3"":""Normal"",""P1_Q4"":""Right-Handed""}","[]","","","","","","","","","","","","","","","","","","","","","","","","","","",""
"","","","","","","","","","","","instructions","2","426734","0.0-2.0","299465","","","[{""page_index"":0,""viewing_time"":6728},{""page_index"":1,""viewing_time"":271013},{""page_index"":2,""viewing_time"":14136},{""page_index"":3,""viewing_time"":7588}]","","","","","","","","","","","","","","","","","","","","","","","","","",""
"","","","","","","","","","","","fullscreen","3","430019","0.0-3.0","2282","","","","true","","","","","","","","","","","","","","","","","","","","","","","","",""
"","","","","","","","","","","","virtual-chinrest","4","509285","0.0-4.0","79266","","","","","85.6","53.98","307.24564602692396","3.5885805692077484","477.61","10.241521534230799","30","1.6468907095778964","57","35.666666666666664","","","","","","","","","","","","","","",""
"","","","","","","","","","","","instructions","5","713842","0.0-5.0","204557","","","[{""page_index"":0,""viewing_time"":14423},{""page_index"":1,""viewing_time"":71614},{""page_index"":2,""viewing_time"":1592},{""page_index"":1,""viewing_time"":1798},{""page_index"":2,""viewing_time"":16841},{""page_index"":3,""viewing_time"":3450},{""page_index"":4,""viewing_time"":6214},{""page_index"":5,""viewing_time"":7998},{""page_index"":6,""viewing_time"":80627}]","","","","","","","","","","","","","","","","","","","","","","","","","",""
"","","","","","","","","","","","html-button-response","6","760898","0.0-6.0","47053","0","","","","","","","","","","","","","","start_practice","Tue Oct 07 2025 21:16:46 GMT-0400 (Eastern Daylight Time)","27737","","","","","","","","","","","",""
"","","","","","","","","","","","preload","7","760898","0.0-7.0","","","","","true","","","","","","","","","","","preload","","","0","0","false","[]","[]","[]","","","","","",""
"","","","","","","","","","","","canvas-keyboard-response","8","761201","0.0-8.0","null","null","","","","","","","","","","","","","","fixation","","","0","0","","","","","","","","","",""
"","","","","","","","","","","","canvas-keyboard-response","9","761503","0.0-9.0","null","null","","","","","","","","","","","","","","stimulus","","","0","0","","","","","","","","","",""
"","","","","","","","","","","","canvas-button-response","10","763709","0.0-10.0","2205","knife","","","","","","","","","","","","","","perceptual","","","0","0","","","","","92","knife","1","","1",""
"","","","","","","","","","","","canvas-button-response","11","764998","0.0-11.0","1289","7","","","","","","","","","","","","","","confidence","","","0","0","","","","","","","","","","1"
"","","","","","","","","","","","html-keyboard-response","12","766000","0.0-12.0","null","null","","","","","","","","","","","","","","feedback","Tue Oct 07 2025 21:17:37 GMT-0400 (Eastern Daylight Time)","27737","0","0","","","","","","","","","",""
"","","","","","","","","","","","preload","13","766000","0.0-13.0","","","","","true","","","","","","","","","","","preload","","","0","1","false","[]","[]","[]","","","","","",""
"","","","","","","","","","","","canvas-keyboard-response","14","766302","0.0-14.0","null","null","","","","","","","","","","","","","","fixation","","","0","1","","","","","","","","","",""
"","","","","","","","","","","","canvas-keyboard-response","15","766603","0.0-15.0","null","null","","","","","","","","","","","","","","stimulus","","","0","1","","","","","","","","","",""
"","","","","","","","","","","","canvas-button-response","16","768077","0.0-16.0","1473","train","","","","","","","","","","","","","","perceptual","","","0","1","","","","","62","train","1","","1",""
"","","","","","","","","","","","canvas-button-response","17","768835","0.0-17.0","758","10","","","","","","","","","","","","","","confidence","","","0","1","","","","","","","","","","2"
"","","","","","","","","","","","html-keyboard-response","18","769837","0.0-18.0","null","null","","","","","","","","","","","","","","feedback","Tue Oct 07 2025 21:17:41 GMT-0400 (Eastern Daylight Time)","27737","0","1","","","","","","","","","",""
"","","","","","","","","","","","preload","19","769837","0.0-19.0","","","","","true","","","","","","","","","","","preload","","","0","2","false","[]","[]","[]","","","","","",""
"","","","","","","","","","","","canvas-keyboard-response","20","770139","0.0-20.0","null","null","","","","","","","","","","","","","","fixation","","","0","2","","","","","","","","","",""
"","","","","","","","","","","","canvas-keyboard-response","21","770441","0.0-21.0","null","null","","","","","","","","","","","","","","stimulus","","","0","2","","","","","","","","","",""
"","","","","","","","","","","","canvas-button-response","22","771736","0.0-22.0","1295","house","","","","","","","","","","","","","","perceptual","","","0","2","","","","","2","house","1","","1",""
"","","","","","","","","","","","canvas-button-response","23","772639","0.0-23.0","902","10","","","","","","","","","","","","","","confidence","","","0","2","","","","","","","","","","3"
"","","","","","","","","","","","html-keyboard-response","24","773641","0.0-24.0","null","null","","","","","","","","","","","","","","feedback","Tue Oct 07 2025 21:17:44 GMT-0400 (Eastern Daylight Time)","27737","0","2","","","","","","","","","",""
"","","","","","","","","","","","preload","25","773641","0.0-25.0","","","","","true","","","","","","","","","","","preload","","","0","3","false","[]","[]","[]","","","","","",""
"","","","","","","","","","","","canvas-keyboard-response","26","773943","0.0-26.0","null","null","","","","","","","","","","","","","","fixation","","","0","3","","","","","","","","","",""
"","","","","","","","","","","","canvas-keyboard-response","27","774245","0.0-27.0","null","null","","","","","","","","","","","","","","stimulus","","","0","3","","","","","","","","","",""
"","","","","","","","","","","","canvas-button-response","28","775114","0.0-28.0","868","bridge","","","","","","","","","","","","","","perceptual","","","0","3","","","","","42","bridge","1","","1",""
"","","","","","","","","","","","canvas-button-response","29","775976","0.0-29.0","862","10","","","","","","","","","","","","","","confidence","","","0","3","","","","","","","","","","4"
"","","","","","","","","","","","html-keyboard-response","30","776978","0.0-30.0","null","null","","","","","","","","","","","","","","feedback","Tue Oct 07 2025 21:17:48 GMT-0400 (Eastern Daylight Time)","27737","0","3","","","","","","","","","",""
"","","","","","","","","","","","preload","31","776978","0.0-31.0","","","","","true","","","","","","","","","","","preload","","","0","4","false","[]","[]","[]","","","","","",""
"","","","","","","","","","","","canvas-keyboard-response","32","777280","0.0-32.0","null","null","","","","","","","","","","","","","","fixation","","","0","4","","","","","","","","","",""
"","","","","","","","","","","","canvas-keyboard-response","33","777582","0.0-33.0","null","null","","","","","","","","","","","","","","stimulus","","","0","4","","","","","","","","","",""
"","","","","","","","","","","","canvas-button-response","34","778756","0.0-34.0","1174","bed","","","","","","","","","","","","","","perceptual","","","0","4","","","","","32","bed","1","","1",""
"","","","","","","","","","","","canvas-button-response","35","779820","0.0-35.0","1064","10","","","","","","","","","","","","","","confidence","","","0","4","","","","","","","","","","5"
"","","","","","","","","","","","html-keyboard-response","36","780822","0.0-36.0","null","null","","","","","","","","","","","","","","feedback","Tue Oct 07 2025 21:17:52 GMT-0400 (Eastern Daylight Time)","27737","0","4","","","","","","","","","",""
"","","","","","","","","","","","preload","37","780823","0.0-37.0","","","","","true","","","","","","","","","","","preload","","","0","5","false","[]","[]","[]","","","","","",""
"","","","","","","","","","","","canvas-keyboard-response","38","781124","0.0-38.0","null","null","","","","","","","","","","","","","","fixation","","","0","5","","","","","","","","","",""
"","","","","","","","","","","","canvas-keyboard-response","39","781426","0.0-39.0","null","null","","","","","","","","","","","","","","stimulus","","","0","5","","","","","","","","","",""
"","","","","","","","","","","","canvas-button-response","40","785334","0.0-40.0","3908","house","","","","","","","","","","","","","","perceptual","","","0","5","","","","","52","flower","1","","0",""
"","","","","","","","","","","","canvas-button-response","41","786075","0.0-41.0","741","3","","","","","","","","","","","","","","confidence","","","0","5","","","","","","","","","","5"
"","","","","","","","","","","","html-keyboard-response","42","787077","0.0-42.0","null","null","","","","","","","","","","","","","","feedback","Tue Oct 07 2025 21:17:58 GMT-0400 (Eastern Daylight Time)","27737","0","5","","","","","","","","","",""
"","","","","","","","","","","","preload","43","787077","0.0-43.0","","","","","true","","","","","","","","","","","preload","","","0","6","false","[]","[]","[]","","","","","",""
"","","","","","","","","","","","canvas-keyboard-response","44","787378","0.0-44.0","null","null","","","","","","","","","","","","","","fixation","","","0","6","","","","","","","","","",""
"","","","","","","","","","","","canvas-keyboard-response","45","787679","0.0-45.0","null","null","","","","","","","","","","","","","","stimulus","","","0","6","","","","","","","","","",""
"","","","","","","","","","","","canvas-button-response","46","796490","0.0-46.0","8810","cat","","","","","","","","","","","","","","perceptual","","","0","6","","","","","82","elephant","1","","0",""
"","","","","","","","","","","","canvas-button-response","47","798223","0.0-47.0","1732","3","","","","","","","","","","","","","","confidence","","","0","6","","","","","","","","","","5"
"","","","","","","","","","","","html-keyboard-response","48","799224","0.0-48.0","null","null","","","","","","","","","","","","","","feedback","Tue Oct 07 2025 21:18:10 GMT-0400 (Eastern Daylight Time)","27737","0","6","","","","","","","","","",""
"","","","","","","","","","","","preload","49","799224","0.0-49.0","","","","","true","","","","","","","","","","","preload","","","0","7","false","[]","[]","[]","","","","","",""
"","","","","","","","","","","","canvas-keyboard-response","50","799525","0.0-50.0","null","null","","","","","","","","","","","","","","fixation","","","0","7","","","","","","","","","",""
"","","","","","","","","","","","canvas-keyboard-response","51","799826","0.0-51.0","null","null","","","","","","","","","","","","","","stimulus","","","0","7","","","","","","","","","",""
"","","","","","","","","","","","canvas-button-response","52","800608","0.0-52.0","781","cat","","","","","","","","","","","","","","perceptual","","","0","7","","","","","72","cat","1","","1",""
"","","","","","","","","","","","canvas-button-response","53","801326","0.0-53.0","717","10","","","","","","","","","","","","","","confidence","","","0","7","","","","","","","","","","6"
"","","","","","","","","","","","html-keyboard-response","54","802327","0.0-54.0","null","null","","","","","","","","","","","","","","feedback","Tue Oct 07 2025 21:18:13 GMT-0400 (Eastern Daylight Time)","27737","0","7","","","","","","","","","",""
"","","","","","","","","","","","preload","55","802328","0.0-55.0","","","","","true","","","","","","","","","","","preload","","","0","8","false","[]","[]","[]","","","","","",""
"","","","","","","","","","","","canvas-keyboard-response","56","802630","0.0-56.0","null","null","","","","","","","","","","","","","","fixation","","","0","8","","","","","","","","","",""
"","","","","","","","","","","","canvas-keyboard-response","57","802932","0.0-57.0","null","null","","","","","","","","","","","","","","stimulus","","","0","8","","","","","","","","","",""
"","","","","","","","","","","","canvas-button-response","58","803736","0.0-58.0","803","car","","","","","","","","","","","","","","perceptual","","","0","8","","","","","12","car","1","","1",""
"","","","","","","","","","","","canvas-button-response","59","804429","0.0-59.0","693","10","","","","","","","","","","","","","","confidence","","","0","8","","","","","","","","","","7"
"","","","","","","","","","","","html-keyboard-response","60","805431","0.0-60.0","null","null","","","","","","","","","","","","","","feedback","Tue Oct 07 2025 21:18:16 GMT-0400 (Eastern Daylight Time)","27737","0","8","","","","","","","","","",""
"","","","","","","","","","","","preload","61","805432","0.0-61.0","","","","","true","","","","","","","","","","","preload","","","0","9","false","[]","[]","[]","","","","","",""
"","","","","","","","","","","","canvas-keyboard-response","62","805734","0.0-62.0","null","null","","","","","","","","","","","","","","fixation","","","0","9","","","","","","","","","",""
"","","","","","","","","","","","canvas-keyboard-response","63","806036","0.0-63.0","null","null","","","","","","","","","","","","","","stimulus","","","0","9","","","","","","","","","",""
"","","","","","","","","","","","canvas-button-response","64","806830","0.0-64.0","794","phone","","","","","","","","","","","","","","perceptual","","","0","9","","","","","22","phone","1","","1",""
"","","","","","","","","","","","canvas-button-response","65","807580","0.0-65.0","749","10","","","","","","","","","","","","","","confidence","","","0","9","","","","","","","","","","8"
"","","","","","","","","","","","html-keyboard-response","66","808582","0.0-66.0","null","null","","","","","","","","","","","","","","feedback","Tue Oct 07 2025 21:18:19 GMT-0400 (Eastern Daylight Time)","27737","0","9","","","","","","","","","",""
"","","","","","","","","","","","html-button-response","67","830787","0.0-67.0","22204","0","","","","","","","","","","","","","","start_practice","Tue Oct 07 2025 21:18:20 GMT-0400 (Eastern Daylight Time)","27737","0","9","","","","","","","","","",""
"","","","","","","","","","","","preload","68","830788","0.0-68.0","","","","","true","","","","","","","","","","","preload","","","1","0","false","[]","[]","[]","","","","","",""
"","","","","","","","","","","","canvas-keyboard-response","69","831089","0.0-69.0","null","null","","","","","","","","","","","","","","fixation","","","1","0","","","","","","","","","",""
"","","","","","","","","","","","canvas-keyboard-response","70","831391","0.0-70.0","null","null","","","","","","","","","","","","","","stimulus","","","1","0","","","","","","","","","",""
"","","","","","","","","","","","canvas-button-response","71","833060","0.0-71.0","1667","flower","","","","","","","","","","","","","","perceptual","","","1","0","","","","","54","flower","6","","1",""
"","","","","","","","","","","","canvas-button-response","72","833882","0.0-72.0","822","7","","","","","","","","","","","","","","confidence","","","1","0","","","","","","","","","","1"
"","","","","","","","","","","","html-keyboard-response","73","834883","0.0-73.0","null","null","","","","","","","","","","","","","","feedback","Tue Oct 07 2025 21:18:46 GMT-0400 (Eastern Daylight Time)","27737","1","0","","","","","","","","","",""
"","","","","","","","","","","","preload","74","834884","0.0-74.0","","","","","true","","","","","","","","","","","preload","","","1","1","false","[]","[]","[]","","","","","",""
"","","","","","","","","","","","canvas-keyboard-response","75","835186","0.0-75.0","null","null","","","","","","","","","","","","","","fixation","","","1","1","","","","","","","","","",""
"","","","","","","","","","","","canvas-keyboard-response","76","835488","0.0-76.0","null","null","","","","","","","","","","","","","","stimulus","","","1","1","","","","","","","","","",""
"","","","","","","","","","","","canvas-button-response","77","838194","0.0-77.0","2705","bed","","","","","","","","","","","","","","perceptual","","","1","1","","","","","37","bed","10","","1",""
"","","","","","","","","","","","canvas-button-response","78","839443","0.0-78.0","1249","1","","","","","","","","","","","","","","confidence","","","1","1","","","","","","","","","","2"
"","","","","","","","","","","","html-keyboard-response","79","840444","0.0-79.0","null","null","","","","","","","","","","","","","","feedback","Tue Oct 07 2025 21:18:51 GMT-0400 (Eastern Daylight Time)","27737","1","1","","","","","","","","","",""
"","","","","","","","","","","","preload","80","840445","0.0-80.0","","","","","true","","","","","","","","","","","preload","","","1","2","false","[]","[]","[]","","","","","",""
"","","","","","","","","","","","canvas-keyboard-response","81","840746","0.0-81.0","null","null","","","","","","","","","","","","","","fixation","","","1","2","","","","","","","","","",""
"","","","","","","","","","","","canvas-keyboard-response","82","841048","0.0-82.0","null","null","","","","","","","","","","","","","","stimulus","","","1","2","","","","","","","","","",""
"","","","","","","","","","","","canvas-button-response","83","842844","0.0-83.0","1796","phone","","","","","","","","","","","","","","perceptual","","","1","2","","","","","47","bridge","10","","0",""
"","","","","","","","","","","","canvas-button-response","84","843908","0.0-84.0","1064","4","","","","","","","","","","","","","","confidence","","","1","2","","","","","","","","","","2"
"","","","","","","","","","","","html-keyboard-response","85","844911","0.0-85.0","null","null","","","","","","","","","","","","","","feedback","Tue Oct 07 2025 21:18:56 GMT-0400 (Eastern Daylight Time)","27737","1","2","","","","","","","","","",""
"","","","","","","","","","","","preload","86","844911","0.0-86.0","","","","","true","","","","","","","","","","","preload","","","1","3","false","[]","[]","[]","","","","","",""
"","","","","","","","","","","","canvas-keyboard-response","87","845213","0.0-87.0","null","null","","","","","","","","","","","","","","fixation","","","1","3","","","","","","","","","",""
"","","","","","","","","","","","canvas-keyboard-response","88","845515","0.0-88.0","null","null","","","","","","","","","","","","","","stimulus","","","1","3","","","","","","","","","",""
"","","","","","","","","","","","canvas-button-response","89","846471","0.0-89.0","956","train","","","","","","","","","","","","","","perceptual","","","1","3","","","","","64","train","6","","1",""
"","","","","","","","","","","","canvas-button-response","90","847148","0.0-90.0","677","10","","","","","","","","","","","","","","confidence","","","1","3","","","","","","","","","","3"
"","","","","","","","","","","","html-keyboard-response","91","848150","0.0-91.0","null","null","","","","","","","","","","","","","","feedback","Tue Oct 07 2025 21:18:59 GMT-0400 (Eastern Daylight Time)","27737","1","3","","","","","","","","","",""
"","","","","","","","","","","","preload","92","848150","0.0-92.0","","","","","true","","","","","","","","","","","preload","","","1","4","false","[]","[]","[]","","","","","",""
"","","","","","","","","","","","canvas-keyboard-response","93","848452","0.0-93.0","null","null","","","","","","","","","","","","","","fixation","","","1","4","","","","","","","","","",""
"","","","","","","","","","","","canvas-keyboard-response","94","848753","0.0-94.0","null","null","","","","","","","","","","","","","","stimulus","","","1","4","","","","","","","","","",""
"","","","","","","","","","","","canvas-button-response","95","853214","0.0-95.0","4460","car","","","","","","","","","","","","","","perceptual","","","1","4","","","","","14","car","6","","1",""
"","","","","","","","","","","","canvas-button-response","96","854076","0.0-96.0","862","2","","","","","","","","","","","","","","confidence","","","1","4","","","","","","","","","","4"
"","","","","","","","","","","","html-keyboard-response","97","855078","0.0-97.0","null","null","","","","","","","","","","","","","","feedback","Tue Oct 07 2025 21:19:06 GMT-0400 (Eastern Daylight Time)","27737","1","4","","","","","","","","","",""
"","","","","","","","","","","","preload","98","855078","0.0-98.0","","","","","true","","","","","","","","","","","preload","","","1","5","false","[]","[]","[]","","","","","",""
"","","","","","","","","","","","canvas-keyboard-response","99","855380","0.0-99.0","null","null","","","","","","","","","","","","","","fixation","","","1","5","","","","","","","","","",""
"","","","","","","","","","","","canvas-keyboard-response","100","855682","0.0-100.0","null","null","","","","","","","","","","","","","","stimulus","","","1","5","","","","","","","","","",""
"","","","","","","","","","","","canvas-button-response","101","859315","0.0-101.0","3632","house","","","","","","","","","","","","","","perceptual","","","1","5","","","","","44","bridge","6","","0",""
"","","","","","","","","","","","canvas-button-response","102","860298","0.0-102.0","983","2","","","","","","","","","","","","","","confidence","","","1","5","","","","","","","","","","4"
"","","","","","","","","","","","html-keyboard-response","103","861300","0.0-103.0","null","null","","","","","","","","","","","","","","feedback","Tue Oct 07 2025 21:19:12 GMT-0400 (Eastern Daylight Time)","27737","1","5","","","","","","","","","",""
"","","","","","","","","","","","preload","104","861300","0.0-104.0","","","","","true","","","","","","","","","","","preload","","","1","6","false","[]","[]","[]","","","","","",""
"","","","","","","","","","","","canvas-keyboard-response","105","861602","0.0-105.0","null","null","","","","","","","","","","","","","","fixation","","","1","6","","","","","","","","","",""
"","","","","","","","","","","","canvas-keyboard-response","106","861904","0.0-106.0","null","null","","","","","","","","","","","","","","stimulus","","","1","6","","","","","","","","","",""
"","","","","","","","","","","","canvas-button-response","107","863752","0.0-107.0","1848","bridge","","","","","","","","","","","","","","perceptual","","","1","6","","","","","87","elephant","10","","0",""
"","","","","","","","","","","","canvas-button-response","108","864550","0.0-108.0","798","2","","","","","","","","","","","","","","confidence","","","1","6","","","","","","","","","","4"
"","","","","","","","","","","","html-keyboard-response","109","865552","0.0-109.0","null","null","","","","","","","","","","","","","","feedback","Tue Oct 07 2025 21:19:16 GMT-0400 (Eastern Daylight Time)","27737","1","6","","","","","","","","","",""
"","","","","","","","","","","","preload","110","865553","0.0-110.0","","","","","true","","","","","","","","","","","preload","","","1","7","false","[]","[]","[]","","","","","",""
"","","","","","","","","","","","canvas-keyboard-response","111","865855","0.0-111.0","null","null","","","","","","","","","","","","","","fixation","","","1","7","","","","","","","","","",""
"","","","","","","","","","","","canvas-keyboard-response","112","866157","0.0-112.0","null","null","","","","","","","","","","","","","","stimulus","","","1","7","","","","","","","","","",""
"","","","","","","","","","","","canvas-button-response","113","867178","0.0-113.0","1021","phone","","","","","","","","","","","","","","perceptual","","","1","7","","","","","24","phone","6","","1",""
"","","","","","","","","","","","canvas-button-response","114","867936","0.0-114.0","757","8","","","","","","","","","","","","","","confidence","","","1","7","","","","","","","","","","5"
"","","","","","","","","","","","html-keyboard-response","115","868938","0.0-115.0","null","null","","","","","","","","","","","","","","feedback","Tue Oct 07 2025 21:19:20 GMT-0400 (Eastern Daylight Time)","27737","1","7","","","","","","","","","",""
"","","","","","","","","","","","preload","116","868938","0.0-116.0","","","","","true","","","","","","","","","","","preload","","","1","8","false","[]","[]","[]","","","","","",""
"","","","","","","","","","","","canvas-keyboard-response","117","869241","0.0-117.0","null","null","","","","","","","","","","","","","","fixation","","","1","8","","","","","","","","","",""
"","","","","","","","","","","","canvas-keyboard-response","118","869542","0.0-118.0","null","null","","","","","","","","","","","","","","stimulus","","","1","8","","","","","","","","","",""
"","","","","","","","","","","","canvas-button-response","119","870780","0.0-119.0","1238","elephant","","","","","","","","","","","","","","perceptual","","","1","8","","","","","84","elephant","6","","1",""
"","","","","","","","","","","","canvas-button-response","120","871482","0.0-120.0","701","10","","","","","","","","","","","","","","confidence","","","1","8","","","","","","","","","","6"
"","","","","","","","","","","","html-keyboard-response","121","872483","0.0-121.0","null","null","","","","","","","","","","","","","","feedback","Tue Oct 07 2025 21:19:23 GMT-0400 (Eastern Daylight Time)","27737","1","8","","","","","","","","","",""
"","","","","","","","","","","","preload","122","872484","0.0-122.0","","","","","true","","","","","","","","","","","preload","","","1","9","false","[]","[]","[]","","","","","",""
"","","","","","","","","","","","canvas-keyboard-response","123","872785","0.0-123.0","null","null","","","","","","","","","","","","","","fixation","","","1","9","","","","","","","","","",""
"","","","","","","","","","","","canvas-keyboard-response","124","873087","0.0-124.0","null","null","","","","","","","","","","","","","","stimulus","","","1","9","","","","","","","","","",""
"","","","","","","","","","","","canvas-button-response","125","877148","0.0-125.0","4061","bed","","","","","","","","","","","","","","perceptual","","","1","9","","","","","94","knife","6","","0",""
"","","","","","","","","","","","canvas-button-response","126","878011","0.0-126.0","862","2","","","","","","","","","","","","","","confidence","","","1","9","","","","","","","","","","6"
"","","","","","","","","","","","html-keyboard-response","127","879012","0.0-127.0","null","null","","","","","","","","","","","","","","feedback","Tue Oct 07 2025 21:19:30 GMT-0400 (Eastern Daylight Time)","27737","1","9","","","","","","","","","",""
"","","","","","","","","","","","preload","128","879013","0.0-128.0","","","","","true","","","","","","","","","","","preload","","","1","10","false","[]","[]","[]","","","","","",""
"","","","","","","","","","","","canvas-keyboard-response","129","879315","0.0-129.0","null","null","","","","","","","","","","","","","","fixation","","","1","10","","","","","","","","","",""
"","","","","","","","","","","","canvas-keyboard-response","130","879617","0.0-130.0","null","null","","","","","","","","","","","","","","stimulus","","","1","10","","","","","","","","","",""
"","","","","","","","","","","","canvas-button-response","131","880710","0.0-131.0","1093","house","","","","","","","","","","","","","","perceptual","","","1","10","","","","","4","house","6","","1",""
"","","","","","","","","","","","canvas-button-response","132","882476","0.0-132.0","1765","5","","","","","","","","","","","","","","confidence","","","1","10","","","","","","","","","","7"
"","","","","","","","","","","","html-keyboard-response","133","883478","0.0-133.0","null","null","","","","","","","","","","","","","","feedback","Tue Oct 07 2025 21:19:34 GMT-0400 (Eastern Daylight Time)","27737","1","10","","","","","","","","","",""
"","","","","","","","","","","","preload","134","883478","0.0-134.0","","","","","true","","","","","","","","","","","preload","","","1","11","false","[]","[]","[]","","","","","",""
"","","","","","","","","","","","canvas-keyboard-response","135","883780","0.0-135.0","null","null","","","","","","","","","","","","","","fixation","","","1","11","","","","","","","","","",""
"","","","","","","","","","","","canvas-keyboard-response","136","884082","0.0-136.0","null","null","","","","","","","","","","","","","","stimulus","","","1","11","","","","","","","","","",""
"","","","","","","","","","","","canvas-button-response","137","887762","0.0-137.0","3679","bridge","","","","","","","","","","","","","","perceptual","","","1","11","","","","","17","car","10","","0",""
"","","","","","","","","","","","canvas-button-response","138","888681","0.0-138.0","918","3","","","","","","","","","","","","","","confidence","","","1","11","","","","","","","","","","7"
"","","","","","","","","","","","html-keyboard-response","139","889683","0.0-139.0","null","null","","","","","","","","","","","","","","feedback","Tue Oct 07 2025 21:19:40 GMT-0400 (Eastern Daylight Time)","27737","1","11","","","","","","","","","",""
"","","","","","","","","","","","preload","140","889683","0.0-140.0","","","","","true","","","","","","","","","","","preload","","","1","12","false","[]","[]","[]","","","","","",""
"","","","","","","","","","","","canvas-keyboard-response","141","889985","0.0-141.0","null","null","","","","","","","","","","","","","","fixation","","","1","12","","","","","","","","","",""
"","","","","","","","","","","","canvas-keyboard-response","142","890287","0.0-142.0","null","null","","","","","","","","","","","","","","stimulus","","","1","12","","","","","","","","","",""
"","","","","","","","","","","","canvas-button-response","143","894645","0.0-143.0","4358","house","","","","","","","","","","","","","","perceptual","","","1","12","","","","","77","cat","10","","0",""
"","","","","","","","","","","","canvas-button-response","144","895378","0.0-144.0","733","2","","","","","","","","","","","","","","confidence","","","1","12","","","","","","","","","","7"
"","","","","","","","","","","","html-keyboard-response","145","896380","0.0-145.0","null","null","","","","","","","","","","","","","","feedback","Tue Oct 07 2025 21:19:47 GMT-0400 (Eastern Daylight Time)","27737","1","12","","","","","","","","","",""
"","","","","","","","","","","","preload","146","896380","0.0-146.0","","","","","true","","","","","","","","","","","preload","","","1","13","false","[]","[]","[]","","","","","",""
"","","","","","","","","","","","canvas-keyboard-response","147","896681","0.0-147.0","null","null","","","","","","","","","","","","","","fixation","","","1","13","","","","","","","","","",""
"","","","","","","","","","","","canvas-keyboard-response","148","896983","0.0-148.0","null","null","","","","","","","","","","","","","","stimulus","","","1","13","","","","","","","","","",""
"","","","","","","","","","","","canvas-button-response","149","898103","0.0-149.0","1119","flower","","","","","","","","","","","","","","perceptual","","","1","13","","","","","57","flower","10","","1",""
"","","","","","","","","","","","canvas-button-response","150","898981","0.0-150.0","878","8","","","","","","","","","","","","","","confidence","","","1","13","","","","","","","","","","8"
"","","","","","","","","","","","html-keyboard-response","151","899982","0.0-151.0","null","null","","","","","","","","","","","","","","feedback","Tue Oct 07 2025 21:19:51 GMT-0400 (Eastern Daylight Time)","27737","1","13","","","","","","","","","",""
"","","","","","","","","","","","preload","152","899982","0.0-152.0","","","","","true","","","","","","","","","","","preload","","","1","14","false","[]","[]","[]","","","","","",""
"","","","","","","","","","","","canvas-keyboard-response","153","900284","0.0-153.0","null","null","","","","","","","","","","","","","","fixation","","","1","14","","","","","","","","","",""
"","","","","","","","","","","","canvas-keyboard-response","154","900586","0.0-154.0","null","null","","","","","","","","","","","","","","stimulus","","","1","14","","","","","","","","","",""
"","","","","","","","","","","","canvas-button-response","155","901866","0.0-155.0","1280","cat","","","","","","","","","","","","","","perceptual","","","1","14","","","","","74","cat","6","","1",""
"","","","","","","","","","","","canvas-button-response","156","902600","0.0-156.0","733","7","","","","","","","","","","","","","","confidence","","","1","14","","","","","","","","","","9"
"","","","","","","","","","","","html-keyboard-response","157","903601","0.0-157.0","null","null","","","","","","","","","","","","","","feedback","Tue Oct 07 2025 21:19:54 GMT-0400 (Eastern Daylight Time)","27737","1","14","","","","","","","","","",""
"","","","","","","","","","","","preload","158","903602","0.0-158.0","","","","","true","","","","","","","","","","","preload","","","1","15","false","[]","[]","[]","","","","","",""
"","","","","","","","","","","","canvas-keyboard-response","159","903903","0.0-159.0","null","null","","","","","","","","","","","","","","fixation","","","1","15","","","","","","","","","",""
"","","","","","","","","","","","canvas-keyboard-response","160","904204","0.0-160.0","null","null","","","","","","","","","","","","","","stimulus","","","1","15","","","","","","","","","",""
"","","","","","","","","","","","canvas-button-response","161","905243","0.0-161.0","1038","train","","","","","","","","","","","","","","perceptual","","","1","15","","","","","67","train","10","","1",""
"","","","","","","","","","","","canvas-button-response","162","905686","0.0-162.0","443","9","","","","","","","","","","","","","","confidence","","","1","15","","","","","","","","","","10"
"","","","","","","","","","","","html-keyboard-response","163","906688","0.0-163.0","null","null","","","","","","","","","","","","","","feedback","Tue Oct 07 2025 21:19:57 GMT-0400 (Eastern Daylight Time)","27737","1","15","","","","","","","","","",""
"","","","","","","","","","","","preload","164","906689","0.0-164.0","","","","","true","","","","","","","","","","","preload","","","1","16","false","[]","[]","[]","","","","","",""
"","","","","","","","","","","","canvas-keyboard-response","165","906990","0.0-165.0","null","null","","","","","","","","","","","","","","fixation","","","1","16","","","","","","","","","",""
"","","","","","","","","","","","canvas-keyboard-response","166","907292","0.0-166.0","null","null","","","","","","","","","","","","","","stimulus","","","1","16","","","","","","","","","",""
"","","","","","","","","","","","canvas-button-response","167","908772","0.0-167.0","1480","bed","","","","","","","","","","","","","","perceptual","","","1","16","","","","","34","bed","6","","1",""
"","","","","","","","","","","","canvas-button-response","168","909595","0.0-168.0","822","10","","","","","","","","","","","","","","confidence","","","1","16","","","","","","","","","","11"
"","","","","","","","","","","","html-keyboard-response","169","910596","0.0-169.0","null","null","","","","","","","","","","","","","","feedback","Tue Oct 07 2025 21:20:01 GMT-0400 (Eastern Daylight Time)","27737","1","16","","","","","","","","","",""
"","","","","","","","","","","","preload","170","910597","0.0-170.0","","","","","true","","","","","","","","","","","preload","","","1","17","false","[]","[]","[]","","","","","",""
"","","","","","","","","","","","canvas-keyboard-response","171","910898","0.0-171.0","null","null","","","","","","","","","","","","","","fixation","","","1","17","","","","","","","","","",""
"","","","","","","","","","","","canvas-keyboard-response","172","911200","0.0-172.0","null","null","","","","","","","","","","","","","","stimulus","","","1","17","","","","","","","","","",""
"","","","","","","","","","","","canvas-button-response","173","911956","0.0-173.0","755","knife","","","","","","","","","","","","","","perceptual","","","1","17","","","","","97","knife","10","","1",""
"","","","","","","","","","","","canvas-button-response","174","912794","0.0-174.0","838","10","","","","","","","","","","","","","","confidence","","","1","17","","","","","","","","","","12"
"","","","","","","","","","","","html-keyboard-response","175","913796","0.0-175.0","null","null","","","","","","","","","","","","","","feedback","Tue Oct 07 2025 21:20:04 GMT-0400 (Eastern Daylight Time)","27737","1","17","","","","","","","","","",""
"","","","","","","","","","","","preload","176","913796","0.0-176.0","","","","","true","","","","","","","","","","","preload","","","1","18","false","[]","[]","[]","","","","","",""
"","","","","","","","","","","","canvas-keyboard-response","177","914098","0.0-177.0","null","null","","","","","","","","","","","","","","fixation","","","1","18","","","","","","","","","",""
"","","","","","","","","","","","canvas-keyboard-response","178","914400","0.0-178.0","null","null","","","","","","","","","","","","","","stimulus","","","1","18","","","","","","","","","",""
"","","","","","","","","","","","canvas-button-response","179","915696","0.0-179.0","1295","house","","","","","","","","","","","","","","perceptual","","","1","18","","","","","7","house","10","","1",""
"","","","","","","","","","","","canvas-button-response","180","917170","0.0-180.0","1473","7","","","","","","","","","","","","","","confidence","","","1","18","","","","","","","","","","13"
"","","","","","","","","","","","html-keyboard-response","181","918171","0.0-181.0","null","null","","","","","","","","","","","","","","feedback","Tue Oct 07 2025 21:20:09 GMT-0400 (Eastern Daylight Time)","27737","1","18","","","","","","","","","",""
"","","","","","","","","","","","preload","182","918171","0.0-182.0","","","","","true","","","","","","","","","","","preload","","","1","19","false","[]","[]","[]","","","","","",""
"","","","","","","","","","","","canvas-keyboard-response","183","918473","0.0-183.0","null","null","","","","","","","","","","","","","","fixation","","","1","19","","","","","","","","","",""
"","","","","","","","","","","","canvas-keyboard-response","184","918774","0.0-184.0","null","null","","","","","","","","","","","","","","stimulus","","","1","19","","","","","","","","","",""
"","","","","","","","","","","","canvas-button-response","185","920095","0.0-185.0","1321","knife","","","","","","","","","","","","","","perceptual","","","1","19","","","","","27","phone","10","","0",""
"","","","","","","","","","","","canvas-button-response","186","920699","0.0-186.0","603","6","","","","","","","","","","","","","","confidence","","","1","19","","","","","","","","","","13"
"","","","","","","","","","","","html-keyboard-response","187","921700","0.0-187.0","null","null","","","","","","","","","","","","","","feedback","Tue Oct 07 2025 21:20:12 GMT-0400 (Eastern Daylight Time)","27737","1","19","","","","","","","","","",""
"","","","","","","","","","","","html-button-response","188","961870","0.0-188.0","40168","0","","","","","","","","","","","","","","start experiment","Tue Oct 07 2025 21:20:13 GMT-0400 (Eastern Daylight Time)","27737","1","19","","","","","","","","","",""
"","","","","","","","","","","","preload","189","961870","0.0-189.0","","","","","true","","","","","","","","","","","preload","","","2","0","false","[]","[]","[]","","","","","",""
"","","","","","","","","","","","canvas-keyboard-response","190","962172","0.0-190.0","null","null","","","","","","","","","","","","","","fixation","","","2","0","","","","","","","","","",""
"","","","","","","","","","","","canvas-keyboard-response","191","962473","0.0-191.0","null","null","","","","","","","","","","","","","","stimulus","","","2","0","","","","","","","","","",""
"","","","","","","","","","","","canvas-button-response","192","969722","0.0-192.0","7249","car","","","","","","","","","","","","","","perceptual","","","2","0","","","","","28","house","10","0","0",""
"","","","","","","","","","","","canvas-button-response","193","971455","0.0-193.0","1733","2","","","","","","","","","","","","","","confidence","","","2","0","","","","","","","","","","0"
"","","","","","","","","","","","preload","194","971455","0.0-194.0","","","","","true","","","","","","","","","","","preload","","","2","1","false","[]","[]","[]","","","","","",""
"","","","","","","","","","","","canvas-keyboard-response","195","971757","0.0-195.0","null","null","","","","","","","","","","","","","","fixation","","","2","1","","","","","","","","","",""
"","","","","","","","","","","","canvas-keyboard-response","196","972059","0.0-196.0","null","null","","","","","","","","","","","","","","stimulus","","","2","1","","","","","","","","","",""
"","","","","","","","","","","","canvas-button-response","197","985434","0.0-197.0","13375","car","","","","","","","","","","","","","","perceptual","","","2","1","","","","","277","train","10","0","0",""
"","","","","","","","","","","","canvas-button-response","198","986071","0.0-198.0","636","3","","","","","","","","","","","","","","confidence","","","2","1","","","","","","","","","","0"
"","","","","","","","","","","","preload","199","986071","0.0-199.0","","","","","true","","","","","","","","","","","preload","","","2","2","false","[]","[]","[]","","","","","",""
"","","","","","","","","","","","canvas-keyboard-response","200","986373","0.0-200.0","null","null","","","","","","","","","","","","","","fixation","","","2","2","","","","","","","","","",""
"","","","","","","","","","","","canvas-keyboard-response","201","986674","0.0-201.0","null","null","","","","","","","","","","","","","","stimulus","","","2","2","","","","","","","","","",""
"","","","","","","","","","","","canvas-button-response","202","988368","0.0-202.0","1694","house","","","","","","","","","","","","","","perceptual","","","2","2","","","","","171","bridge","6","0","0",""
"","","","","","","","","","","","canvas-button-response","203","989469","0.0-203.0","1100","6","","","","","","","","","","","","","","confidence","","","2","2","","","","","","","","","","0"
"","","","","","","","","","","","preload","204","989469","0.0-204.0","","","","","true","","","","","","","","","","","preload","","","2","3","false","[]","[]","[]","","","","","",""
"","","","","","","","","","","","canvas-keyboard-response","205","989769","0.0-205.0","null","null","","","","","","","","","","","","","","fixation","","","2","3","","","","","","","","","",""
"","","","","","","","","","","","canvas-keyboard-response","206","990070","0.0-206.0","null","null","","","","","","","","","","","","","","stimulus","","","2","3","","","","","","","","","",""
"","","","","","","","","","","","canvas-button-response","207","992004","0.0-207.0","1933","bridge","","","","","","","","","","","","","","perceptual","","","2","3","","","","","160","bridge","6","0","1",""
"","","","","","","","","","","","canvas-button-response","208","992883","0.0-208.0","879","8","","","","","","","","","","","","","","confidence","","","2","3","","","","","","","","","","1"
"","","","","","","","","","","","preload","209","992883","0.0-209.0","","","","","true","","","","","","","","","","","preload","","","2","4","false","[]","[]","[]","","","","","",""
"","","","","","","","","","","","canvas-keyboard-response","210","993185","0.0-210.0","null","null","","","","","","","","","","","","","","fixation","","","2","4","","","","","","","","","",""
"","","","","","","","","","","","canvas-keyboard-response","211","993486","0.0-211.0","null","null","","","","","","","","","","","","","","stimulus","","","2","4","","","","","","","","","",""
"","","","","","","","","","","","canvas-button-response","212","996656","0.0-212.0","3170","car","","","","","","","","","","","","","","perceptual","","","2","4","","","","","397","knife","10","0","0",""
"","","","","","","","","","","","canvas-button-response","213","997075","0.0-213.0","419","5","","","","","","","","","","","","","","confidence","","","2","4","","","","","","","","","","1"
"","","","","","","","","","","","preload","214","997075","0.0-214.0","","","","","true","","","","","","","","","","","preload","","","2","5","false","[]","[]","[]","","","","","",""
"","","","","","","","","","","","canvas-keyboard-response","215","997377","0.0-215.0","null","null","","","","","","","","","","","","","","fixation","","","2","5","","","","","","","","","",""
"","","","","","","","","","","","canvas-keyboard-response","216","997679","0.0-216.0","null","null","","","","","","","","","","","","","","stimulus","","","2","5","","","","","","","","","",""
"","","","","","","","","","","","canvas-button-response","217","999332","0.0-217.0","1653","bed","","","","","","","","","","","","","","perceptual","","","2","5","","","","","218","flower","6","0","0",""
"","","","","","","","","","","","canvas-button-response","218","1000099","0.0-218.0","766","6","","","","","","","","","","","","","","confidence","","","2","5","","","","","","","","","","1"
"","","","","","","","","","","","preload","219","1000099","0.0-219.0","","","","","true","","","","","","","","","","","preload","","","2","6","false","[]","[]","[]","","","","","",""
"","","","","","","","","","","","canvas-keyboard-response","220","1000401","0.0-220.0","null","null","","","","","","","","","","","","","","fixation","","","2","6","","","","","","","","","",""
"","","","","","","","","","","","canvas-keyboard-response","221","1000702","0.0-221.0","null","null","","","","","","","","","","","","","","stimulus","","","2","6","","","","","","","","","",""
"","","","","","","","","","","","canvas-button-response","222","1001767","0.0-222.0","1064","knife","","","","","","","","","","","","","","perceptual","","","2","6","","","","","381","knife","10","0","1",""
"","","","","","","","","","","","canvas-button-response","223","1002638","0.0-223.0","871","8","","","","","","","","","","","","","","confidence","","","2","6","","","","","","","","","","2"
"","","","","","","","","","","","preload","224","1002638","0.0-224.0","","","","","true","","","","","","","","","","","preload","","","2","7","false","[]","[]","[]","","","","","",""
"","","","","","","","","","","","canvas-keyboard-response","225","1002940","0.0-225.0","null","null","","","","","","","","","","","","","","fixation","","","2","7","","","","","","","","","",""
"","","","","","","","","","","","canvas-keyboard-response","226","1003241","0.0-226.0","null","null","","","","","","","","","","","","","","stimulus","","","2","7","","","","","","","","","",""
"","","","","","","","","","","","canvas-button-response","227","1004266","0.0-227.0","1024","cat","","","","","","","","","","","","","","perceptual","","","2","7","","","","","296","cat","6","0","1",""
"","","","","","","","","","","","canvas-button-response","228","1004846","0.0-228.0","580","10","","","","","","","","","","","","","","confidence","","","2","7","","","","","","","","","","3"
"","","","","","","","","","","","preload","229","1004846","0.0-229.0","","","","","true","","","","","","","","","","","preload","","","2","8","false","[]","[]","[]","","","","","",""
"","","","","","","","","","","","canvas-keyboard-response","230","1005148","0.0-230.0","null","null","","","","","","","","","","","","","","fixation","","","2","8","","","","","","","","","",""
"","","","","","","","","","","","canvas-keyboard-response","231","1005450","0.0-231.0","null","null","","","","","","","","","","","","","","stimulus","","","2","8","","","","","","","","","",""
"","","","","","","","","","","","canvas-button-response","232","1006636","0.0-232.0","1185","flower","","","","","","","","","","","","","","perceptual","","","2","8","","","","","208","flower","6","0","1",""
"","","","","","","","","","","","canvas-button-response","233","1007651","0.0-233.0","1015","10","","","","","","","","","","","","","","confidence","","","2","8","","","","","","","","","","4"
"","","","","","","","","","","","preload","234","1007651","0.0-234.0","","","","","true","","","","","","","","","","","preload","","","2","9","false","[]","[]","[]","","","","","",""
"","","","","","","","","","","","canvas-keyboard-response","235","1007953","0.0-235.0","null","null","","","","","","","","","","","","","","fixation","","","2","9","","","","","","","","","",""
"","","","","","","","","","","","canvas-keyboard-response","236","1008254","0.0-236.0","null","null","","","","","","","","","","","","","","stimulus","","","2","9","","","","","","","","","",""
"","","","","","","","","","","","canvas-button-response","237","1009747","0.0-237.0","1493","phone","","","","","","","","","","","","","","perceptual","","","2","9","","","","","86","phone","6","0","1",""
"","","","","","","","","","","","canvas-button-response","238","1010372","0.0-238.0","625","10","","","","","","","","","","","","","","confidence","","","2","9","","","","","","","","","","5"
"","","","","","","","","","","","preload","239","1010372","0.0-239.0","","","","","true","","","","","","","","","","","preload","","","2","10","false","[]","[]","[]","","","","","",""
"","","","","","","","","","","","canvas-keyboard-response","240","1010673","0.0-240.0","null","null","","","","","","","","","","","","","","fixation","","","2","10","","","","","","","","","",""
"","","","","","","","","","","","canvas-keyboard-response","241","1010975","0.0-241.0","null","null","","","","","","","","","","","","","","stimulus","","","2","10","","","","","","","","","",""
"","","","","","","","","","","","canvas-button-response","242","1012513","0.0-242.0","1538","flower","","","","","","","","","","","","","","perceptual","","","2","10","","","","","211","flower","6","0","1",""
"","","","","","","","","","","","canvas-button-response","243","1013430","0.0-243.0","917","3","","","","","","","","","","","","","","confidence","","","2","10","","","","","","","","","","6"
"","","","","","","","","","","","preload","244","1013430","0.0-244.0","","","","","true","","","","","","","","","","","preload","","","2","11","false","[]","[]","[]","","","","","",""
"","","","","","","","","","","","canvas-keyboard-response","245","1013731","0.0-245.0","null","null","","","","","","","","","","","","","","fixation","","","2","11","","","","","","","","","",""
"","","","","","","","","","","","canvas-keyboard-response","246","1014032","0.0-246.0","null","null","","","","","","","","","","","","","","stimulus","","","2","11","","","","","","","","","",""
"","","","","","","","","","","","canvas-button-response","247","1015316","0.0-247.0","1284","flower","","","","","","","","","","","","","","perceptual","","","2","11","","","","","200","flower","6","0","1",""
"","","","","","","","","","","","canvas-button-response","248","1016526","0.0-248.0","1209","4","","","","","","","","","","","","","","confidence","","","2","11","","","","","","","","","","7"
"","","","","","","","","","","","preload","249","1016526","0.0-249.0","","","","","true","","","","","","","","","","","preload","","","2","12","false","[]","[]","[]","","","","","",""
"","","","","","","","","","","","canvas-keyboard-response","250","1016828","0.0-250.0","null","null","","","","","","","","","","","","","","fixation","","","2","12","","","","","","","","","",""
"","","","","","","","","","","","canvas-keyboard-response","251","1017129","0.0-251.0","null","null","","","","","","","","","","","","","","stimulus","","","2","12","","","","","","","","","",""
"","","","","","","","","","","","canvas-button-response","252","1018266","0.0-252.0","1137","cat","","","","","","","","","","","","","","perceptual","","","2","12","","","","","294","cat","6","0","1",""
"","","","","","","","","","","","canvas-button-response","253","1018912","0.0-253.0","645","5","","","","","","","","","","","","","","confidence","","","2","12","","","","","","","","","","8"
"","","","","","","","","","","","preload","254","1018912","0.0-254.0","","","","","true","","","","","","","","","","","preload","","","2","13","false","[]","[]","[]","","","","","",""
"","","","","","","","","","","","canvas-keyboard-response","255","1019214","0.0-255.0","null","null","","","","","","","","","","","","","","fixation","","","2","13","","","","","","","","","",""
"","","","","","","","","","","","canvas-keyboard-response","256","1019516","0.0-256.0","null","null","","","","","","","","","","","","","","stimulus","","","2","13","","","","","","","","","",""
"","","","","","","","","","","","canvas-button-response","257","1022628","0.0-257.0","3111","bed","","","","","","","","","","","","","","perceptual","","","2","13","","","","","375","knife","6","0","0",""
"","","","","","","","","","","","canvas-button-response","258","1024111","0.0-258.0","1483","5","","","","","","","","","","","","","","confidence","","","2","13","","","","","","","","","","8"
"","","","","","","","","","","","preload","259","1024111","0.0-259.0","","","","","true","","","","","","","","","","","preload","","","2","14","false","[]","[]","[]","","","","","",""
"","","","","","","","","","","","canvas-keyboard-response","260","1024413","0.0-260.0","null","null","","","","","","","","","","","","","","fixation","","","2","14","","","","","","","","","",""
"","","","","","","","","","","","canvas-keyboard-response","261","1024715","0.0-261.0","null","null","","","","","","","","","","","","","","stimulus","","","2","14","","","","","","","","","",""
"","","","","","","","","","","","canvas-button-response","262","1040462","0.0-262.0","15747","car","","","","","","","","","","","","","","perceptual","","","2","14","","","","","111","phone","10","0","0",""
"","","","","","","","","","","","canvas-button-response","263","1041075","0.0-263.0","612","5","","","","","","","","","","","","","","confidence","","","2","14","","","","","","","","","","8"
"","","","","","","","","","","","preload","264","1041075","0.0-264.0","","","","","true","","","","","","","","","","","preload","","","2","15","false","[]","[]","[]","","","","","",""
"","","","","","","","","","","","canvas-keyboard-response","265","1041377","0.0-265.0","null","null","","","","","","","","","","","","","","fixation","","","2","15","","","","","","","","","",""
"","","","","","","","","","","","canvas-keyboard-response","266","1041679","0.0-266.0","null","null","","","","","","","","","","","","","","stimulus","","","2","15","","","","","","","","","",""
"","","","","","","","","","","","canvas-button-response","267","1042775","0.0-267.0","1096","flower","","","","","","","","","","","","","","perceptual","","","2","15","","","","","210","flower","6","0","1",""
"","","","","","","","","","","","canvas-button-response","268","1043694","0.0-268.0","919","6","","","","","","","","","","","","","","confidence","","","2","15","","","","","","","","","","9"
"","","","","","","","","","","","preload","269","1043694","0.0-269.0","","","","","true","","","","","","","","","","","preload","","","2","16","false","[]","[]","[]","","","","","",""
"","","","","","","","","","","","canvas-keyboard-response","270","1043995","0.0-270.0","null","null","","","","","","","","","","","","","","fixation","","","2","16","","","","","","","","","",""
"","","","","","","","","","","","canvas-keyboard-response","271","1044297","0.0-271.0","null","null","","","","","","","","","","","","","","stimulus","","","2","16","","","","","","","","","",""
"","","","","","","","","","","","canvas-button-response","272","1046874","0.0-272.0","2576","house","","","","","","","","","","","","","","perceptual","","","2","16","","","","","2","house","6","0","1",""
"","","","","","","","","","","","canvas-button-response","273","1048348","0.0-273.0","1474","8","","","","","","","","","","","","","","confidence","","","2","16","","","","","","","","","","10"
"","","","","","","","","","","","preload","274","1048349","0.0-274.0","","","","","true","","","","","","","","","","","preload","","","2","17","false","[]","[]","[]","","","","","",""
"","","","","","","","","","","","canvas-keyboard-response","275","1048650","0.0-275.0","null","null","","","","","","","","","","","","","","fixation","","","2","17","","","","","","","","","",""
"","","","","","","","","","","","canvas-keyboard-response","276","1048952","0.0-276.0","null","null","","","","","","","","","","","","","","stimulus","","","2","17","","","","","","","","","",""
"","","","","","","","","","","","canvas-button-response","277","1051379","0.0-277.0","2426","knife","","","","","","","","","","","","","","perceptual","","","2","17","","","","","173","bridge","6","0","0",""
"","","","","","","","","","","","canvas-button-response","278","1052692","0.0-278.0","1313","4","","","","","","","","","","","","","","confidence","","","2","17","","","","","","","","","","10"
"","","","","","","","","","","","preload","279","1052693","0.0-279.0","","","","","true","","","","","","","","","","","preload","","","2","18","false","[]","[]","[]","","","","","",""
"","","","","","","","","","","","canvas-keyboard-response","280","1052994","0.0-280.0","null","null","","","","","","","","","","","","","","fixation","","","2","18","","","","","","","","","",""
"","","","","","","","","","","","canvas-keyboard-response","281","1053296","0.0-281.0","null","null","","","","","","","","","","","","","","stimulus","","","2","18","","","","","","","","","",""
"","","","","","","","","","","","canvas-button-response","282","1065551","0.0-282.0","12254","phone","","","","","","","","","","","","","","perceptual","","","2","18","","","","","42","car","6","0","0",""
"","","","","","","","","","","","canvas-button-response","283","1067002","0.0-283.0","1450","3","","","","","","","","","","","","","","confidence","","","2","18","","","","","","","","","","10"
"","","","","","","","","","","","preload","284","1067002","0.0-284.0","","","","","true","","","","","","","","","","","preload","","","2","19","false","[]","[]","[]","","","","","",""
"","","","","","","","","","","","canvas-keyboard-response","285","1067304","0.0-285.0","null","null","","","","","","","","","","","","","","fixation","","","2","19","","","","","","","","","",""
"","","","","","","","","","","","canvas-keyboard-response","286","1067606","0.0-286.0","null","null","","","","","","","","","","","","","","stimulus","","","2","19","","","","","","","","","",""
"","","","","","","","","","","","canvas-button-response","287","1084980","0.0-287.0","17373","car","","","","","","","","","","","","","","perceptual","","","2","19","","","","","78","car","10","0","1",""
"","","","","","","","","","","","canvas-button-response","288","1086294","0.0-288.0","1313","2","","","","","","","","","","","","","","confidence","","","2","19","","","","","","","","","","11"
"","","","","","","","","","","","preload","289","1086294","0.0-289.0","","","","","true","","","","","","","","","","","preload","","","2","20","false","[]","[]","[]","","","","","",""
"","","","","","","","","","","","canvas-keyboard-response","290","1086596","0.0-290.0","null","null","","","","","","","","","","","","","","fixation","","","2","20","","","","","","","","","",""
"","","","","","","","","","","","canvas-keyboard-response","291","1086898","0.0-291.0","null","null","","","","","","","","","","","","","","stimulus","","","2","20","","","","","","","","","",""
"","","","","","","","","","","","canvas-button-response","292","1091622","0.0-292.0","4723","bridge","","","","","","","","","","","","","","perceptual","","","2","20","","","","","326","elephant","6","0","0",""
"","","","","","","","","","","","canvas-button-response","293","1096515","0.0-293.0","4893","3","","","","","","","","","","","","","","confidence","","","2","20","","","","","","","","","","11"
"","","","","","","","","","","","preload","294","1096515","0.0-294.0","","","","","true","","","","","","","","","","","preload","","","2","21","false","[]","[]","[]","","","","","",""
"","","","","","","","","","","","canvas-keyboard-response","295","1096817","0.0-295.0","null","null","","","","","","","","","","","","","","fixation","","","2","21","","","","","","","","","",""
"","","","","","","","","","","","canvas-keyboard-response","296","1097118","0.0-296.0","null","null","","","","","","","","","","","","","","stimulus","","","2","21","","","","","","","","","",""
"","","","","","","","","","","","canvas-button-response","297","1104748","0.0-297.0","7629","train","","","","","","","","","","","","","","perceptual","","","2","21","","","","","196","bridge","10","0","0",""
"","","","","","","","","","","","canvas-button-response","298","1106956","0.0-298.0","2208","1","","","","","","","","","","","","","","confidence","","","2","21","","","","","","","","","","11"
"","","","","","","","","","","","preload","299","1106956","0.0-299.0","","","","","true","","","","","","","","","","","preload","","","2","22","false","[]","[]","[]","","","","","",""
"","","","","","","","","","","","canvas-keyboard-response","300","1107258","0.0-300.0","null","null","","","","","","","","","","","","","","fixation","","","2","22","","","","","","","","","",""
"","","","","","","","","","","","canvas-keyboard-response","301","1107559","0.0-301.0","null","null","","","","","","","","","","","","","","stimulus","","","2","22","","","","","","","","","",""
"","","","","","","","","","","","canvas-button-response","302","1109818","0.0-302.0","2259","flower","","","","","","","","","","","","","","perceptual","","","2","22","","","","","237","flower","10","0","1",""
"","","","","","","","","","","","canvas-button-response","303","1111115","0.0-303.0","1297","8","","","","","","","","","","","","","","confidence","","","2","22","","","","","","","","","","12"
"","","","","","","","","","","","preload","304","1111115","0.0-304.0","","","","","true","","","","","","","","","","","preload","","","2","23","false","[]","[]","[]","","","","","",""
"","","","","","","","","","","","canvas-keyboard-response","305","1111417","0.0-305.0","null","null","","","","","","","","","","","","","","fixation","","","2","23","","","","","","","","","",""
"","","","","","","","","","","","canvas-keyboard-response","306","1111718","0.0-306.0","null","null","","","","","","","","","","","","","","stimulus","","","2","23","","","","","","","","","",""
"","","","","","","","","","","","canvas-button-response","307","1114238","0.0-307.0","2519","car","","","","","","","","","","","","","","perceptual","","","2","23","","","","","159","bed","10","0","0",""
"","","","","","","","","","","","canvas-button-response","308","1115580","0.0-308.0","1341","4","","","","","","","","","","","","","","confidence","","","2","23","","","","","","","","","","12"
"","","","","","","","","","","","preload","309","1115580","0.0-309.0","","","","","true","","","","","","","","","","","preload","","","2","24","false","[]","[]","[]","","","","","",""
"","","","","","","","","","","","canvas-keyboard-response","310","1115881","0.0-310.0","null","null","","","","","","","","","","","","","","fixation","","","2","24","","","","","","","","","",""
"","","","","","","","","","","","canvas-keyboard-response","311","1116183","0.0-311.0","null","null","","","","","","","","","","","","","","stimulus","","","2","24","","","","","","","","","",""
"","","","","","","","","","","","canvas-button-response","312","1118723","0.0-312.0","2540","elephant","","","","","","","","","","","","","","perceptual","","","2","24","","","","","314","cat","10","0","0",""
"","","","","","","","","","","","canvas-button-response","313","1119739","0.0-313.0","1015","2","","","","","","","","","","","","","","confidence","","","2","24","","","","","","","","","","12"
"","","","","","","","","","","","preload","314","1119739","0.0-314.0","","","","","true","","","","","","","","","","","preload","","","2","25","false","[]","[]","[]","","","","","",""
"","","","","","","","","","","","canvas-keyboard-response","315","1120040","0.0-315.0","null","null","","","","","","","","","","","","","","fixation","","","2","25","","","","","","","","","",""
"","","","","","","","","","","","canvas-keyboard-response","316","1120342","0.0-316.0","null","null","","","","","","","","","","","","","","stimulus","","","2","25","","","","","","","","","",""
"","","","","","","","","","","","canvas-button-response","317","1124212","0.0-317.0","3870","bridge","","","","","","","","","","","","","","perceptual","","","2","25","","","","","180","bridge","10","0","1",""
"","","","","","","","","","","","canvas-button-response","318","1125485","0.0-318.0","1273","4","","","","","","","","","","","","","","confidence","","","2","25","","","","","","","","","","13"
"","","","","","","","","","","","preload","319","1125486","0.0-319.0","","","","","true","","","","","","","","","","","preload","","","2","26","false","[]","[]","[]","","","","","",""
"","","","","","","","","","","","canvas-keyboard-response","320","1125787","0.0-320.0","null","null","","","","","","","","","","","","","","fixation","","","2","26","","","","","","","","","",""
"","","","","","","","","","","","canvas-keyboard-response","321","1126089","0.0-321.0","null","null","","","","","","","","","","","","","","stimulus","","","2","26","","","","","","","","","",""
"","","","","","","","","","","","canvas-button-response","322","1129338","0.0-322.0","3249","train","","","","","","","","","","","","","","perceptual","","","2","26","","","","","144","bed","10","0","0",""
"","","","","","","","","","","","canvas-button-response","323","1131070","0.0-323.0","1732","4","","","","","","","","","","","","","","confidence","","","2","26","","","","","","","","","","13"
"","","","","","","","","","","","preload","324","1131071","0.0-324.0","","","","","true","","","","","","","","","","","preload","","","2","27","false","[]","[]","[]","","","","","",""
"","","","","","","","","","","","canvas-keyboard-response","325","1131372","0.0-325.0","null","null","","","","","","","","","","","","","","fixation","","","2","27","","","","","","","","","",""
"","","","","","","","","","","","canvas-keyboard-response","326","1131675","0.0-326.0","null","null","","","","","","","","","","","","","","stimulus","","","2","27","","","","","","","","","",""
"","","","","","","","","","","","canvas-button-response","327","1132957","0.0-327.0","1282","car","","","","","","","","","","","","","","perceptual","","","2","27","","","","","44","car","6","0","1",""
"","","","","","","","","","","","canvas-button-response","328","1134520","0.0-328.0","1563","9","","","","","","","","","","","","","","confidence","","","2","27","","","","","","","","","","14"
"","","","","","","","","","","","preload","329","1134520","0.0-329.0","","","","","true","","","","","","","","","","","preload","","","2","28","false","[]","[]","[]","","","","","",""
"","","","","","","","","","","","canvas-keyboard-response","330","1134822","0.0-330.0","null","null","","","","","","","","","","","","","","fixation","","","2","28","","","","","","","","","",""
"","","","","","","","","","","","canvas-keyboard-response","331","1135124","0.0-331.0","null","null","","","","","","","","","","","","","","stimulus","","","2","28","","","","","","","","","",""
"","","","","","","","","","","","canvas-button-response","332","1139777","0.0-332.0","4652","phone","","","","","","","","","","","","","","perceptual","","","2","28","","","","","89","phone","6","0","1",""
"","","","","","","","","","","","canvas-button-response","333","1141131","0.0-333.0","1354","10","","","","","","","","","","","","","","confidence","","","2","28","","","","","","","","","","15"
"","","","","","","","","","","","preload","334","1141131","0.0-334.0","","","","","true","","","","","","","","","","","preload","","","2","29","false","[]","[]","[]","","","","","",""
"","","","","","","","","","","","canvas-keyboard-response","335","1141433","0.0-335.0","null","null","","","","","","","","","","","","","","fixation","","","2","29","","","","","","","","","",""
"","","","","","","","","","","","canvas-keyboard-response","336","1141735","0.0-336.0","null","null","","","","","","","","","","","","","","stimulus","","","2","29","","","","","","","","","",""
"","","","","","","","","","","","canvas-button-response","337","1145306","0.0-337.0","3571","cat","","","","","","","","","","","","","","perceptual","","","2","29","","","","","146","bed","10","0","0",""
"","","","","","","","","","","","canvas-button-response","338","1152194","0.0-338.0","6887","7","","","","","","","","","","","","","","confidence","","","2","29","","","","","","","","","","15"
"","","","","","","","","","","","preload","339","1152194","0.0-339.0","","","","","true","","","","","","","","","","","preload","","","2","30","false","[]","[]","[]","","","","","",""
"","","","","","","","","","","","canvas-keyboard-response","340","1152496","0.0-340.0","null","null","","","","","","","","","","","","","","fixation","","","2","30","","","","","","","","","",""
"","","","","","","","","","","","canvas-keyboard-response","341","1152798","0.0-341.0","null","null","","","","","","","","","","","","","","stimulus","","","2","30","","","","","","","","","",""
"","","","","","","","","","","","canvas-button-response","342","1155805","0.0-342.0","3007","elephant","","","","","","","","","","","","","","perceptual","","","2","30","","","","","10","house","6","0","0",""
"","","","","","","","","","","","canvas-button-response","343","1156377","0.0-343.0","572","8","","","","","","","","","","","","","","confidence","","","2","30","","","","","","","","","","15"
"","","","","","","","","","","","preload","344","1156378","0.0-344.0","","","","","true","","","","","","","","","","","preload","","","2","31","false","[]","[]","[]","","","","","",""
"","","","","","","","","","","","canvas-keyboard-response","345","1156680","0.0-345.0","null","null","","","","","","","","","","","","","","fixation","","","2","31","","","","","","","","","",""
"","","","","","","","","","","","canvas-keyboard-response","346","1156982","0.0-346.0","null","null","","","","","","","","","","","","","","stimulus","","","2","31","","","","","","","","","",""
"","","","","","","","","","","","canvas-button-response","347","1158151","0.0-347.0","1169","elephant","","","","","","","","","","","","","","perceptual","","","2","31","","","","","340","elephant","10","0","1",""
"","","","","","","","","","","","canvas-button-response","348","1159086","0.0-348.0","935","10","","","","","","","","","","","","","","confidence","","","2","31","","","","","","","","","","16"
"","","","","","","","","","","","preload","349","1159086","0.0-349.0","","","","","true","","","","","","","","","","","preload","","","2","32","false","[]","[]","[]","","","","","",""
"","","","","","","","","","","","canvas-keyboard-response","350","1159388","0.0-350.0","null","null","","","","","","","","","","","","","","fixation","","","2","32","","","","","","","","","",""
"","","","","","","","","","","","canvas-keyboard-response","351","1159690","0.0-351.0","null","null","","","","","","","","","","","","","","stimulus","","","2","32","","","","","","","","","",""
"","","","","","","","","","","","canvas-button-response","352","1160996","0.0-352.0","1306","car","","","","","","","","","","","","","","perceptual","","","2","32","","","","","30","house","10","0","0",""
"","","","","","","","","","","","canvas-button-response","353","1162126","0.0-353.0","1129","5","","","","","","","","","","","","","","confidence","","","2","32","","","","","","","","","","16"
"","","","","","","","","","","","preload","354","1162126","0.0-354.0","","","","","true","","","","","","","","","","","preload","","","2","33","false","[]","[]","[]","","","","","",""
"","","","","","","","","","","","canvas-keyboard-response","355","1162427","0.0-355.0","null","null","","","","","","","","","","","","","","fixation","","","2","33","","","","","","","","","",""
"","","","","","","","","","","","canvas-keyboard-response","356","1162729","0.0-356.0","null","null","","","","","","","","","","","","","","stimulus","","","2","33","","","","","","","","","",""
"","","","","","","","","","","","canvas-button-response","357","1167921","0.0-357.0","5192","house","","","","","","","","","","","","","","perceptual","","","2","33","","","","","132","bed","6","0","0",""
"","","","","","","","","","","","canvas-button-response","358","1168855","0.0-358.0","934","3","","","","","","","","","","","","","","confidence","","","2","33","","","","","","","","","","16"
"","","","","","","","","","","","preload","359","1168856","0.0-359.0","","","","","true","","","","","","","","","","","preload","","","2","34","false","[]","[]","[]","","","","","",""
"","","","","","","","","","","","canvas-keyboard-response","360","1169157","0.0-360.0","null","null","","","","","","","","","","","","","","fixation","","","2","34","","","","","","","","","",""
"","","","","","","","","","","","canvas-keyboard-response","361","1169459","0.0-361.0","null","null","","","","","","","","","","","","","","stimulus","","","2","34","","","","","","","","","",""
"","","","","","","","","","","","canvas-button-response","362","1174876","0.0-362.0","5416","car","","","","","","","","","","","","","","perceptual","","","2","34","","","","","307","cat","10","0","0",""
"","","","","","","","","","","","canvas-button-response","363","1176407","0.0-363.0","1531","5","","","","","","","","","","","","","","confidence","","","2","34","","","","","","","","","","16"
"","","","","","","","","","","","preload","364","1176408","0.0-364.0","","","","","true","","","","","","","","","","","preload","","","2","35","false","[]","[]","[]","","","","","",""
"","","","","","","","","","","","canvas-keyboard-response","365","1176710","0.0-365.0","null","null","","","","","","","","","","","","","","fixation","","","2","35","","","","","","","","","",""
"","","","","","","","","","","","canvas-keyboard-response","366","1177011","0.0-366.0","null","null","","","","","","","","","","","","","","stimulus","","","2","35","","","","","","","","","",""
"","","","","","","","","","","","canvas-button-response","367","1179019","0.0-367.0","2007","knife","","","","","","","","","","","","","","perceptual","","","2","35","","","","","387","knife","10","0","1",""
"","","","","","","","","","","","canvas-button-response","368","1180453","0.0-368.0","1434","9","","","","","","","","","","","","","","confidence","","","2","35","","","","","","","","","","17"
"","","","","","","","","","","","preload","369","1180454","0.0-369.0","","","","","true","","","","","","","","","","","preload","","","2","36","false","[]","[]","[]","","","","","",""
"","","","","","","","","","","","canvas-keyboard-response","370","1180755","0.0-370.0","null","null","","","","","","","","","","","","","","fixation","","","2","36","","","","","","","","","",""
"","","","","","","","","","","","canvas-keyboard-response","371","1181058","0.0-371.0","null","null","","","","","","","","","","","","","","stimulus","","","2","36","","","","","","","","","",""
"","","","","","","","","","","","canvas-button-response","372","1187233","0.0-372.0","6175","bridge","","","","","","","","","","","","","","perceptual","","","2","36","","","","","194","bridge","10","0","1",""
"","","","","","","","","","","","canvas-button-response","373","1188216","0.0-373.0","983","5","","","","","","","","","","","","","","confidence","","","2","36","","","","","","","","","","18"
"","","","","","","","","","","","preload","374","1188216","0.0-374.0","","","","","true","","","","","","","","","","","preload","","","2","37","false","[]","[]","[]","","","","","",""
"","","","","","","","","","","","canvas-keyboard-response","375","1188518","0.0-375.0","null","null","","","","","","","","","","","","","","fixation","","","2","37","","","","","","","","","",""
"","","","","","","","","","","","canvas-keyboard-response","376","1188820","0.0-376.0","null","null","","","","","","","","","","","","","","stimulus","","","2","37","","","","","","","","","",""
"","","","","","","","","","","","canvas-button-response","377","1192252","0.0-377.0","3431","bed","","","","","","","","","","","","","","perceptual","","","2","37","","","","","371","knife","6","0","0",""
"","","","","","","","","","","","canvas-button-response","378","1194105","0.0-378.0","1853","6","","","","","","","","","","","","","","confidence","","","2","37","","","","","","","","","","18"
"","","","","","","","","","","","preload","379","1194106","0.0-379.0","","","","","true","","","","","","","","","","","preload","","","2","38","false","[]","[]","[]","","","","","",""
"","","","","","","","","","","","canvas-keyboard-response","380","1194407","0.0-380.0","null","null","","","","","","","","","","","","","","fixation","","","2","38","","","","","","","","","",""
"","","","","","","","","","","","canvas-keyboard-response","381","1194709","0.0-381.0","null","null","","","","","","","","","","","","","","stimulus","","","2","38","","","","","","","","","",""
"","","","","","","","","","","","canvas-button-response","382","1196008","0.0-382.0","1298","bridge","","","","","","","","","","","","","","perceptual","","","2","38","","","","","169","bridge","6","0","1",""
"","","","","","","","","","","","canvas-button-response","383","1197209","0.0-383.0","1201","9","","","","","","","","","","","","","","confidence","","","2","38","","","","","","","","","","19"
"","","","","","","","","","","","preload","384","1197210","0.0-384.0","","","","","true","","","","","","","","","","","preload","","","2","39","false","[]","[]","[]","","","","","",""
"","","","","","","","","","","","canvas-keyboard-response","385","1197512","0.0-385.0","null","null","","","","","","","","","","","","","","fixation","","","2","39","","","","","","","","","",""
"","","","","","","","","","","","canvas-keyboard-response","386","1197813","0.0-386.0","null","null","","","","","","","","","","","","","","stimulus","","","2","39","","","","","","","","","",""
"","","","","","","","","","","","canvas-button-response","387","1202328","0.0-387.0","4514","train","","","","","","","","","","","","","","perceptual","","","2","39","","","","","181","bridge","10","0","0",""
"","","","","","","","","","","","canvas-button-response","388","1203343","0.0-388.0","1015","8","","","","","","","","","","","","","","confidence","","","2","39","","","","","","","","","","19"
"","","","","","","","","","","","preload","389","1203343","0.0-389.0","","","","","true","","","","","","","","","","","preload","","","2","40","false","[]","[]","[]","","","","","",""
"","","","","","","","","","","","canvas-keyboard-response","390","1203645","0.0-390.0","null","null","","","","","","","","","","","","","","fixation","","","2","40","","","","","","","","","",""
"","","","","","","","","","","","canvas-keyboard-response","391","1203947","0.0-391.0","null","null","","","","","","","","","","","","","","stimulus","","","2","40","","","","","","","","","",""
"","","","","","","","","","","","canvas-button-response","392","1206318","0.0-392.0","2370","cat","","","","","","","","","","","","","","perceptual","","","2","40","","","","","399","knife","10","0","0",""
"","","","","","","","","","","","canvas-button-response","393","1207196","0.0-393.0","878","6","","","","","","","","","","","","","","confidence","","","2","40","","","","","","","","","","19"
"","","","","","","","","","","","preload","394","1207197","0.0-394.0","","","","","true","","","","","","","","","","","preload","","","2","41","false","[]","[]","[]","","","","","",""
"","","","","","","","","","","","canvas-keyboard-response","395","1207498","0.0-395.0","null","null","","","","","","","","","","","","","","fixation","","","2","41","","","","","","","","","",""
"","","","","","","","","","","","canvas-keyboard-response","396","1207800","0.0-396.0","null","null","","","","","","","","","","","","","","stimulus","","","2","41","","","","","","","","","",""
"","","","","","","","","","","","canvas-button-response","397","1209058","0.0-397.0","1258","knife","","","","","","","","","","","","","","perceptual","","","2","41","","","","","361","knife","6","0","1",""
"","","","","","","","","","","","canvas-button-response","398","1210195","0.0-398.0","1136","10","","","","","","","","","","","","","","confidence","","","2","41","","","","","","","","","","20"
"","","","","","","","","","","","preload","399","1210195","0.0-399.0","","","","","true","","","","","","","","","","","preload","","","2","42","false","[]","[]","[]","","","","","",""
"","","","","","","","","","","","canvas-keyboard-response","400","1210497","0.0-400.0","null","null","","","","","","","","","","","","","","fixation","","","2","42","","","","","","","","","",""
"","","","","","","","","","","","canvas-keyboard-response","401","1210800","0.0-401.0","null","null","","","","","","","","","","","","","","stimulus","","","2","42","","","","","","","","","",""
"","","","","","","","","","","","canvas-button-response","402","1213731","0.0-402.0","2931","flower","","","","","","","","","","","","","","perceptual","","","2","42","","","","","219","flower","6","0","1",""
"","","","","","","","","","","","canvas-button-response","403","1214940","0.0-403.0","1209","10","","","","","","","","","","","","","","confidence","","","2","42","","","","","","","","","","21"
"","","","","","","","","","","","preload","404","1214940","0.0-404.0","","","","","true","","","","","","","","","","","preload","","","2","43","false","[]","[]","[]","","","","","",""
"","","","","","","","","","","","canvas-keyboard-response","405","1215242","0.0-405.0","null","null","","","","","","","","","","","","","","fixation","","","2","43","","","","","","","","","",""
"","","","","","","","","","","","canvas-keyboard-response","406","1215544","0.0-406.0","null","null","","","","","","","","","","","","","","stimulus","","","2","43","","","","","","","","","",""
"","","","","","","","","","","","canvas-button-response","407","1217342","0.0-407.0","1798","knife","","","","","","","","","","","","","","perceptual","","","2","43","","","","","392","knife","10","0","1",""
"","","","","","","","","","","","canvas-button-response","408","1218309","0.0-408.0","967","9","","","","","","","","","","","","","","confidence","","","2","43","","","","","","","","","","22"
"","","","","","","","","","","","preload","409","1218309","0.0-409.0","","","","","true","","","","","","","","","","","preload","","","2","44","false","[]","[]","[]","","","","","",""
"","","","","","","","","","","","canvas-keyboard-response","410","1218611","0.0-410.0","null","null","","","","","","","","","","","","","","fixation","","","2","44","","","","","","","","","",""
"","","","","","","","","","","","canvas-keyboard-response","411","1218912","0.0-411.0","null","null","","","","","","","","","","","","","","stimulus","","","2","44","","","","","","","","","",""
"","","","","","","","","","","","canvas-button-response","412","1220244","0.0-412.0","1331","cat","","","","","","","","","","","","","","perceptual","","","2","44","","","","","346","elephant","10","0","0",""
"","","","","","","","","","","","canvas-button-response","413","1220953","0.0-413.0","709","8","","","","","","","","","","","","","","confidence","","","2","44","","","","","","","","","","22"
"","","","","","","","","","","","preload","414","1220953","0.0-414.0","","","","","true","","","","","","","","","","","preload","","","2","45","false","[]","[]","[]","","","","","",""
"","","","","","","","","","","","canvas-keyboard-response","415","1221255","0.0-415.0","null","null","","","","","","","","","","","","","","fixation","","","2","45","","","","","","","","","",""
"","","","","","","","","","","","canvas-keyboard-response","416","1221557","0.0-416.0","null","null","","","","","","","","","","","","","","stimulus","","","2","45","","","","","","","","","",""
"","","","","","","","","","","","canvas-button-response","417","1223033","0.0-417.0","1475","knife","","","","","","","","","","","","","","perceptual","","","2","45","","","","","130","bed","6","0","0",""
"","","","","","","","","","","","canvas-button-response","418","1223710","0.0-418.0","676","4","","","","","","","","","","","","","","confidence","","","2","45","","","","","","","","","","22"
"","","","","","","","","","","","preload","419","1223710","0.0-419.0","","","","","true","","","","","","","","","","","preload","","","2","46","false","[]","[]","[]","","","","","",""
"","","","","","","","","","","","canvas-keyboard-response","420","1224012","0.0-420.0","null","null","","","","","","","","","","","","","","fixation","","","2","46","","","","","","","","","",""
"","","","","","","","","","","","canvas-keyboard-response","421","1224313","0.0-421.0","null","null","","","","","","","","","","","","","","stimulus","","","2","46","","","","","","","","","",""
"","","","","","","","","","","","canvas-button-response","422","1225209","0.0-422.0","895","car","","","","","","","","","","","","","","perceptual","","","2","46","","","","","52","car","6","0","1",""
"","","","","","","","","","","","canvas-button-response","423","1226547","0.0-423.0","1338","10","","","","","","","","","","","","","","confidence","","","2","46","","","","","","","","","","23"
"","","","","","","","","","","","preload","424","1226548","0.0-424.0","","","","","true","","","","","","","","","","","preload","","","2","47","false","[]","[]","[]","","","","","",""
"","","","","","","","","","","","canvas-keyboard-response","425","1226849","0.0-425.0","null","null","","","","","","","","","","","","","","fixation","","","2","47","","","","","","","","","",""
"","","","","","","","","","","","canvas-keyboard-response","426","1227151","0.0-426.0","null","null","","","","","","","","","","","","","","stimulus","","","2","47","","","","","","","","","",""
"","","","","","","","","","","","canvas-button-response","427","1228925","0.0-427.0","1774","car","","","","","","","","","","","","","","perceptual","","","2","47","","","","","54","car","6","0","1",""
"","","","","","","","","","","","canvas-button-response","428","1229755","0.0-428.0","829","10","","","","","","","","","","","","","","confidence","","","2","47","","","","","","","","","","24"
"","","","","","","","","","","","preload","429","1229755","0.0-429.0","","","","","true","","","","","","","","","","","preload","","","2","48","false","[]","[]","[]","","","","","",""
"","","","","","","","","","","","canvas-keyboard-response","430","1230057","0.0-430.0","null","null","","","","","","","","","","","","","","fixation","","","2","48","","","","","","","","","",""
"","","","","","","","","","","","canvas-keyboard-response","431","1230358","0.0-431.0","null","null","","","","","","","","","","","","","","stimulus","","","2","48","","","","","","","","","",""
"","","","","","","","","","","","canvas-button-response","432","1233052","0.0-432.0","2693","house","","","","","","","","","","","","","","perceptual","","","2","48","","","","","272","train","10","0","0",""
"","","","","","","","","","","","canvas-button-response","433","1235116","0.0-433.0","2063","0","","","","","","","","","","","","","","confidence","","","2","48","","","","","","","","","","24"
"","","","","","","","","","","","preload","434","1235116","0.0-434.0","","","","","true","","","","","","","","","","","preload","","","2","49","false","[]","[]","[]","","","","","",""
"","","","","","","","","","","","canvas-keyboard-response","435","1235418","0.0-435.0","null","null","","","","","","","","","","","","","","fixation","","","2","49","","","","","","","","","",""
"","","","","","","","","","","","canvas-keyboard-response","436","1235719","0.0-436.0","null","null","","","","","","","","","","","","","","stimulus","","","2","49","","","","","","","","","",""
"","","","","","","","","","","","canvas-button-response","437","1237074","0.0-437.0","1354","car","","","","","","","","","","","","","","perceptual","","","2","49","","","","","85","phone","6","0","0",""
"","","","","","","","","","","","canvas-button-response","438","1238549","0.0-438.0","1475","0","","","","","","","","","","","","","","confidence","","","2","49","","","","","","","","","","24"
"","","","","","","","","","","","html-button-response","439","1249218","0.0-439.0","10668","0","","","","","","","","","","","","","","<p style=""font-size:20px;color:#000000"">You got 24 out of 50 trials correct in this block.<br><br>You have completed 6% of the experiment.<br><br>Take a short break.<br><br>When you are ready, click Continue to proceed.","","","2","49","","","","","","","","","",""
"","","","","","","","","","","","html-keyboard-response","440","1250220","0.0-440.0","null","null","","","","","","","","","","","","","","<p style=""font-size:32px;color:#000000""><br><br> RUN: &nbsp 1/4 <br><br> BLOCK: 2/4 ","","","2","49","","","","","","","","","",""
"","","","","","","","","","","","preload","441","1250221","0.0-441.0","","","","","true","","","","","","","","","","","preload","","","2","50","false","[]","[]","[]","","","","","",""
"","","","","","","","","","","","canvas-keyboard-response","442","1250523","0.0-442.0","null","null","","","","","","","","","","","","","","fixation","","","2","50","","","","","","","","","",""
"","","","","","","","","","","","canvas-keyboard-response","443","1250824","0.0-443.0","null","null","","","","","","","","","","","","","","stimulus","","","2","50","","","","","","","","","",""
"","","","","","","","","","","","canvas-button-response","444","1252261","0.0-444.0","1437","bridge","","","","","","","","","","","","","","perceptual","","","2","50","","","","","163","bridge","6","0","1",""
"","","","","","","","","","","","canvas-button-response","445","1268644","0.0-445.0","16382","3","","","","","","","","","","","","","","confidence","","","2","50","","","","","","","","","","1"
"","","","","","","","","","","","preload","446","1268644","0.0-446.0","","","","","true","","","","","","","","","","","preload","","","2","51","false","[]","[]","[]","","","","","",""
"","","","","","","","","","","","canvas-keyboard-response","447","1268946","0.0-447.0","null","null","","","","","","","","","","","","","","fixation","","","2","51","","","","","","","","","",""
"","","","","","","","","","","","canvas-keyboard-response","448","1269248","0.0-448.0","null","null","","","","","","","","","","","","","","stimulus","","","2","51","","","","","","","","","",""
"","","","","","","","","","","","canvas-button-response","449","1269919","0.0-449.0","671","cat","","","","","","","","","","","","","","perceptual","","","2","51","","","","","373","knife","6","0","0",""
"","","","","","","","","","","","canvas-button-response","450","1270668","0.0-450.0","749","6","","","","","","","","","","","","","","confidence","","","2","51","","","","","","","","","","1"
"","","","","","","","","","","","preload","451","1270668","0.0-451.0","","","","","true","","","","","","","","","","","preload","","","2","52","false","[]","[]","[]","","","","","",""
"","","","","","","","","","","","canvas-keyboard-response","452","1270970","0.0-452.0","null","null","","","","","","","","","","","","","","fixation","","","2","52","","","","","","","","","",""
"","","","","","","","","","","","canvas-keyboard-response","453","1271271","0.0-453.0","null","null","","","","","","","","","","","","","","stimulus","","","2","52","","","","","","","","","",""
"","","","","","","","","","","","canvas-button-response","454","1271805","0.0-454.0","534","cat","","","","","","","","","","","","","","perceptual","","","2","52","","","","","12","house","6","0","0",""
"","","","","","","","","","","","canvas-button-response","455","1272450","0.0-455.0","644","5","","","","","","","","","","","","","","confidence","","","2","52","","","","","","","","","","1"
"","","","","","","","","","","","preload","456","1272450","0.0-456.0","","","","","true","","","","","","","","","","","preload","","","2","53","false","[]","[]","[]","","","","","",""
"","","","","","","","","","","","canvas-keyboard-response","457","1272752","0.0-457.0","null","null","","","","","","","","","","","","","","fixation","","","2","53","","","","","","","","","",""
"","","","","","","","","","","","canvas-keyboard-response","458","1273054","0.0-458.0","null","null","","","","","","","","","","","","","","stimulus","","","2","53","","","","","","","","","",""
"","","","","","","","","","","","canvas-button-response","459","1274547","0.0-459.0","1493","phone","","","","","","","","","","","","","","perceptual","","","2","53","","","","","51","car","6","0","0",""
"","","","","","","","","","","","canvas-button-response","460","1275370","0.0-460.0","823","4","","","","","","","","","","","","","","confidence","","","2","53","","","","","","","","","","1"
"","","","","","","","","","","","preload","461","1275370","0.0-461.0","","","","","true","","","","","","","","","","","preload","","","2","54","false","[]","[]","[]","","","","","",""
"","","","","","","","","","","","canvas-keyboard-response","462","1275672","0.0-462.0","null","null","","","","","","","","","","","","","","fixation","","","2","54","","","","","","","","","",""
"","","","","","","","","","","","canvas-keyboard-response","463","1275975","0.0-463.0","null","null","","","","","","","","","","","","","","stimulus","","","2","54","","","","","","","","","",""
"","","","","","","","","","","","canvas-button-response","464","1277337","0.0-464.0","1362","train","","","","","","","","","","","","","","perceptual","","","2","54","","","","","131","bed","6","0","0",""
"","","","","","","","","","","","canvas-button-response","465","1277925","0.0-465.0","588","7","","","","","","","","","","","","","","confidence","","","2","54","","","","","","","","","","1"
"","","","","","","","","","","","preload","466","1277926","0.0-466.0","","","","","true","","","","","","","","","","","preload","","","2","55","false","[]","[]","[]","","","","","",""
"","","","","","","","","","","","canvas-keyboard-response","467","1278226","0.0-467.0","null","null","","","","","","","","","","","","","","fixation","","","2","55","","","","","","","","","",""
"","","","","","","","","","","","canvas-keyboard-response","468","1278528","0.0-468.0","null","null","","","","","","","","","","","","","","stimulus","","","2","55","","","","","","","","","",""
"","","","","","","","","","","","canvas-button-response","469","1280256","0.0-469.0","1727","flower","","","","","","","","","","","","","","perceptual","","","2","55","","","","","215","flower","6","0","1",""
"","","","","","","","","","","","canvas-button-response","470","1281594","0.0-470.0","1338","9","","","","","","","","","","","","","","confidence","","","2","55","","","","","","","","","","2"
"","","","","","","","","","","","preload","471","1281595","0.0-471.0","","","","","true","","","","","","","","","","","preload","","","2","56","false","[]","[]","[]","","","","","",""
"","","","","","","","","","","","canvas-keyboard-response","472","1281897","0.0-472.0","null","null","","","","","","","","","","","","","","fixation","","","2","56","","","","","","","","","",""
"","","","","","","","","","","","canvas-keyboard-response","473","1282199","0.0-473.0","null","null","","","","","","","","","","","","","","stimulus","","","2","56","","","","","","","","","",""
"","","","","","","","","","","","canvas-button-response","474","1284007","0.0-474.0","1808","flower","","","","","","","","","","","","","","perceptual","","","2","56","","","","","217","flower","6","0","1",""
"","","","","","","","","","","","canvas-button-response","475","1284933","0.0-475.0","925","10","","","","","","","","","","","","","","confidence","","","2","56","","","","","","","","","","3"
"","","","","","","","","","","","preload","476","1284933","0.0-476.0","","","","","true","","","","","","","","","","","preload","","","2","57","false","[]","[]","[]","","","","","",""
"","","","","","","","","","","","canvas-keyboard-response","477","1285234","0.0-477.0","null","null","","","","","","","","","","","","","","fixation","","","2","57","","","","","","","","","",""
"","","","","","","","","","","","canvas-keyboard-response","478","1285536","0.0-478.0","null","null","","","","","","","","","","","","","","stimulus","","","2","57","","","","","","","","","",""
"","","","","","","","","","","","canvas-button-response","479","1505115","0.0-479.0","170123","elephant","","","","","","","","","","","","","","perceptual","","","2","57","","","","","390","knife","10","0","0",""
"","","","","","","","","","","","canvas-button-response","480","1506395","0.0-480.0","1279","8","","","","","","","","","","","","","","confidence","","","2","57","","","","","","","","","","3"
"","","","","","","","","","","","preload","481","1506396","0.0-481.0","","","","","true","","","","","","","","","","","preload","","","2","58","false","[]","[]","[]","","","","","",""
"","","","","","","","","","","","canvas-keyboard-response","482","1506699","0.0-482.0","null","null","","","","","","","","","","","","","","fixation","","","2","58","","","","","","","","","",""
"","","","","","","","","","","","canvas-keyboard-response","483","1507000","0.0-483.0","null","null","","","","","","","","","","","","","","stimulus","","","2","58","","","","","","","","","",""
"","","","","","","","","","","","canvas-button-response","484","1515542","0.0-484.0","8548","car","","","","","","","","","","","","","","perceptual","","","2","58","","","","","259","train","6","0","0",""
"","","","","","","","","","","","canvas-button-response","485","1516113","0.0-485.0","571","4","","","","","","","","","","","","","","confidence","","","2","58","","","","","","","","","","3"
"","","","","","","","","","","","preload","486","1516113","0.0-486.0","","","","","true","","","","","","","","","","","preload","","","2","59","false","[]","[]","[]","","","","","",""
"","","","","","","","","","","","canvas-keyboard-response","487","1516415","0.0-487.0","null","null","","","","","","","","","","","","","","fixation","","","2","59","","","","","","","","","",""
"","","","","","","","","","","","canvas-keyboard-response","488","1516717","0.0-488.0","null","null","","","","","","","","","","","","","","stimulus","","","2","59","","","","","","","","","",""
"","","","","","","","","","","","canvas-button-response","489","1517886","0.0-489.0","1169","flower","","","","","","","","","","","","","","perceptual","","","2","59","","","","","206","flower","6","0","1",""
