"width","height","webaudio","browser","browser_version","mobile","os","fullscreen","vsync_rate","webcam","microphone","trial_type","trial_index","time_elapsed","internal_node_id","rt","response","accuracy","view_history","success","item_width_mm","item_height_mm","item_width_px","px2mm","view_dist_mm","item_width_deg","px2deg","scale_factor","win_width_deg","win_height_deg","stimulus","datetime","subjectID","curr_triallist","trial_no","timeout","failed_images","failed_audio","failed_video","image_index","category","blur","reps","correct","running_score"
"1440","812","true","chrome","141.0.0","false","Mac OS","true","60.79","true","true","browser-check","0","998","0.0-0.0","","","","","","","","","","","","","","","","","","","","","","","","","","","","","",""
"","","","","","","","","","","","survey","1","27251","0.0-1.0","26208","{""P0_Q0"":""904073642"",""P0_Q1"":""19"",""P1_Q0"":""Male"",""P1_Q1"":""Not Hispanic or Latino"",""P1_Q2"":""Asian"",""P1_Q3"":""Normal"",""P1_Q4"":""Right-Handed""}","[]","","","","","","","","","","","","","","","","","","","","","","","","","","",""
"","","","","","","","","","","","instructions","2","63888","0.0-2.0","36637","","","[{""page_index"":0,""viewing_time"":5220},{""page_index"":1,""viewing_time"":10683},{""page_index"":2,""viewing_time"":10651},{""page_index"":3,""viewing_time"":10083}]","","","","","","","","","","","","","","","","","","","","","","","","","",""
"","","","","","","","","","","","fullscreen","3","67058","0.0-3.0","2163","","","","true","","","","","","","","","","","","","","","","","","","","","","","","",""
"","","","","","","","","","","","virtual-chinrest","4","188393","0.0-4.0","121335","","","","","85.6","53.98","319.0657997951314","3.730743336146198","459.82","10.635526659837714","30","1.2035135080179766","48","30","","","","","","","","","","","","","","",""
"","","","","","","","","","","","instructions","5","220302","0.0-5.0","31910","","","[{""page_index"":0,""viewing_time"":4542},{""page_index"":1,""viewing_time"":8600},{""page_index"":2,""viewing_time"":6151},{""page_index"":3,""viewing_time"":1750},{""page_index"":4,""viewing_time"":2200},{""page_index"":5,""viewing_time"":5251},{""page_index"":6,""viewing_time"":3417}]","","","","","","","","","","","","","","","","","","","","","","","","","",""
"","","","","","","","","","","","html-button-response","6","221503","0.0-6.0","1195","0","","","","","","","","","","","","","","start_practice","Thu Oct 16 2025 10:09:16 GMT-0400 (Eastern Daylight Time)","27580","","","","","","","","","","","",""
"","","","","","","","","","","","preload","7","221505","0.0-7.0","","","","","true","","","","","","","","","","","preload","","","0","0","false","[]","[]","[]","","","","","",""
"","","","","","","","","","","","canvas-keyboard-response","8","221810","0.0-8.0","null","null","","","","","","","","","","","","","","fixation","","","0","0","","","","","","","","","",""
"","","","","","","","","","","","canvas-keyboard-response","9","222115","0.0-9.0","null","null","","","","","","","","","","","","","","stimulus","","","0","0","","","","","","","","","",""
"","","","","","","","","","","","canvas-button-response","10","224386","0.0-10.0","2267","bed","","","","","","","","","","","","","","perceptual","","","0","0","","","","","32","bed","1","","1",""
"","","","","","","","","","","","canvas-button-response","11","226253","0.0-11.0","1865","7","","","","","","","","","","","","","","confidence","","","0","0","","","","","","","","","","1"
"","","","","","","","","","","","html-keyboard-response","12","227257","0.0-12.0","null","null","","","","","","","","","","","","","","feedback","Thu Oct 16 2025 10:09:22 GMT-0400 (Eastern Daylight Time)","27580","0","0","","","","","","","","","",""
"","","","","","","","","","","","preload","13","227258","0.0-13.0","","","","","true","","","","","","","","","","","preload","","","0","1","false","[]","[]","[]","","","","","",""
"","","","","","","","","","","","canvas-keyboard-response","14","227562","0.0-14.0","null","null","","","","","","","","","","","","","","fixation","","","0","1","","","","","","","","","",""
"","","","","","","","","","","","canvas-keyboard-response","15","227865","0.0-15.0","null","null","","","","","","","","","","","","","","stimulus","","","0","1","","","","","","","","","",""
"","","","","","","","","","","","canvas-button-response","16","229036","0.0-16.0","1168","bridge","","","","","","","","","","","","","","perceptual","","","0","1","","","","","42","bridge","1","","1",""
"","","","","","","","","","","","canvas-button-response","17","230019","0.0-17.0","981","10","","","","","","","","","","","","","","confidence","","","0","1","","","","","","","","","","2"
"","","","","","","","","","","","html-keyboard-response","18","231022","0.0-18.0","null","null","","","","","","","","","","","","","","feedback","Thu Oct 16 2025 10:09:26 GMT-0400 (Eastern Daylight Time)","27580","0","1","","","","","","","","","",""
"","","","","","","","","","","","preload","19","231024","0.0-19.0","","","","","true","","","","","","","","","","","preload","","","0","2","false","[]","[]","[]","","","","","",""
"","","","","","","","","","","","canvas-keyboard-response","20","231327","0.0-20.0","null","null","","","","","","","","","","","","","","fixation","","","0","2","","","","","","","","","",""
"","","","","","","","","","","","canvas-keyboard-response","21","231630","0.0-21.0","null","null","","","","","","","","","","","","","","stimulus","","","0","2","","","","","","","","","",""
"","","","","","","","","","","","canvas-button-response","22","236236","0.0-22.0","4602","knife","","","","","","","","","","","","","","perceptual","","","0","2","","","","","92","knife","1","","1",""
"","","","","","","","","","","","canvas-button-response","23","236869","0.0-23.0","630","4","","","","","","","","","","","","","","confidence","","","0","2","","","","","","","","","","3"
"","","","","","","","","","","","html-keyboard-response","24","237871","0.0-24.0","null","null","","","","","","","","","","","","","","feedback","Thu Oct 16 2025 10:09:33 GMT-0400 (Eastern Daylight Time)","27580","0","2","","","","","","","","","",""
"","","","","","","","","","","","preload","25","237872","0.0-25.0","","","","","true","","","","","","","","","","","preload","","","0","3","false","[]","[]","[]","","","","","",""
"","","","","","","","","","","","canvas-keyboard-response","26","238175","0.0-26.0","null","null","","","","","","","","","","","","","","fixation","","","0","3","","","","","","","","","",""
"","","","","","","","","","","","canvas-keyboard-response","27","238478","0.0-27.0","null","null","","","","","","","","","","","","","","stimulus","","","0","3","","","","","","","","","",""
"","","","","","","","","","","","canvas-button-response","28","242119","0.0-28.0","3638","flower","","","","","","","","","","","","","","perceptual","","","0","3","","","","","52","flower","1","","1",""
"","","","","","","","","","","","canvas-button-response","29","243136","0.0-29.0","1014","7","","","","","","","","","","","","","","confidence","","","0","3","","","","","","","","","","4"
"","","","","","","","","","","","html-keyboard-response","30","244138","0.0-30.0","null","null","","","","","","","","","","","","","","feedback","Thu Oct 16 2025 10:09:39 GMT-0400 (Eastern Daylight Time)","27580","0","3","","","","","","","","","",""
"","","","","","","","","","","","preload","31","244139","0.0-31.0","","","","","true","","","","","","","","","","","preload","","","0","4","false","[]","[]","[]","","","","","",""
"","","","","","","","","","","","canvas-keyboard-response","32","244442","0.0-32.0","null","null","","","","","","","","","","","","","","fixation","","","0","4","","","","","","","","","",""
"","","","","","","","","","","","canvas-keyboard-response","33","244745","0.0-33.0","null","null","","","","","","","","","","","","","","stimulus","","","0","4","","","","","","","","","",""
"","","","","","","","","","","","canvas-button-response","34","246686","0.0-34.0","1937","train","","","","","","","","","","","","","","perceptual","","","0","4","","","","","62","train","1","","1",""
"","","","","","","","","","","","canvas-button-response","35","247186","0.0-35.0","498","10","","","","","","","","","","","","","","confidence","","","0","4","","","","","","","","","","5"
"","","","","","","","","","","","html-keyboard-response","36","248189","0.0-36.0","null","null","","","","","","","","","","","","","","feedback","Thu Oct 16 2025 10:09:43 GMT-0400 (Eastern Daylight Time)","27580","0","4","","","","","","","","","",""
"","","","","","","","","","","","preload","37","248190","0.0-37.0","","","","","true","","","","","","","","","","","preload","","","0","5","false","[]","[]","[]","","","","","",""
"","","","","","","","","","","","canvas-keyboard-response","38","248493","0.0-38.0","null","null","","","","","","","","","","","","","","fixation","","","0","5","","","","","","","","","",""
"","","","","","","","","","","","canvas-keyboard-response","39","248795","0.0-39.0","null","null","","","","","","","","","","","","","","stimulus","","","0","5","","","","","","","","","",""
"","","","","","","","","","","","canvas-button-response","40","251186","0.0-40.0","2388","phone","","","","","","","","","","","","","","perceptual","","","0","5","","","","","22","phone","1","","1",""
"","","","","","","","","","","","canvas-button-response","41","252120","0.0-41.0","931","10","","","","","","","","","","","","","","confidence","","","0","5","","","","","","","","","","6"
"","","","","","","","","","","","html-keyboard-response","42","253122","0.0-42.0","null","null","","","","","","","","","","","","","","feedback","Thu Oct 16 2025 10:09:48 GMT-0400 (Eastern Daylight Time)","27580","0","5","","","","","","","","","",""
"","","","","","","","","","","","preload","43","253123","0.0-43.0","","","","","true","","","","","","","","","","","preload","","","0","6","false","[]","[]","[]","","","","","",""
"","","","","","","","","","","","canvas-keyboard-response","44","253426","0.0-44.0","null","null","","","","","","","","","","","","","","fixation","","","0","6","","","","","","","","","",""
"","","","","","","","","","","","canvas-keyboard-response","45","253729","0.0-45.0","null","null","","","","","","","","","","","","","","stimulus","","","0","6","","","","","","","","","",""
"","","","","","","","","","","","canvas-button-response","46","254469","0.0-46.0","737","cat","","","","","","","","","","","","","","perceptual","","","0","6","","","","","72","cat","1","","1",""
"","","","","","","","","","","","canvas-button-response","47","255036","0.0-47.0","565","10","","","","","","","","","","","","","","confidence","","","0","6","","","","","","","","","","7"
"","","","","","","","","","","","html-keyboard-response","48","256038","0.0-48.0","null","null","","","","","","","","","","","","","","feedback","Thu Oct 16 2025 10:09:51 GMT-0400 (Eastern Daylight Time)","27580","0","6","","","","","","","","","",""
"","","","","","","","","","","","preload","49","256040","0.0-49.0","","","","","true","","","","","","","","","","","preload","","","0","7","false","[]","[]","[]","","","","","",""
"","","","","","","","","","","","canvas-keyboard-response","50","256341","0.0-50.0","null","null","","","","","","","","","","","","","","fixation","","","0","7","","","","","","","","","",""
"","","","","","","","","","","","canvas-keyboard-response","51","256645","0.0-51.0","null","null","","","","","","","","","","","","","","stimulus","","","0","7","","","","","","","","","",""
"","","","","","","","","","","","canvas-button-response","52","260686","0.0-52.0","4039","elephant","","","","","","","","","","","","","","perceptual","","","0","7","","","","","82","elephant","1","","1",""
"","","","","","","","","","","","canvas-button-response","53","261786","0.0-53.0","1096","3","","","","","","","","","","","","","","confidence","","","0","7","","","","","","","","","","8"
"","","","","","","","","","","","html-keyboard-response","54","262788","0.0-54.0","null","null","","","","","","","","","","","","","","feedback","Thu Oct 16 2025 10:09:58 GMT-0400 (Eastern Daylight Time)","27580","0","7","","","","","","","","","",""
"","","","","","","","","","","","preload","55","262789","0.0-55.0","","","","","true","","","","","","","","","","","preload","","","0","8","false","[]","[]","[]","","","","","",""
"","","","","","","","","","","","canvas-keyboard-response","56","263092","0.0-56.0","null","null","","","","","","","","","","","","","","fixation","","","0","8","","","","","","","","","",""
"","","","","","","","","","","","canvas-keyboard-response","57","263393","0.0-57.0","null","null","","","","","","","","","","","","","","stimulus","","","0","8","","","","","","","","","",""
"","","","","","","","","","","","canvas-button-response","58","264436","0.0-58.0","1040","house","","","","","","","","","","","","","","perceptual","","","0","8","","","","","2","house","1","","1",""
"","","","","","","","","","","","canvas-button-response","59","265102","0.0-59.0","664","10","","","","","","","","","","","","","","confidence","","","0","8","","","","","","","","","","9"
"","","","","","","","","","","","html-keyboard-response","60","266106","0.0-60.0","null","null","","","","","","","","","","","","","","feedback","Thu Oct 16 2025 10:10:01 GMT-0400 (Eastern Daylight Time)","27580","0","8","","","","","","","","","",""
"","","","","","","","","","","","preload","61","266107","0.0-61.0","","","","","true","","","","","","","","","","","preload","","","0","9","false","[]","[]","[]","","","","","",""
"","","","","","","","","","","","canvas-keyboard-response","62","266410","0.0-62.0","null","null","","","","","","","","","","","","","","fixation","","","0","9","","","","","","","","","",""
"","","","","","","","","","","","canvas-keyboard-response","63","266712","0.0-63.0","null","null","","","","","","","","","","","","","","stimulus","","","0","9","","","","","","","","","",""
"","","","","","","","","","","","canvas-button-response","64","267552","0.0-64.0","837","car","","","","","","","","","","","","","","perceptual","","","0","9","","","","","12","car","1","","1",""
"","","","","","","","","","","","canvas-button-response","65","268168","0.0-65.0","614","10","","","","","","","","","","","","","","confidence","","","0","9","","","","","","","","","","10"
"","","","","","","","","","","","html-keyboard-response","66","269170","0.0-66.0","null","null","","","","","","","","","","","","","","feedback","Thu Oct 16 2025 10:10:04 GMT-0400 (Eastern Daylight Time)","27580","0","9","","","","","","","","","",""
"","","","","","","","","","","","html-button-response","67","295802","0.0-67.0","26630","0","","","","","","","","","","","","","","start_practice","Thu Oct 16 2025 10:10:05 GMT-0400 (Eastern Daylight Time)","27580","0","9","","","","","","","","","",""
"","","","","","","","","","","","preload","68","295804","0.0-68.0","","","","","true","","","","","","","","","","","preload","","","1","0","false","[]","[]","[]","","","","","",""
"","","","","","","","","","","","canvas-keyboard-response","69","296106","0.0-69.0","null","null","","","","","","","","","","","","","","fixation","","","1","0","","","","","","","","","",""
"","","","","","","","","","","","canvas-keyboard-response","70","296409","0.0-70.0","null","null","","","","","","","","","","","","","","stimulus","","","1","0","","","","","","","","","",""
"","","","","","","","","","","","canvas-button-response","71","306102","0.0-71.0","9690","elephant","","","","","","","","","","","","","","perceptual","","","1","0","","","","","77","cat","10","","0",""
"","","","","","","","","","","","canvas-button-response","72","307285","0.0-72.0","1180","2","","","","","","","","","","","","","","confidence","","","1","0","","","","","","","","","","0"
"","","","","","","","","","","","html-keyboard-response","73","308288","0.0-73.0","null","null","","","","","","","","","","","","","","feedback","Thu Oct 16 2025 10:10:43 GMT-0400 (Eastern Daylight Time)","27580","1","0","","","","","","","","","",""
"","","","","","","","","","","","preload","74","308289","0.0-74.0","","","","","true","","","","","","","","","","","preload","","","1","1","false","[]","[]","[]","","","","","",""
"","","","","","","","","","","","canvas-keyboard-response","75","308592","0.0-75.0","null","null","","","","","","","","","","","","","","fixation","","","1","1","","","","","","","","","",""
"","","","","","","","","","","","canvas-keyboard-response","76","308895","0.0-76.0","null","null","","","","","","","","","","","","","","stimulus","","","1","1","","","","","","","","","",""
"","","","","","","","","","","","canvas-button-response","77","311985","0.0-77.0","3088","train","","","","","","","","","","","","","","perceptual","","","1","1","","","","","67","train","10","","1",""
"","","","","","","","","","","","canvas-button-response","78","312369","0.0-78.0","381","9","","","","","","","","","","","","","","confidence","","","1","1","","","","","","","","","","1"
"","","","","","","","","","","","html-keyboard-response","79","313372","0.0-79.0","null","null","","","","","","","","","","","","","","feedback","Thu Oct 16 2025 10:10:49 GMT-0400 (Eastern Daylight Time)","27580","1","1","","","","","","","","","",""
"","","","","","","","","","","","preload","80","313374","0.0-80.0","","","","","true","","","","","","","","","","","preload","","","1","2","false","[]","[]","[]","","","","","",""
"","","","","","","","","","","","canvas-keyboard-response","81","313677","0.0-81.0","null","null","","","","","","","","","","","","","","fixation","","","1","2","","","","","","","","","",""
"","","","","","","","","","","","canvas-keyboard-response","82","313980","0.0-82.0","null","null","","","","","","","","","","","","","","stimulus","","","1","2","","","","","","","","","",""
"","","","","","","","","","","","canvas-button-response","83","316418","0.0-83.0","2435","flower","","","","","","","","","","","","","","perceptual","","","1","2","","","","","87","elephant","10","","0",""
"","","","","","","","","","","","canvas-button-response","84","317385","0.0-84.0","964","3","","","","","","","","","","","","","","confidence","","","1","2","","","","","","","","","","1"
"","","","","","","","","","","","html-keyboard-response","85","318387","0.0-85.0","null","null","","","","","","","","","","","","","","feedback","Thu Oct 16 2025 10:10:54 GMT-0400 (Eastern Daylight Time)","27580","1","2","","","","","","","","","",""
"","","","","","","","","","","","preload","86","318389","0.0-86.0","","","","","true","","","","","","","","","","","preload","","","1","3","false","[]","[]","[]","","","","","",""
"","","","","","","","","","","","canvas-keyboard-response","87","318692","0.0-87.0","null","null","","","","","","","","","","","","","","fixation","","","1","3","","","","","","","","","",""
"","","","","","","","","","","","canvas-keyboard-response","88","318994","0.0-88.0","null","null","","","","","","","","","","","","","","stimulus","","","1","3","","","","","","","","","",""
"","","","","","","","","","","","canvas-button-response","89","319969","0.0-89.0","971","elephant","","","","","","","","","","","","","","perceptual","","","1","3","","","","","84","elephant","6","","1",""
"","","","","","","","","","","","canvas-button-response","90","320785","0.0-90.0","813","9","","","","","","","","","","","","","","confidence","","","1","3","","","","","","","","","","2"
"","","","","","","","","","","","html-keyboard-response","91","321788","0.0-91.0","null","null","","","","","","","","","","","","","","feedback","Thu Oct 16 2025 10:10:57 GMT-0400 (Eastern Daylight Time)","27580","1","3","","","","","","","","","",""
"","","","","","","","","","","","preload","92","321790","0.0-92.0","","","","","true","","","","","","","","","","","preload","","","1","4","false","[]","[]","[]","","","","","",""
"","","","","","","","","","","","canvas-keyboard-response","93","322093","0.0-93.0","null","null","","","","","","","","","","","","","","fixation","","","1","4","","","","","","","","","",""
"","","","","","","","","","","","canvas-keyboard-response","94","322396","0.0-94.0","null","null","","","","","","","","","","","","","","stimulus","","","1","4","","","","","","","","","",""
"","","","","","","","","","","","canvas-button-response","95","323417","0.0-95.0","1019","phone","","","","","","","","","","","","","","perceptual","","","1","4","","","","","47","bridge","10","","0",""
"","","","","","","","","","","","canvas-button-response","96","324618","0.0-96.0","1199","0","","","","","","","","","","","","","","confidence","","","1","4","","","","","","","","","","2"
"","","","","","","","","","","","html-keyboard-response","97","325621","0.0-97.0","null","null","","","","","","","","","","","","","","feedback","Thu Oct 16 2025 10:11:01 GMT-0400 (Eastern Daylight Time)","27580","1","4","","","","","","","","","",""
"","","","","","","","","","","","preload","98","325622","0.0-98.0","","","","","true","","","","","","","","","","","preload","","","1","5","false","[]","[]","[]","","","","","",""
"","","","","","","","","","","","canvas-keyboard-response","99","325924","0.0-99.0","null","null","","","","","","","","","","","","","","fixation","","","1","5","","","","","","","","","",""
"","","","","","","","","","","","canvas-keyboard-response","100","326226","0.0-100.0","null","null","","","","","","","","","","","","","","stimulus","","","1","5","","","","","","","","","",""
"","","","","","","","","","","","canvas-button-response","101","328668","0.0-101.0","2439","knife","","","","","","","","","","","","","","perceptual","","","1","5","","","","","94","knife","6","","1",""
"","","","","","","","","","","","canvas-button-response","102","329235","0.0-102.0","565","5","","","","","","","","","","","","","","confidence","","","1","5","","","","","","","","","","3"
"","","","","","","","","","","","html-keyboard-response","103","330237","0.0-103.0","null","null","","","","","","","","","","","","","","feedback","Thu Oct 16 2025 10:11:05 GMT-0400 (Eastern Daylight Time)","27580","1","5","","","","","","","","","",""
"","","","","","","","","","","","preload","104","330239","0.0-104.0","","","","","true","","","","","","","","","","","preload","","","1","6","false","[]","[]","[]","","","","","",""
"","","","","","","","","","","","canvas-keyboard-response","105","330542","0.0-105.0","null","null","","","","","","","","","","","","","","fixation","","","1","6","","","","","","","","","",""
"","","","","","","","","","","","canvas-keyboard-response","106","330845","0.0-106.0","null","null","","","","","","","","","","","","","","stimulus","","","1","6","","","","","","","","","",""
"","","","","","","","","","","","canvas-button-response","107","332318","0.0-107.0","1471","house","","","","","","","","","","","","","","perceptual","","","1","6","","","","","44","bridge","6","","0",""
"","","","","","","","","","","","canvas-button-response","108","333085","0.0-108.0","764","1","","","","","","","","","","","","","","confidence","","","1","6","","","","","","","","","","3"
"","","","","","","","","","","","html-keyboard-response","109","334088","0.0-109.0","null","null","","","","","","","","","","","","","","feedback","Thu Oct 16 2025 10:11:09 GMT-0400 (Eastern Daylight Time)","27580","1","6","","","","","","","","","",""
"","","","","","","","","","","","preload","110","334089","0.0-110.0","","","","","true","","","","","","","","","","","preload","","","1","7","false","[]","[]","[]","","","","","",""
"","","","","","","","","","","","canvas-keyboard-response","111","334390","0.0-111.0","null","null","","","","","","","","","","","","","","fixation","","","1","7","","","","","","","","","",""
"","","","","","","","","","","","canvas-keyboard-response","112","334693","0.0-112.0","null","null","","","","","","","","","","","","","","stimulus","","","1","7","","","","","","","","","",""
"","","","","","","","","","","","canvas-button-response","113","335684","0.0-113.0","988","phone","","","","","","","","","","","","","","perceptual","","","1","7","","","","","24","phone","6","","1",""
"","","","","","","","","","","","canvas-button-response","114","336067","0.0-114.0","382","7","","","","","","","","","","","","","","confidence","","","1","7","","","","","","","","","","4"
"","","","","","","","","","","","html-keyboard-response","115","337069","0.0-115.0","null","null","","","","","","","","","","","","","","feedback","Thu Oct 16 2025 10:11:12 GMT-0400 (Eastern Daylight Time)","27580","1","7","","","","","","","","","",""
"","","","","","","","","","","","preload","116","337071","0.0-116.0","","","","","true","","","","","","","","","","","preload","","","1","8","false","[]","[]","[]","","","","","",""
"","","","","","","","","","","","canvas-keyboard-response","117","337373","0.0-117.0","null","null","","","","","","","","","","","","","","fixation","","","1","8","","","","","","","","","",""
"","","","","","","","","","","","canvas-keyboard-response","118","337676","0.0-118.0","null","null","","","","","","","","","","","","","","stimulus","","","1","8","","","","","","","","","",""
"","","","","","","","","","","","canvas-button-response","119","340217","0.0-119.0","2539","car","","","","","","","","","","","","","","perceptual","","","1","8","","","","","14","car","6","","1",""
"","","","","","","","","","","","canvas-button-response","120","341184","0.0-120.0","965","5","","","","","","","","","","","","","","confidence","","","1","8","","","","","","","","","","5"
"","","","","","","","","","","","html-keyboard-response","121","342186","0.0-121.0","null","null","","","","","","","","","","","","","","feedback","Thu Oct 16 2025 10:11:17 GMT-0400 (Eastern Daylight Time)","27580","1","8","","","","","","","","","",""
"","","","","","","","","","","","preload","122","342187","0.0-122.0","","","","","true","","","","","","","","","","","preload","","","1","9","false","[]","[]","[]","","","","","",""
"","","","","","","","","","","","canvas-keyboard-response","123","342490","0.0-123.0","null","null","","","","","","","","","","","","","","fixation","","","1","9","","","","","","","","","",""
"","","","","","","","","","","","canvas-keyboard-response","124","342793","0.0-124.0","null","null","","","","","","","","","","","","","","stimulus","","","1","9","","","","","","","","","",""
"","","","","","","","","","","","canvas-button-response","125","343852","0.0-125.0","1056","bed","","","","","","","","","","","","","","perceptual","","","1","9","","","","","37","bed","10","","1",""
"","","","","","","","","","","","canvas-button-response","126","344584","0.0-126.0","730","1","","","","","","","","","","","","","","confidence","","","1","9","","","","","","","","","","6"
"","","","","","","","","","","","html-keyboard-response","127","345587","0.0-127.0","null","null","","","","","","","","","","","","","","feedback","Thu Oct 16 2025 10:11:21 GMT-0400 (Eastern Daylight Time)","27580","1","9","","","","","","","","","",""
"","","","","","","","","","","","preload","128","345589","0.0-128.0","","","","","true","","","","","","","","","","","preload","","","1","10","false","[]","[]","[]","","","","","",""
"","","","","","","","","","","","canvas-keyboard-response","129","345891","0.0-129.0","null","null","","","","","","","","","","","","","","fixation","","","1","10","","","","","","","","","",""
"","","","","","","","","","","","canvas-keyboard-response","130","346193","0.0-130.0","null","null","","","","","","","","","","","","","","stimulus","","","1","10","","","","","","","","","",""
"","","","","","","","","","","","canvas-button-response","131","346917","0.0-131.0","722","flower","","","","","","","","","","","","","","perceptual","","","1","10","","","","","17","car","10","","0",""
"","","","","","","","","","","","canvas-button-response","132","348002","0.0-132.0","1081","1","","","","","","","","","","","","","","confidence","","","1","10","","","","","","","","","","6"
"","","","","","","","","","","","html-keyboard-response","133","349005","0.0-133.0","null","null","","","","","","","","","","","","","","feedback","Thu Oct 16 2025 10:11:24 GMT-0400 (Eastern Daylight Time)","27580","1","10","","","","","","","","","",""
"","","","","","","","","","","","preload","134","349007","0.0-134.0","","","","","true","","","","","","","","","","","preload","","","1","11","false","[]","[]","[]","","","","","",""
"","","","","","","","","","","","canvas-keyboard-response","135","349310","0.0-135.0","null","null","","","","","","","","","","","","","","fixation","","","1","11","","","","","","","","","",""
"","","","","","","","","","","","canvas-keyboard-response","136","349613","0.0-136.0","null","null","","","","","","","","","","","","","","stimulus","","","1","11","","","","","","","","","",""
"","","","","","","","","","","","canvas-button-response","137","350584","0.0-137.0","969","knife","","","","","","","","","","","","","","perceptual","","","1","11","","","","","97","knife","10","","1",""
"","","","","","","","","","","","canvas-button-response","138","351385","0.0-138.0","798","10","","","","","","","","","","","","","","confidence","","","1","11","","","","","","","","","","7"
"","","","","","","","","","","","html-keyboard-response","139","352388","0.0-139.0","null","null","","","","","","","","","","","","","","feedback","Thu Oct 16 2025 10:11:28 GMT-0400 (Eastern Daylight Time)","27580","1","11","","","","","","","","","",""
"","","","","","","","","","","","preload","140","352389","0.0-140.0","","","","","true","","","","","","","","","","","preload","","","1","12","false","[]","[]","[]","","","","","",""
"","","","","","","","","","","","canvas-keyboard-response","141","352692","0.0-141.0","null","null","","","","","","","","","","","","","","fixation","","","1","12","","","","","","","","","",""
"","","","","","","","","","","","canvas-keyboard-response","142","352995","0.0-142.0","null","null","","","","","","","","","","","","","","stimulus","","","1","12","","","","","","","","","",""
"","","","","","","","","","","","canvas-button-response","143","354467","0.0-143.0","1469","bed","","","","","","","","","","","","","","perceptual","","","1","12","","","","","34","bed","6","","1",""
"","","","","","","","","","","","canvas-button-response","144","355552","0.0-144.0","1083","6","","","","","","","","","","","","","","confidence","","","1","12","","","","","","","","","","8"
"","","","","","","","","","","","html-keyboard-response","145","356554","0.0-145.0","null","null","","","","","","","","","","","","","","feedback","Thu Oct 16 2025 10:11:32 GMT-0400 (Eastern Daylight Time)","27580","1","12","","","","","","","","","",""
"","","","","","","","","","","","preload","146","356555","0.0-146.0","","","","","true","","","","","","","","","","","preload","","","1","13","false","[]","[]","[]","","","","","",""
"","","","","","","","","","","","canvas-keyboard-response","147","356857","0.0-147.0","null","null","","","","","","","","","","","","","","fixation","","","1","13","","","","","","","","","",""
"","","","","","","","","","","","canvas-keyboard-response","148","357160","0.0-148.0","null","null","","","","","","","","","","","","","","stimulus","","","1","13","","","","","","","","","",""
"","","","","","","","","","","","canvas-button-response","149","357817","0.0-149.0","655","car","","","","","","","","","","","","","","perceptual","","","1","13","","","","","54","flower","6","","0",""
"","","","","","","","","","","","canvas-button-response","150","358584","0.0-150.0","765","1","","","","","","","","","","","","","","confidence","","","1","13","","","","","","","","","","8"
"","","","","","","","","","","","html-keyboard-response","151","359586","0.0-151.0","null","null","","","","","","","","","","","","","","feedback","Thu Oct 16 2025 10:11:35 GMT-0400 (Eastern Daylight Time)","27580","1","13","","","","","","","","","",""
"","","","","","","","","","","","preload","152","359587","0.0-152.0","","","","","true","","","","","","","","","","","preload","","","1","14","false","[]","[]","[]","","","","","",""
"","","","","","","","","","","","canvas-keyboard-response","153","359889","0.0-153.0","null","null","","","","","","","","","","","","","","fixation","","","1","14","","","","","","","","","",""
"","","","","","","","","","","","canvas-keyboard-response","154","360192","0.0-154.0","null","null","","","","","","","","","","","","","","stimulus","","","1","14","","","","","","","","","",""
"","","","","","","","","","","","canvas-button-response","155","361234","0.0-155.0","1039","phone","","","","","","","","","","","","","","perceptual","","","1","14","","","","","27","phone","10","","1",""
"","","","","","","","","","","","canvas-button-response","156","361651","0.0-156.0","415","6","","","","","","","","","","","","","","confidence","","","1","14","","","","","","","","","","9"
"","","","","","","","","","","","html-keyboard-response","157","362654","0.0-157.0","null","null","","","","","","","","","","","","","","feedback","Thu Oct 16 2025 10:11:38 GMT-0400 (Eastern Daylight Time)","27580","1","14","","","","","","","","","",""
"","","","","","","","","","","","preload","158","362655","0.0-158.0","","","","","true","","","","","","","","","","","preload","","","1","15","false","[]","[]","[]","","","","","",""
"","","","","","","","","","","","canvas-keyboard-response","159","362958","0.0-159.0","null","null","","","","","","","","","","","","","","fixation","","","1","15","","","","","","","","","",""
"","","","","","","","","","","","canvas-keyboard-response","160","363261","0.0-160.0","null","null","","","","","","","","","","","","","","stimulus","","","1","15","","","","","","","","","",""
"","","","","","","","","","","","canvas-button-response","161","364434","0.0-161.0","1170","house","","","","","","","","","","","","","","perceptual","","","1","15","","","","","4","house","6","","1",""
"","","","","","","","","","","","canvas-button-response","162","365051","0.0-162.0","615","10","","","","","","","","","","","","","","confidence","","","1","15","","","","","","","","","","10"
"","","","","","","","","","","","html-keyboard-response","163","366053","0.0-163.0","null","null","","","","","","","","","","","","","","feedback","Thu Oct 16 2025 10:11:41 GMT-0400 (Eastern Daylight Time)","27580","1","15","","","","","","","","","",""
"","","","","","","","","","","","preload","164","366055","0.0-164.0","","","","","true","","","","","","","","","","","preload","","","1","16","false","[]","[]","[]","","","","","",""
"","","","","","","","","","","","canvas-keyboard-response","165","366358","0.0-165.0","null","null","","","","","","","","","","","","","","fixation","","","1","16","","","","","","","","","",""
"","","","","","","","","","","","canvas-keyboard-response","166","366661","0.0-166.0","null","null","","","","","","","","","","","","","","stimulus","","","1","16","","","","","","","","","",""
"","","","","","","","","","","","canvas-button-response","167","367802","0.0-167.0","1138","car","","","","","","","","","","","","","","perceptual","","","1","16","","","","","74","cat","6","","0",""
"","","","","","","","","","","","canvas-button-response","168","368218","0.0-168.0","413","5","","","","","","","","","","","","","","confidence","","","1","16","","","","","","","","","","10"
"","","","","","","","","","","","html-keyboard-response","169","369221","0.0-169.0","null","null","","","","","","","","","","","","","","feedback","Thu Oct 16 2025 10:11:44 GMT-0400 (Eastern Daylight Time)","27580","1","16","","","","","","","","","",""
"","","","","","","","","","","","preload","170","369222","0.0-170.0","","","","","true","","","","","","","","","","","preload","","","1","17","false","[]","[]","[]","","","","","",""
"","","","","","","","","","","","canvas-keyboard-response","171","369524","0.0-171.0","null","null","","","","","","","","","","","","","","fixation","","","1","17","","","","","","","","","",""
"","","","","","","","","","","","canvas-keyboard-response","172","369827","0.0-172.0","null","null","","","","","","","","","","","","","","stimulus","","","1","17","","","","","","","","","",""
"","","","","","","","","","","","canvas-button-response","173","370801","0.0-173.0","971","house","","","","","","","","","","","","","","perceptual","","","1","17","","","","","7","house","10","","1",""
"","","","","","","","","","","","canvas-button-response","174","371251","0.0-174.0","448","5","","","","","","","","","","","","","","confidence","","","1","17","","","","","","","","","","11"
"","","","","","","","","","","","html-keyboard-response","175","372253","0.0-175.0","null","null","","","","","","","","","","","","","","feedback","Thu Oct 16 2025 10:11:47 GMT-0400 (Eastern Daylight Time)","27580","1","17","","","","","","","","","",""
"","","","","","","","","","","","preload","176","372254","0.0-176.0","","","","","true","","","","","","","","","","","preload","","","1","18","false","[]","[]","[]","","","","","",""
"","","","","","","","","","","","canvas-keyboard-response","177","372558","0.0-177.0","null","null","","","","","","","","","","","","","","fixation","","","1","18","","","","","","","","","",""
"","","","","","","","","","","","canvas-keyboard-response","178","372861","0.0-178.0","null","null","","","","","","","","","","","","","","stimulus","","","1","18","","","","","","","","","",""
"","","","","","","","","","","","canvas-button-response","179","374568","0.0-179.0","1703","train","","","","","","","","","","","","","","perceptual","","","1","18","","","","","64","train","6","","1",""
"","","","","","","","","","","","canvas-button-response","180","375134","0.0-180.0","564","10","","","","","","","","","","","","","","confidence","","","1","18","","","","","","","","","","12"
"","","","","","","","","","","","html-keyboard-response","181","376136","0.0-181.0","null","null","","","","","","","","","","","","","","feedback","Thu Oct 16 2025 10:11:51 GMT-0400 (Eastern Daylight Time)","27580","1","18","","","","","","","","","",""
"","","","","","","","","","","","preload","182","376138","0.0-182.0","","","","","true","","","","","","","","","","","preload","","","1","19","false","[]","[]","[]","","","","","",""
"","","","","","","","","","","","canvas-keyboard-response","183","376441","0.0-183.0","null","null","","","","","","","","","","","","","","fixation","","","1","19","","","","","","","","","",""
"","","","","","","","","","","","canvas-keyboard-response","184","376744","0.0-184.0","null","null","","","","","","","","","","","","","","stimulus","","","1","19","","","","","","","","","",""
"","","","","","","","","","","","canvas-button-response","185","378301","0.0-185.0","1554","flower","","","","","","","","","","","","","","perceptual","","","1","19","","","","","57","flower","10","","1",""
"","","","","","","","","","","","canvas-button-response","186","378917","0.0-186.0","614","9","","","","","","","","","","","","","","confidence","","","1","19","","","","","","","","","","13"
"","","","","","","","","","","","html-keyboard-response","187","379920","0.0-187.0","null","null","","","","","","","","","","","","","","feedback","Thu Oct 16 2025 10:11:55 GMT-0400 (Eastern Daylight Time)","27580","1","19","","","","","","","","","",""
"","","","","","","","","","","","html-button-response","188","390052","0.0-188.0","10129","0","","","","","","","","","","","","","","start experiment","Thu Oct 16 2025 10:11:56 GMT-0400 (Eastern Daylight Time)","27580","1","19","","","","","","","","","",""
"","","","","","","","","","","","preload","189","390053","0.0-189.0","","","","","true","","","","","","","","","","","preload","","","2","0","false","[]","[]","[]","","","","","",""
"","","","","","","","","","","","canvas-keyboard-response","190","390355","0.0-190.0","null","null","","","","","","","","","","","","","","fixation","","","2","0","","","","","","","","","",""
"","","","","","","","","","","","canvas-keyboard-response","191","390658","0.0-191.0","null","null","","","","","","","","","","","","","","stimulus","","","2","0","","","","","","","","","",""
"","","","","","","","","","","","canvas-button-response","192","391634","0.0-192.0","974","knife","","","","","","","","","","","","","","perceptual","","","2","0","","","","","281","cat","6","0","0",""
"","","","","","","","","","","","canvas-button-response","193","392735","0.0-193.0","1098","1","","","","","","","","","","","","","","confidence","","","2","0","","","","","","","","","","0"
"","","","","","","","","","","","preload","194","392736","0.0-194.0","","","","","true","","","","","","","","","","","preload","","","2","1","false","[]","[]","[]","","","","","",""
"","","","","","","","","","","","canvas-keyboard-response","195","393039","0.0-195.0","null","null","","","","","","","","","","","","","","fixation","","","2","1","","","","","","","","","",""
"","","","","","","","","","","","canvas-keyboard-response","196","393342","0.0-196.0","null","null","","","","","","","","","","","","","","stimulus","","","2","1","","","","","","","","","",""
"","","","","","","","","","","","canvas-button-response","197","395234","0.0-197.0","1890","house","","","","","","","","","","","","","","perceptual","","","2","1","","","","","160","bridge","6","0","0",""
"","","","","","","","","","","","canvas-button-response","198","395768","0.0-198.0","531","1","","","","","","","","","","","","","","confidence","","","2","1","","","","","","","","","","0"
"","","","","","","","","","","","preload","199","395769","0.0-199.0","","","","","true","","","","","","","","","","","preload","","","2","2","false","[]","[]","[]","","","","","",""
"","","","","","","","","","","","canvas-keyboard-response","200","396071","0.0-200.0","null","null","","","","","","","","","","","","","","fixation","","","2","2","","","","","","","","","",""
"","","","","","","","","","","","canvas-keyboard-response","201","396373","0.0-201.0","null","null","","","","","","","","","","","","","","stimulus","","","2","2","","","","","","","","","",""
"","","","","","","","","","","","canvas-button-response","202","399167","0.0-202.0","2791","knife","","","","","","","","","","","","","","perceptual","","","2","2","","","","","104","phone","10","0","0",""
"","","","","","","","","","","","canvas-button-response","203","400284","0.0-203.0","1114","2","","","","","","","","","","","","","","confidence","","","2","2","","","","","","","","","","0"
"","","","","","","","","","","","preload","204","400285","0.0-204.0","","","","","true","","","","","","","","","","","preload","","","2","3","false","[]","[]","[]","","","","","",""
"","","","","","","","","","","","canvas-keyboard-response","205","400588","0.0-205.0","null","null","","","","","","","","","","","","","","fixation","","","2","3","","","","","","","","","",""
"","","","","","","","","","","","canvas-keyboard-response","206","400891","0.0-206.0","null","null","","","","","","","","","","","","","","stimulus","","","2","3","","","","","","","","","",""
"","","","","","","","","","","","canvas-button-response","207","403000","0.0-207.0","2107","phone","","","","","","","","","","","","","","perceptual","","","2","3","","","","","89","phone","6","0","1",""
"","","","","","","","","","","","canvas-button-response","208","403700","0.0-208.0","698","4","","","","","","","","","","","","","","confidence","","","2","3","","","","","","","","","","1"
"","","","","","","","","","","","preload","209","403702","0.0-209.0","","","","","true","","","","","","","","","","","preload","","","2","4","false","[]","[]","[]","","","","","",""
"","","","","","","","","","","","canvas-keyboard-response","210","404004","0.0-210.0","null","null","","","","","","","","","","","","","","fixation","","","2","4","","","","","","","","","",""
"","","","","","","","","","","","canvas-keyboard-response","211","404307","0.0-211.0","null","null","","","","","","","","","","","","","","stimulus","","","2","4","","","","","","","","","",""
"","","","","","","","","","","","canvas-button-response","212","405151","0.0-212.0","841","knife","","","","","","","","","","","","","","perceptual","","","2","4","","","","","373","knife","6","0","1",""
"","","","","","","","","","","","canvas-button-response","213","405567","0.0-213.0","414","4","","","","","","","","","","","","","","confidence","","","2","4","","","","","","","","","","2"
"","","","","","","","","","","","preload","214","405567","0.0-214.0","","","","","true","","","","","","","","","","","preload","","","2","5","false","[]","[]","[]","","","","","",""
"","","","","","","","","","","","canvas-keyboard-response","215","405870","0.0-215.0","null","null","","","","","","","","","","","","","","fixation","","","2","5","","","","","","","","","",""
"","","","","","","","","","","","canvas-keyboard-response","216","406172","0.0-216.0","null","null","","","","","","","","","","","","","","stimulus","","","2","5","","","","","","","","","",""
"","","","","","","","","","","","canvas-button-response","217","407316","0.0-217.0","1142","house","","","","","","","","","","","","","","perceptual","","","2","5","","","","","314","cat","10","0","0",""
"","","","","","","","","","","","canvas-button-response","218","408352","0.0-218.0","1033","1","","","","","","","","","","","","","","confidence","","","2","5","","","","","","","","","","2"
"","","","","","","","","","","","preload","219","408353","0.0-219.0","","","","","true","","","","","","","","","","","preload","","","2","6","false","[]","[]","[]","","","","","",""
"","","","","","","","","","","","canvas-keyboard-response","220","408655","0.0-220.0","null","null","","","","","","","","","","","","","","fixation","","","2","6","","","","","","","","","",""
"","","","","","","","","","","","canvas-keyboard-response","221","408958","0.0-221.0","null","null","","","","","","","","","","","","","","stimulus","","","2","6","","","","","","","","","",""
"","","","","","","","","","","","canvas-button-response","222","411801","0.0-222.0","2840","phone","","","","","","","","","","","","","","perceptual","","","2","6","","","","","94","phone","6","0","1",""
"","","","","","","","","","","","canvas-button-response","223","412451","0.0-223.0","647","5","","","","","","","","","","","","","","confidence","","","2","6","","","","","","","","","","3"
"","","","","","","","","","","","preload","224","412451","0.0-224.0","","","","","true","","","","","","","","","","","preload","","","2","7","false","[]","[]","[]","","","","","",""
"","","","","","","","","","","","canvas-keyboard-response","225","412754","0.0-225.0","null","null","","","","","","","","","","","","","","fixation","","","2","7","","","","","","","","","",""
"","","","","","","","","","","","canvas-keyboard-response","226","413056","0.0-226.0","null","null","","","","","","","","","","","","","","stimulus","","","2","7","","","","","","","","","",""
"","","","","","","","","","","","canvas-button-response","227","414617","0.0-227.0","1558","bridge","","","","","","","","","","","","","","perceptual","","","2","7","","","","","161","bridge","6","0","1",""
"","","","","","","","","","","","canvas-button-response","228","415467","0.0-228.0","847","6","","","","","","","","","","","","","","confidence","","","2","7","","","","","","","","","","4"
"","","","","","","","","","","","preload","229","415468","0.0-229.0","","","","","true","","","","","","","","","","","preload","","","2","8","false","[]","[]","[]","","","","","",""
"","","","","","","","","","","","canvas-keyboard-response","230","415770","0.0-230.0","null","null","","","","","","","","","","","","","","fixation","","","2","8","","","","","","","","","",""
"","","","","","","","","","","","canvas-keyboard-response","231","416072","0.0-231.0","null","null","","","","","","","","","","","","","","stimulus","","","2","8","","","","","","","","","",""
"","","","","","","","","","","","canvas-button-response","232","417385","0.0-232.0","1309","flower","","","","","","","","","","","","","","perceptual","","","2","8","","","","","202","flower","6","0","1",""
"","","","","","","","","","","","canvas-button-response","233","418100","0.0-233.0","713","10","","","","","","","","","","","","","","confidence","","","2","8","","","","","","","","","","5"
"","","","","","","","","","","","preload","234","418100","0.0-234.0","","","","","true","","","","","","","","","","","preload","","","2","9","false","[]","[]","[]","","","","","",""
"","","","","","","","","","","","canvas-keyboard-response","235","418403","0.0-235.0","null","null","","","","","","","","","","","","","","fixation","","","2","9","","","","","","","","","",""
"","","","","","","","","","","","canvas-keyboard-response","236","418706","0.0-236.0","null","null","","","","","","","","","","","","","","stimulus","","","2","9","","","","","","","","","",""
"","","","","","","","","","","","canvas-button-response","237","420250","0.0-237.0","1541","train","","","","","","","","","","","","","","perceptual","","","2","9","","","","","392","knife","10","0","0",""
"","","","","","","","","","","","canvas-button-response","238","420684","0.0-238.0","432","8","","","","","","","","","","","","","","confidence","","","2","9","","","","","","","","","","5"
"","","","","","","","","","","","preload","239","420685","0.0-239.0","","","","","true","","","","","","","","","","","preload","","","2","10","false","[]","[]","[]","","","","","",""
"","","","","","","","","","","","canvas-keyboard-response","240","420987","0.0-240.0","null","null","","","","","","","","","","","","","","fixation","","","2","10","","","","","","","","","",""
"","","","","","","","","","","","canvas-keyboard-response","241","421290","0.0-241.0","null","null","","","","","","","","","","","","","","stimulus","","","2","10","","","","","","","","","",""
"","","","","","","","","","","","canvas-button-response","242","422883","0.0-242.0","1591","car","","","","","","","","","","","","","","perceptual","","","2","10","","","","","191","bridge","10","0","0",""
"","","","","","","","","","","","canvas-button-response","243","423534","0.0-243.0","648","3","","","","","","","","","","","","","","confidence","","","2","10","","","","","","","","","","5"
"","","","","","","","","","","","preload","244","423535","0.0-244.0","","","","","true","","","","","","","","","","","preload","","","2","11","false","[]","[]","[]","","","","","",""
"","","","","","","","","","","","canvas-keyboard-response","245","423837","0.0-245.0","null","null","","","","","","","","","","","","","","fixation","","","2","11","","","","","","","","","",""
"","","","","","","","","","","","canvas-keyboard-response","246","424140","0.0-246.0","null","null","","","","","","","","","","","","","","stimulus","","","2","11","","","","","","","","","",""
"","","","","","","","","","","","canvas-button-response","247","428115","0.0-247.0","3974","house","","","","","","","","","","","","","","perceptual","","","2","11","","","","","34","house","10","0","1",""
"","","","","","","","","","","","canvas-button-response","248","428750","0.0-248.0","633","1","","","","","","","","","","","","","","confidence","","","2","11","","","","","","","","","","6"
"","","","","","","","","","","","preload","249","428751","0.0-249.0","","","","","true","","","","","","","","","","","preload","","","2","12","false","[]","[]","[]","","","","","",""
"","","","","","","","","","","","canvas-keyboard-response","250","429053","0.0-250.0","null","null","","","","","","","","","","","","","","fixation","","","2","12","","","","","","","","","",""
"","","","","","","","","","","","canvas-keyboard-response","251","429356","0.0-251.0","null","null","","","","","","","","","","","","","","stimulus","","","2","12","","","","","","","","","",""
"","","","","","","","","","","","canvas-button-response","252","430550","0.0-252.0","1192","house","","","","","","","","","","","","","","perceptual","","","2","12","","","","","199","bridge","10","0","0",""
"","","","","","","","","","","","canvas-button-response","253","430917","0.0-253.0","364","4","","","","","","","","","","","","","","confidence","","","2","12","","","","","","","","","","6"
"","","","","","","","","","","","preload","254","430918","0.0-254.0","","","","","true","","","","","","","","","","","preload","","","2","13","false","[]","[]","[]","","","","","",""
"","","","","","","","","","","","canvas-keyboard-response","255","431220","0.0-255.0","null","null","","","","","","","","","","","","","","fixation","","","2","13","","","","","","","","","",""
"","","","","","","","","","","","canvas-keyboard-response","256","431523","0.0-256.0","null","null","","","","","","","","","","","","","","stimulus","","","2","13","","","","","","","","","",""
"","","","","","","","","","","","canvas-button-response","257","432717","0.0-257.0","1191","knife","","","","","","","","","","","","","","perceptual","","","2","13","","","","","369","knife","6","0","1",""
"","","","","","","","","","","","canvas-button-response","258","433584","0.0-258.0","864","1","","","","","","","","","","","","","","confidence","","","2","13","","","","","","","","","","7"
"","","","","","","","","","","","preload","259","433585","0.0-259.0","","","","","true","","","","","","","","","","","preload","","","2","14","false","[]","[]","[]","","","","","",""
"","","","","","","","","","","","canvas-keyboard-response","260","433887","0.0-260.0","null","null","","","","","","","","","","","","","","fixation","","","2","14","","","","","","","","","",""
"","","","","","","","","","","","canvas-keyboard-response","261","434189","0.0-261.0","null","null","","","","","","","","","","","","","","stimulus","","","2","14","","","","","","","","","",""
"","","","","","","","","","","","canvas-button-response","262","435601","0.0-262.0","1408","train","","","","","","","","","","","","","","perceptual","","","2","14","","","","","250","train","6","0","1",""
"","","","","","","","","","","","canvas-button-response","263","436050","0.0-263.0","447","7","","","","","","","","","","","","","","confidence","","","2","14","","","","","","","","","","8"
"","","","","","","","","","","","preload","264","436051","0.0-264.0","","","","","true","","","","","","","","","","","preload","","","2","15","false","[]","[]","[]","","","","","",""
"","","","","","","","","","","","canvas-keyboard-response","265","436353","0.0-265.0","null","null","","","","","","","","","","","","","","fixation","","","2","15","","","","","","","","","",""
"","","","","","","","","","","","canvas-keyboard-response","266","436655","0.0-266.0","null","null","","","","","","","","","","","","","","stimulus","","","2","15","","","","","","","","","",""
"","","","","","","","","","","","canvas-button-response","267","437450","0.0-267.0","792","house","","","","","","","","","","","","","","perceptual","","","2","15","","","","","288","cat","6","0","0",""
"","","","","","","","","","","","canvas-button-response","268","438100","0.0-268.0","648","1","","","","","","","","","","","","","","confidence","","","2","15","","","","","","","","","","8"
"","","","","","","","","","","","preload","269","438101","0.0-269.0","","","","","true","","","","","","","","","","","preload","","","2","16","false","[]","[]","[]","","","","","",""
"","","","","","","","","","","","canvas-keyboard-response","270","438404","0.0-270.0","null","null","","","","","","","","","","","","","","fixation","","","2","16","","","","","","","","","",""
"","","","","","","","","","","","canvas-keyboard-response","271","438707","0.0-271.0","null","null","","","","","","","","","","","","","","stimulus","","","2","16","","","","","","","","","",""
"","","","","","","","","","","","canvas-button-response","272","439433","0.0-272.0","723","house","","","","","","","","","","","","","","perceptual","","","2","16","","","","","14","house","6","0","1",""
"","","","","","","","","","","","canvas-button-response","273","440317","0.0-273.0","882","3","","","","","","","","","","","","","","confidence","","","2","16","","","","","","","","","","9"
"","","","","","","","","","","","preload","274","440318","0.0-274.0","","","","","true","","","","","","","","","","","preload","","","2","17","false","[]","[]","[]","","","","","",""
"","","","","","","","","","","","canvas-keyboard-response","275","440621","0.0-275.0","null","null","","","","","","","","","","","","","","fixation","","","2","17","","","","","","","","","",""
"","","","","","","","","","","","canvas-keyboard-response","276","440923","0.0-276.0","null","null","","","","","","","","","","","","","","stimulus","","","2","17","","","","","","","","","",""
"","","","","","","","","","","","canvas-button-response","277","441632","0.0-277.0","707","house","","","","","","","","","","","","","","perceptual","","","2","17","","","","","292","cat","6","0","0",""
"","","","","","","","","","","","canvas-button-response","278","442200","0.0-278.0","566","1","","","","","","","","","","","","","","confidence","","","2","17","","","","","","","","","","9"
"","","","","","","","","","","","preload","279","442200","0.0-279.0","","","","","true","","","","","","","","","","","preload","","","2","18","false","[]","[]","[]","","","","","",""
"","","","","","","","","","","","canvas-keyboard-response","280","442502","0.0-280.0","null","null","","","","","","","","","","","","","","fixation","","","2","18","","","","","","","","","",""
"","","","","","","","","","","","canvas-keyboard-response","281","442806","0.0-281.0","null","null","","","","","","","","","","","","","","stimulus","","","2","18","","","","","","","","","",""
"","","","","","","","","","","","canvas-button-response","282","443649","0.0-282.0","841","house","","","","","","","","","","","","","","perceptual","","","2","18","","","","","22","house","10","0","1",""
"","","","","","","","","","","","canvas-button-response","283","444067","0.0-283.0","416","4","","","","","","","","","","","","","","confidence","","","2","18","","","","","","","","","","10"
"","","","","","","","","","","","preload","284","444068","0.0-284.0","","","","","true","","","","","","","","","","","preload","","","2","19","false","[]","[]","[]","","","","","",""
"","","","","","","","","","","","canvas-keyboard-response","285","444371","0.0-285.0","null","null","","","","","","","","","","","","","","fixation","","","2","19","","","","","","","","","",""
"","","","","","","","","","","","canvas-keyboard-response","286","444674","0.0-286.0","null","null","","","","","","","","","","","","","","stimulus","","","2","19","","","","","","","","","",""
"","","","","","","","","","","","canvas-button-response","287","445617","0.0-287.0","940","train","","","","","","","","","","","","","","perceptual","","","2","19","","","","","242","train","6","0","1",""
"","","","","","","","","","","","canvas-button-response","288","446084","0.0-288.0","465","9","","","","","","","","","","","","","","confidence","","","2","19","","","","","","","","","","11"
"","","","","","","","","","","","preload","289","446086","0.0-289.0","","","","","true","","","","","","","","","","","preload","","","2","20","false","[]","[]","[]","","","","","",""
"","","","","","","","","","","","canvas-keyboard-response","290","446387","0.0-290.0","null","null","","","","","","","","","","","","","","fixation","","","2","20","","","","","","","","","",""
"","","","","","","","","","","","canvas-keyboard-response","291","446690","0.0-291.0","null","null","","","","","","","","","","","","","","stimulus","","","2","20","","","","","","","","","",""
"","","","","","","","","","","","canvas-button-response","292","448233","0.0-292.0","1541","flower","","","","","","","","","","","","","","perceptual","","","2","20","","","","","235","flower","10","0","1",""
"","","","","","","","","","","","canvas-button-response","293","448700","0.0-293.0","464","4","","","","","","","","","","","","","","confidence","","","2","20","","","","","","","","","","12"
"","","","","","","","","","","","preload","294","448701","0.0-294.0","","","","","true","","","","","","","","","","","preload","","","2","21","false","[]","[]","[]","","","","","",""
"","","","","","","","","","","","canvas-keyboard-response","295","449003","0.0-295.0","null","null","","","","","","","","","","","","","","fixation","","","2","21","","","","","","","","","",""
"","","","","","","","","","","","canvas-keyboard-response","296","449306","0.0-296.0","null","null","","","","","","","","","","","","","","stimulus","","","2","21","","","","","","","","","",""
"","","","","","","","","","","","canvas-button-response","297","450100","0.0-297.0","792","house","","","","","","","","","","","","","","perceptual","","","2","21","","","","","30","house","10","0","1",""
"","","","","","","","","","","","canvas-button-response","298","450685","0.0-298.0","581","5","","","","","","","","","","","","","","confidence","","","2","21","","","","","","","","","","13"
"","","","","","","","","","","","preload","299","450686","0.0-299.0","","","","","true","","","","","","","","","","","preload","","","2","22","false","[]","[]","[]","","","","","",""
"","","","","","","","","","","","canvas-keyboard-response","300","450989","0.0-300.0","null","null","","","","","","","","","","","","","","fixation","","","2","22","","","","","","","","","",""
"","","","","","","","","","","","canvas-keyboard-response","301","451292","0.0-301.0","null","null","","","","","","","","","","","","","","stimulus","","","2","22","","","","","","","","","",""
"","","","","","","","","","","","canvas-button-response","302","451984","0.0-302.0","689","house","","","","","","","","","","","","","","perceptual","","","2","22","","","","","300","cat","10","0","0",""
"","","","","","","","","","","","canvas-button-response","303","452584","0.0-303.0","597","1","","","","","","","","","","","","","","confidence","","","2","22","","","","","","","","","","13"
"","","","","","","","","","","","preload","304","452585","0.0-304.0","","","","","true","","","","","","","","","","","preload","","","2","23","false","[]","[]","[]","","","","","",""
"","","","","","","","","","","","canvas-keyboard-response","305","452887","0.0-305.0","null","null","","","","","","","","","","","","","","fixation","","","2","23","","","","","","","","","",""
"","","","","","","","","","","","canvas-keyboard-response","306","453190","0.0-306.0","null","null","","","","","","","","","","","","","","stimulus","","","2","23","","","","","","","","","",""
"","","","","","","","","","","","canvas-button-response","307","454100","0.0-307.0","907","car","","","","","","","","","","","","","","perceptual","","","2","23","","","","","59","car","6","0","1",""
"","","","","","","","","","","","canvas-button-response","308","454684","0.0-308.0","581","6","","","","","","","","","","","","","","confidence","","","2","23","","","","","","","","","","14"
"","","","","","","","","","","","preload","309","454685","0.0-309.0","","","","","true","","","","","","","","","","","preload","","","2","24","false","[]","[]","[]","","","","","",""
"","","","","","","","","","","","canvas-keyboard-response","310","454986","0.0-310.0","null","null","","","","","","","","","","","","","","fixation","","","2","24","","","","","","","","","",""
"","","","","","","","","","","","canvas-keyboard-response","311","455288","0.0-311.0","null","null","","","","","","","","","","","","","","stimulus","","","2","24","","","","","","","","","",""
"","","","","","","","","","","","canvas-button-response","312","456717","0.0-312.0","1427","flower","","","","","","","","","","","","","","perceptual","","","2","24","","","","","237","flower","10","0","1",""
"","","","","","","","","","","","canvas-button-response","313","457334","0.0-313.0","615","8","","","","","","","","","","","","","","confidence","","","2","24","","","","","","","","","","15"
"","","","","","","","","","","","preload","314","457335","0.0-314.0","","","","","true","","","","","","","","","","","preload","","","2","25","false","[]","[]","[]","","","","","",""
"","","","","","","","","","","","canvas-keyboard-response","315","457636","0.0-315.0","null","null","","","","","","","","","","","","","","fixation","","","2","25","","","","","","","","","",""
"","","","","","","","","","","","canvas-keyboard-response","316","457939","0.0-316.0","null","null","","","","","","","","","","","","","","stimulus","","","2","25","","","","","","","","","",""
"","","","","","","","","","","","canvas-button-response","317","458700","0.0-317.0","758","knife","","","","","","","","","","","","","","perceptual","","","2","25","","","","","1","house","6","0","0",""
"","","","","","","","","","","","canvas-button-response","318","459134","0.0-318.0","431","4","","","","","","","","","","","","","","confidence","","","2","25","","","","","","","","","","15"
"","","","","","","","","","","","preload","319","459135","0.0-319.0","","","","","true","","","","","","","","","","","preload","","","2","26","false","[]","[]","[]","","","","","",""
"","","","","","","","","","","","canvas-keyboard-response","320","459438","0.0-320.0","null","null","","","","","","","","","","","","","","fixation","","","2","26","","","","","","","","","",""
"","","","","","","","","","","","canvas-keyboard-response","321","459741","0.0-321.0","null","null","","","","","","","","","","","","","","stimulus","","","2","26","","","","","","","","","",""
"","","","","","","","","","","","canvas-button-response","322","460316","0.0-322.0","573","house","","","","","","","","","","","","","","perceptual","","","2","26","","","","","101","phone","10","0","0",""
"","","","","","","","","","","","canvas-button-response","323","460734","0.0-323.0","415","2","","","","","","","","","","","","","","confidence","","","2","26","","","","","","","","","","15"
"","","","","","","","","","","","preload","324","460735","0.0-324.0","","","","","true","","","","","","","","","","","preload","","","2","27","false","[]","[]","[]","","","","","",""
"","","","","","","","","","","","canvas-keyboard-response","325","461037","0.0-325.0","null","null","","","","","","","","","","","","","","fixation","","","2","27","","","","","","","","","",""
"","","","","","","","","","","","canvas-keyboard-response","326","461339","0.0-326.0","null","null","","","","","","","","","","","","","","stimulus","","","2","27","","","","","","","","","",""
"","","","","","","","","","","","canvas-button-response","327","462034","0.0-327.0","693","car","","","","","","","","","","","","","","perceptual","","","2","27","","","","","58","car","6","0","1",""
"","","","","","","","","","","","canvas-button-response","328","462916","0.0-328.0","880","9","","","","","","","","","","","","","","confidence","","","2","27","","","","","","","","","","16"
"","","","","","","","","","","","preload","329","462918","0.0-329.0","","","","","true","","","","","","","","","","","preload","","","2","28","false","[]","[]","[]","","","","","",""
"","","","","","","","","","","","canvas-keyboard-response","330","463219","0.0-330.0","null","null","","","","","","","","","","","","","","fixation","","","2","28","","","","","","","","","",""
"","","","","","","","","","","","canvas-keyboard-response","331","463523","0.0-331.0","null","null","","","","","","","","","","","","","","stimulus","","","2","28","","","","","","","","","",""
"","","","","","","","","","","","canvas-button-response","332","464833","0.0-332.0","1308","flower","","","","","","","","","","","","","","perceptual","","","2","28","","","","","220","flower","10","0","1",""
"","","","","","","","","","","","canvas-button-response","333","465767","0.0-333.0","932","9","","","","","","","","","","","","","","confidence","","","2","28","","","","","","","","","","17"
"","","","","","","","","","","","preload","334","465768","0.0-334.0","","","","","true","","","","","","","","","","","preload","","","2","29","false","[]","[]","[]","","","","","",""
"","","","","","","","","","","","canvas-keyboard-response","335","466070","0.0-335.0","null","null","","","","","","","","","","","","","","fixation","","","2","29","","","","","","","","","",""
"","","","","","","","","","","","canvas-keyboard-response","336","466373","0.0-336.0","null","null","","","","","","","","","","","","","","stimulus","","","2","29","","","","","","","","","",""
"","","","","","","","","","","","canvas-button-response","337","469966","0.0-337.0","3591","train","","","","","","","","","","","","","","perceptual","","","2","29","","","","","43","car","6","0","0",""
"","","","","","","","","","","","canvas-button-response","338","470418","0.0-338.0","449","9","","","","","","","","","","","","","","confidence","","","2","29","","","","","","","","","","17"
"","","","","","","","","","","","preload","339","470419","0.0-339.0","","","","","true","","","","","","","","","","","preload","","","2","30","false","[]","[]","[]","","","","","",""
"","","","","","","","","","","","canvas-keyboard-response","340","470722","0.0-340.0","null","null","","","","","","","","","","","","","","fixation","","","2","30","","","","","","","","","",""
"","","","","","","","","","","","canvas-keyboard-response","341","471026","0.0-341.0","null","null","","","","","","","","","","","","","","stimulus","","","2","30","","","","","","","","","",""
"","","","","","","","","","","","canvas-button-response","342","471900","0.0-342.0","871","phone","","","","","","","","","","","","","","perceptual","","","2","30","","","","","384","knife","10","0","0",""
"","","","","","","","","","","","canvas-button-response","343","472267","0.0-343.0","364","7","","","","","","","","","","","","","","confidence","","","2","30","","","","","","","","","","17"
"","","","","","","","","","","","preload","344","472267","0.0-344.0","","","","","true","","","","","","","","","","","preload","","","2","31","false","[]","[]","[]","","","","","",""
"","","","","","","","","","","","canvas-keyboard-response","345","472569","0.0-345.0","null","null","","","","","","","","","","","","","","fixation","","","2","31","","","","","","","","","",""
"","","","","","","","","","","","canvas-keyboard-response","346","472873","0.0-346.0","null","null","","","","","","","","","","","","","","stimulus","","","2","31","","","","","","","","","",""
"","","","","","","","","","","","canvas-button-response","347","474467","0.0-347.0","1591","flower","","","","","","","","","","","","","","perceptual","","","2","31","","","","","217","flower","6","0","1",""
"","","","","","","","","","","","canvas-button-response","348","475883","0.0-348.0","1414","7","","","","","","","","","","","","","","confidence","","","2","31","","","","","","","","","","18"
"","","","","","","","","","","","preload","349","475884","0.0-349.0","","","","","true","","","","","","","","","","","preload","","","2","32","false","[]","[]","[]","","","","","",""
"","","","","","","","","","","","canvas-keyboard-response","350","476186","0.0-350.0","null","null","","","","","","","","","","","","","","fixation","","","2","32","","","","","","","","","",""
"","","","","","","","","","","","canvas-keyboard-response","351","476489","0.0-351.0","null","null","","","","","","","","","","","","","","stimulus","","","2","32","","","","","","","","","",""
"","","","","","","","","","","","canvas-button-response","352","477866","0.0-352.0","1375","elephant","","","","","","","","","","","","","","perceptual","","","2","32","","","","","287","cat","6","0","0",""
"","","","","","","","","","","","canvas-button-response","353","478299","0.0-353.0","430","7","","","","","","","","","","","","","","confidence","","","2","32","","","","","","","","","","18"
"","","","","","","","","","","","preload","354","478300","0.0-354.0","","","","","true","","","","","","","","","","","preload","","","2","33","false","[]","[]","[]","","","","","",""
"","","","","","","","","","","","canvas-keyboard-response","355","478603","0.0-355.0","null","null","","","","","","","","","","","","","","fixation","","","2","33","","","","","","","","","",""
"","","","","","","","","","","","canvas-keyboard-response","356","478906","0.0-356.0","null","null","","","","","","","","","","","","","","stimulus","","","2","33","","","","","","","","","",""
"","","","","","","","","","","","canvas-button-response","357","479599","0.0-357.0","690","knife","","","","","","","","","","","","","","perceptual","","","2","33","","","","","393","knife","10","0","1",""
"","","","","","","","","","","","canvas-button-response","358","480167","0.0-358.0","566","9","","","","","","","","","","","","","","confidence","","","2","33","","","","","","","","","","19"
"","","","","","","","","","","","preload","359","480168","0.0-359.0","","","","","true","","","","","","","","","","","preload","","","2","34","false","[]","[]","[]","","","","","",""
"","","","","","","","","","","","canvas-keyboard-response","360","480470","0.0-360.0","null","null","","","","","","","","","","","","","","fixation","","","2","34","","","","","","","","","",""
"","","","","","","","","","","","canvas-keyboard-response","361","480773","0.0-361.0","null","null","","","","","","","","","","","","","","stimulus","","","2","34","","","","","","","","","",""
"","","","","","","","","","","","canvas-button-response","362","481882","0.0-362.0","1107","phone","","","","","","","","","","","","","","perceptual","","","2","34","","","","","395","knife","10","0","0",""
"","","","","","","","","","","","canvas-button-response","363","482650","0.0-363.0","766","1","","","","","","","","","","","","","","confidence","","","2","34","","","","","","","","","","19"
"","","","","","","","","","","","preload","364","482651","0.0-364.0","","","","","true","","","","","","","","","","","preload","","","2","35","false","[]","[]","[]","","","","","",""
"","","","","","","","","","","","canvas-keyboard-response","365","482953","0.0-365.0","null","null","","","","","","","","","","","","","","fixation","","","2","35","","","","","","","","","",""
"","","","","","","","","","","","canvas-keyboard-response","366","483256","0.0-366.0","null","null","","","","","","","","","","","","","","stimulus","","","2","35","","","","","","","","","",""
"","","","","","","","","","","","canvas-button-response","367","483950","0.0-367.0","691","flower","","","","","","","","","","","","","","perceptual","","","2","35","","","","","53","car","6","0","0",""
"","","","","","","","","","","","canvas-button-response","368","484283","0.0-368.0","331","1","","","","","","","","","","","","","","confidence","","","2","35","","","","","","","","","","19"
"","","","","","","","","","","","preload","369","484284","0.0-369.0","","","","","true","","","","","","","","","","","preload","","","2","36","false","[]","[]","[]","","","","","",""
"","","","","","","","","","","","canvas-keyboard-response","370","484587","0.0-370.0","null","null","","","","","","","","","","","","","","fixation","","","2","36","","","","","","","","","",""
"","","","","","","","","","","","canvas-keyboard-response","371","484890","0.0-371.0","null","null","","","","","","","","","","","","","","stimulus","","","2","36","","","","","","","","","",""
"","","","","","","","","","","","canvas-button-response","372","486533","0.0-372.0","1641","flower","","","","","","","","","","","","","","perceptual","","","2","36","","","","","201","flower","6","0","1",""
"","","","","","","","","","","","canvas-button-response","373","487134","0.0-373.0","597","7","","","","","","","","","","","","","","confidence","","","2","36","","","","","","","","","","20"
"","","","","","","","","","","","preload","374","487135","0.0-374.0","","","","","true","","","","","","","","","","","preload","","","2","37","false","[]","[]","[]","","","","","",""
"","","","","","","","","","","","canvas-keyboard-response","375","487438","0.0-375.0","null","null","","","","","","","","","","","","","","fixation","","","2","37","","","","","","","","","",""
"","","","","","","","","","","","canvas-keyboard-response","376","487741","0.0-376.0","null","null","","","","","","","","","","","","","","stimulus","","","2","37","","","","","","","","","",""
"","","","","","","","","","","","canvas-button-response","377","488733","0.0-377.0","990","train","","","","","","","","","","","","","","perceptual","","","2","37","","","","","257","train","6","0","1",""
"","","","","","","","","","","","canvas-button-response","378","489083","0.0-378.0","348","7","","","","","","","","","","","","","","confidence","","","2","37","","","","","","","","","","21"
"","","","","","","","","","","","preload","379","489084","0.0-379.0","","","","","true","","","","","","","","","","","preload","","","2","38","false","[]","[]","[]","","","","","",""
"","","","","","","","","","","","canvas-keyboard-response","380","489387","0.0-380.0","null","null","","","","","","","","","","","","","","fixation","","","2","38","","","","","","","","","",""
"","","","","","","","","","","","canvas-keyboard-response","381","489690","0.0-381.0","null","null","","","","","","","","","","","","","","stimulus","","","2","38","","","","","","","","","",""
"","","","","","","","","","","","canvas-button-response","382","490350","0.0-382.0","656","knife","","","","","","","","","","","","","","perceptual","","","2","38","","","","","380","knife","10","0","1",""
"","","","","","","","","","","","canvas-button-response","383","490934","0.0-383.0","582","9","","","","","","","","","","","","","","confidence","","","2","38","","","","","","","","","","22"
"","","","","","","","","","","","preload","384","490935","0.0-384.0","","","","","true","","","","","","","","","","","preload","","","2","39","false","[]","[]","[]","","","","","",""
"","","","","","","","","","","","canvas-keyboard-response","385","491238","0.0-385.0","null","null","","","","","","","","","","","","","","fixation","","","2","39","","","","","","","","","",""
"","","","","","","","","","","","canvas-keyboard-response","386","491541","0.0-386.0","null","null","","","","","","","","","","","","","","stimulus","","","2","39","","","","","","","","","",""
"","","","","","","","","","","","canvas-button-response","387","493549","0.0-387.0","2006","elephant","","","","","","","","","","","","","","perceptual","","","2","39","","","","","107","phone","10","0","0",""
"","","","","","","","","","","","canvas-button-response","388","495016","0.0-388.0","1464","4","","","","","","","","","","","","","","confidence","","","2","39","","","","","","","","","","22"
"","","","","","","","","","","","preload","389","495017","0.0-389.0","","","","","true","","","","","","","","","","","preload","","","2","40","false","[]","[]","[]","","","","","",""
"","","","","","","","","","","","canvas-keyboard-response","390","495319","0.0-390.0","null","null","","","","","","","","","","","","","","fixation","","","2","40","","","","","","","","","",""
"","","","","","","","","","","","canvas-keyboard-response","391","495623","0.0-391.0","null","null","","","","","","","","","","","","","","stimulus","","","2","40","","","","","","","","","",""
"","","","","","","","","","","","canvas-button-response","392","496516","0.0-392.0","890","elephant","","","","","","","","","","","","","","perceptual","","","2","40","","","","","326","elephant","6","0","1",""
"","","","","","","","","","","","canvas-button-response","393","497183","0.0-393.0","666","3","","","","","","","","","","","","","","confidence","","","2","40","","","","","","","","","","23"
"","","","","","","","","","","","preload","394","497184","0.0-394.0","","","","","true","","","","","","","","","","","preload","","","2","41","false","[]","[]","[]","","","","","",""
"","","","","","","","","","","","canvas-keyboard-response","395","497486","0.0-395.0","null","null","","","","","","","","","","","","","","fixation","","","2","41","","","","","","","","","",""
"","","","","","","","","","","","canvas-keyboard-response","396","497789","0.0-396.0","null","null","","","","","","","","","","","","","","stimulus","","","2","41","","","","","","","","","",""
"","","","","","","","","","","","canvas-button-response","397","498934","0.0-397.0","1142","train","","","","","","","","","","","","","","perceptual","","","2","41","","","","","268","train","10","0","1",""
"","","","","","","","","","","","canvas-button-response","398","499600","0.0-398.0","664","5","","","","","","","","","","","","","","confidence","","","2","41","","","","","","","","","","24"
"","","","","","","","","","","","preload","399","499602","0.0-399.0","","","","","true","","","","","","","","","","","preload","","","2","42","false","[]","[]","[]","","","","","",""
"","","","","","","","","","","","canvas-keyboard-response","400","499905","0.0-400.0","null","null","","","","","","","","","","","","","","fixation","","","2","42","","","","","","","","","",""
"","","","","","","","","","","","canvas-keyboard-response","401","500207","0.0-401.0","null","null","","","","","","","","","","","","","","stimulus","","","2","42","","","","","","","","","",""
"","","","","","","","","","","","canvas-button-response","402","500949","0.0-402.0","741","cat","","","","","","","","","","","","","","perceptual","","","2","42","","","","","299","cat","6","0","1",""
"","","","","","","","","","","","canvas-button-response","403","501483","0.0-403.0","532","8","","","","","","","","","","","","","","confidence","","","2","42","","","","","","","","","","25"
"","","","","","","","","","","","preload","404","501484","0.0-404.0","","","","","true","","","","","","","","","","","preload","","","2","43","false","[]","[]","[]","","","","","",""
"","","","","","","","","","","","canvas-keyboard-response","405","501786","0.0-405.0","null","null","","","","","","","","","","","","","","fixation","","","2","43","","","","","","","","","",""
"","","","","","","","","","","","canvas-keyboard-response","406","502089","0.0-406.0","null","null","","","","","","","","","","","","","","stimulus","","","2","43","","","","","","","","","",""
"","","","","","","","","","","","canvas-button-response","407","503582","0.0-407.0","1491","flower","","","","","","","","","","","","","","perceptual","","","2","43","","","","","190","bridge","10","0","0",""
"","","","","","","","","","","","canvas-button-response","408","504284","0.0-408.0","699","6","","","","","","","","","","","","","","confidence","","","2","43","","","","","","","","","","25"
"","","","","","","","","","","","preload","409","504285","0.0-409.0","","","","","true","","","","","","","","","","","preload","","","2","44","false","[]","[]","[]","","","","","",""
"","","","","","","","","","","","canvas-keyboard-response","410","504588","0.0-410.0","null","null","","","","","","","","","","","","","","fixation","","","2","44","","","","","","","","","",""
"","","","","","","","","","","","canvas-keyboard-response","411","504891","0.0-411.0","null","null","","","","","","","","","","","","","","stimulus","","","2","44","","","","","","","","","",""
"","","","","","","","","","","","canvas-button-response","412","506100","0.0-412.0","1206","train","","","","","","","","","","","","","","perceptual","","","2","44","","","","","274","train","10","0","1",""
"","","","","","","","","","","","canvas-button-response","413","506549","0.0-413.0","447","7","","","","","","","","","","","","","","confidence","","","2","44","","","","","","","","","","26"
"","","","","","","","","","","","preload","414","506550","0.0-414.0","","","","","true","","","","","","","","","","","preload","","","2","45","false","[]","[]","[]","","","","","",""
"","","","","","","","","","","","canvas-keyboard-response","415","506853","0.0-415.0","null","null","","","","","","","","","","","","","","fixation","","","2","45","","","","","","","","","",""
"","","","","","","","","","","","canvas-keyboard-response","416","507156","0.0-416.0","null","null","","","","","","","","","","","","","","stimulus","","","2","45","","","","","","","","","",""
"","","","","","","","","","","","canvas-button-response","417","511649","0.0-417.0","4490","cat","","","","","","","","","","","","","","perceptual","","","2","45","","","","","0","house","6","0","0",""
"","","","","","","","","","","","canvas-button-response","418","512516","0.0-418.0","866","1","","","","","","","","","","","","","","confidence","","","2","45","","","","","","","","","","26"
"","","","","","","","","","","","preload","419","512517","0.0-419.0","","","","","true","","","","","","","","","","","preload","","","2","46","false","[]","[]","[]","","","","","",""
"","","","","","","","","","","","canvas-keyboard-response","420","512821","0.0-420.0","null","null","","","","","","","","","","","","","","fixation","","","2","46","","","","","","","","","",""
"","","","","","","","","","","","canvas-keyboard-response","421","513123","0.0-421.0","null","null","","","","","","","","","","","","","","stimulus","","","2","46","","","","","","","","","",""
"","","","","","","","","","","","canvas-button-response","422","514067","0.0-422.0","941","train","","","","","","","","","","","","","","perceptual","","","2","46","","","","","248","train","6","0","1",""
"","","","","","","","","","","","canvas-button-response","423","514566","0.0-423.0","497","8","","","","","","","","","","","","","","confidence","","","2","46","","","","","","","","","","27"
"","","","","","","","","","","","preload","424","514567","0.0-424.0","","","","","true","","","","","","","","","","","preload","","","2","47","false","[]","[]","[]","","","","","",""
"","","","","","","","","","","","canvas-keyboard-response","425","514870","0.0-425.0","null","null","","","","","","","","","","","","","","fixation","","","2","47","","","","","","","","","",""
"","","","","","","","","","","","canvas-keyboard-response","426","515173","0.0-426.0","null","null","","","","","","","","","","","","","","stimulus","","","2","47","","","","","","","","","",""
"","","","","","","","","","","","canvas-button-response","427","516466","0.0-427.0","1290","house","","","","","","","","","","","","","","perceptual","","","2","47","","","","","16","house","6","0","1",""
"","","","","","","","","","","","canvas-button-response","428","524966","0.0-428.0","8498","7","","","","","","","","","","","","","","confidence","","","2","47","","","","","","","","","","28"
"","","","","","","","","","","","preload","429","524967","0.0-429.0","","","","","true","","","","","","","","","","","preload","","","2","48","false","[]","[]","[]","","","","","",""
"","","","","","","","","","","","canvas-keyboard-response","430","525269","0.0-430.0","null","null","","","","","","","","","","","","","","fixation","","","2","48","","","","","","","","","",""
"","","","","","","","","","","","canvas-keyboard-response","431","525572","0.0-431.0","null","null","","","","","","","","","","","","","","stimulus","","","2","48","","","","","","","","","",""
"","","","","","","","","","","","canvas-button-response","432","527133","0.0-432.0","1558","flower","","","","","","","","","","","","","","perceptual","","","2","48","","","","","71","car","10","0","0",""
"","","","","","","","","","","","canvas-button-response","433","527783","0.0-433.0","648","1","","","","","","","","","","","","","","confidence","","","2","48","","","","","","","","","","28"
"","","","","","","","","","","","preload","434","527784","0.0-434.0","","","","","true","","","","","","","","","","","preload","","","2","49","false","[]","[]","[]","","","","","",""
"","","","","","","","","","","","canvas-keyboard-response","435","528087","0.0-435.0","null","null","","","","","","","","","","","","","","fixation","","","2","49","","","","","","","","","",""
"","","","","","","","","","","","canvas-keyboard-response","436","528389","0.0-436.0","null","null","","","","","","","","","","","","","","stimulus","","","2","49","","","","","","","","","",""
"","","","","","","","","","","","canvas-button-response","437","531832","0.0-437.0","3440","house","","","","","","","","","","","","","","perceptual","","","2","49","","","","","39","house","10","0","1",""
"","","","","","","","","","","","canvas-button-response","438","532817","0.0-438.0","981","8","","","","","","","","","","","","","","confidence","","","2","49","","","","","","","","","","29"
"","","","","","","","","","","","html-button-response","439","540566","0.0-439.0","7747","0","","","","","","","","","","","","","","<p style=""font-size:20px;color:#000000"">You got 29 out of 50 trials correct in this block.<br><br>You have completed 6% of the experiment.<br><br>Take a short break.<br><br>When you are ready, click Continue to proceed.","","","2","49","","","","","","","","","",""
"","","","","","","","","","","","html-keyboard-response","440","541569","0.0-440.0","null","null","","","","","","","","","","","","","","<p style=""font-size:32px;color:#000000""><br><br> RUN: &nbsp 1/4 <br><br> BLOCK: 2/4 ","","","2","49","","","","","","","","","",""
"","","","","","","","","","","","preload","441","541570","0.0-441.0","","","","","true","","","","","","","","","","","preload","","","2","50","false","[]","[]","[]","","","","","",""
"","","","","","","","","","","","canvas-keyboard-response","442","541874","0.0-442.0","null","null","","","","","","","","","","","","","","fixation","","","2","50","","","","","","","","","",""
"","","","","","","","","","","","canvas-keyboard-response","443","542177","0.0-443.0","null","null","","","","","","","","","","","","","","stimulus","","","2","50","","","","","","","","","",""
"","","","","","","","","","","","canvas-button-response","444","543616","0.0-444.0","1436","knife","","","","","","","","","","","","","","perceptual","","","2","50","","","","","334","elephant","6","0","0",""
"","","","","","","","","","","","canvas-button-response","445","544466","0.0-445.0","848","1","","","","","","","","","","","","","","confidence","","","2","50","","","","","","","","","","0"
"","","","","","","","","","","","preload","446","544467","0.0-446.0","","","","","true","","","","","","","","","","","preload","","","2","51","false","[]","[]","[]","","","","","",""
"","","","","","","","","","","","canvas-keyboard-response","447","544769","0.0-447.0","null","null","","","","","","","","","","","","","","fixation","","","2","51","","","","","","","","","",""
"","","","","","","","","","","","canvas-keyboard-response","448","545072","0.0-448.0","null","null","","","","","","","","","","","","","","stimulus","","","2","51","","","","","","","","","",""
"","","","","","","","","","","","canvas-button-response","449","546199","0.0-449.0","1124","cat","","","","","","","","","","","","","","perceptual","","","2","51","","","","","284","cat","6","0","1",""
"","","","","","","","","","","","canvas-button-response","450","546783","0.0-450.0","581","6","","","","","","","","","","","","","","confidence","","","2","51","","","","","","","","","","1"
"","","","","","","","","","","","preload","451","546784","0.0-451.0","","","","","true","","","","","","","","","","","preload","","","2","52","false","[]","[]","[]","","","","","",""
"","","","","","","","","","","","canvas-keyboard-response","452","547087","0.0-452.0","null","null","","","","","","","","","","","","","","fixation","","","2","52","","","","","","","","","",""
"","","","","","","","","","","","canvas-keyboard-response","453","547389","0.0-453.0","null","null","","","","","","","","","","","","","","stimulus","","","2","52","","","","","","","","","",""
"","","","","","","","","","","","canvas-button-response","454","548032","0.0-454.0","640","cat","","","","","","","","","","","","","","perceptual","","","2","52","","","","","312","cat","10","0","1",""
"","","","","","","","","","","","canvas-button-response","455","548549","0.0-455.0","515","7","","","","","","","","","","","","","","confidence","","","2","52","","","","","","","","","","2"
"","","","","","","","","","","","preload","456","548551","0.0-456.0","","","","","true","","","","","","","","","","","preload","","","2","53","false","[]","[]","[]","","","","","",""
"","","","","","","","","","","","canvas-keyboard-response","457","548853","0.0-457.0","null","null","","","","","","","","","","","","","","fixation","","","2","53","","","","","","","","","",""
"","","","","","","","","","","","canvas-keyboard-response","458","549156","0.0-458.0","null","null","","","","","","","","","","","","","","stimulus","","","2","53","","","","","","","","","",""
"","","","","","","","","","","","canvas-button-response","459","551399","0.0-459.0","2240","house","","","","","","","","","","","","","","perceptual","","","2","53","","","","","146","bed","10","0","0",""
"","","","","","","","","","","","canvas-button-response","460","552066","0.0-460.0","664","1","","","","","","","","","","","","","","confidence","","","2","53","","","","","","","","","","2"
"","","","","","","","","","","","preload","461","552067","0.0-461.0","","","","","true","","","","","","","","","","","preload","","","2","54","false","[]","[]","[]","","","","","",""
"","","","","","","","","","","","canvas-keyboard-response","462","552369","0.0-462.0","null","null","","","","","","","","","","","","","","fixation","","","2","54","","","","","","","","","",""
"","","","","","","","","","","","canvas-keyboard-response","463","552671","0.0-463.0","null","null","","","","","","","","","","","","","","stimulus","","","2","54","","","","","","","","","",""
"","","","","","","","","","","","canvas-button-response","464","553781","0.0-464.0","1108","house","","","","","","","","","","","","","","perceptual","","","2","54","","","","","25","house","10","0","1",""
"","","","","","","","","","","","canvas-button-response","465","554566","0.0-465.0","783","3","","","","","","","","","","","","","","confidence","","","2","54","","","","","","","","","","3"
"","","","","","","","","","","","preload","466","554567","0.0-466.0","","","","","true","","","","","","","","","","","preload","","","2","55","false","[]","[]","[]","","","","","",""
"","","","","","","","","","","","canvas-keyboard-response","467","554870","0.0-467.0","null","null","","","","","","","","","","","","","","fixation","","","2","55","","","","","","","","","",""
"","","","","","","","","","","","canvas-keyboard-response","468","555173","0.0-468.0","null","null","","","","","","","","","","","","","","stimulus","","","2","55","","","","","","","","","",""
"","","","","","","","","","","","canvas-button-response","469","555949","0.0-469.0","773","house","","","","","","","","","","","","","","perceptual","","","2","55","","","","","195","bridge","10","0","0",""
"","","","","","","","","","","","canvas-button-response","470","556399","0.0-470.0","447","3","","","","","","","","","","","","","","confidence","","","2","55","","","","","","","","","","3"
"","","","","","","","","","","","preload","471","556399","0.0-471.0","","","","","true","","","","","","","","","","","preload","","","2","56","false","[]","[]","[]","","","","","",""
"","","","","","","","","","","","canvas-keyboard-response","472","556701","0.0-472.0","null","null","","","","","","","","","","","","","","fixation","","","2","56","","","","","","","","","",""
"","","","","","","","","","","","canvas-keyboard-response","473","557004","0.0-473.0","null","null","","","","","","","","","","","","","","stimulus","","","2","56","","","","","","","","","",""
"","","","","","","","","","","","canvas-button-response","474","558383","0.0-474.0","1375","train","","","","","","","","","","","","","","perceptual","","","2","56","","","","","259","train","6","0","1",""
"","","","","","","","","","","","canvas-button-response","475","559333","0.0-475.0","947","4","","","","","","","","","","","","","","confidence","","","2","56","","","","","","","","","","4"
"","","","","","","","","","","","preload","476","559334","0.0-476.0","","","","","true","","","","","","","","","","","preload","","","2","57","false","[]","[]","[]","","","","","",""
"","","","","","","","","","","","canvas-keyboard-response","477","559636","0.0-477.0","null","null","","","","","","","","","","","","","","fixation","","","2","57","","","","","","","","","",""
"","","","","","","","","","","","canvas-keyboard-response","478","559939","0.0-478.0","null","null","","","","","","","","","","","","","","stimulus","","","2","57","","","","","","","","","",""
"","","","","","","","","","","","canvas-button-response","479","560666","0.0-479.0","724","house","","","","","","","","","","","","","","perceptual","","","2","57","","","","","8","house","6","0","1",""
"","","","","","","","","","","","canvas-button-response","480","561249","0.0-480.0","581","7","","","","","","","","","","","","","","confidence","","","2","57","","","","","","","","","","5"
"","","","","","","","","","","","preload","481","561250","0.0-481.0","","","","","true","","","","","","","","","","","preload","","","2","58","false","[]","[]","[]","","","","","",""
"","","","","","","","","","","","canvas-keyboard-response","482","561553","0.0-482.0","null","null","","","","","","","","","","","","","","fixation","","","2","58","","","","","","","","","",""
"","","","","","","","","","","","canvas-keyboard-response","483","561857","0.0-483.0","null","null","","","","","","","","","","","","","","stimulus","","","2","58","","","","","","","","","",""
"","","","","","","","","","","","canvas-button-response","484","562915","0.0-484.0","1056","house","","","","","","","","","","","","","","perceptual","","","2","58","","","","","179","bridge","6","0","0",""
"","","","","","","","","","","","canvas-button-response","485","563665","0.0-485.0","748","1","","","","","","","","","","","","","","confidence","","","2","58","","","","","","","","","","5"
"","","","","","","","","","","","preload","486","563666","0.0-486.0","","","","","true","","","","","","","","","","","preload","","","2","59","false","[]","[]","[]","","","","","",""
"","","","","","","","","","","","canvas-keyboard-response","487","563968","0.0-487.0","null","null","","","","","","","","","","","","","","fixation","","","2","59","","","","","","","","","",""
"","","","","","","","","","","","canvas-keyboard-response","488","564270","0.0-488.0","null","null","","","","","","","","","","","","","","stimulus","","","2","59","","","","","","","","","",""
"","","","","","","","","","","","canvas-button-response","489","565016","0.0-489.0","743","house","","","","","","","","","","","","","","perceptual","","","2","59","","","","","282","cat","6","0","0",""
"","","","","","","","","","","","canvas-button-response","490","565499","0.0-490.0","481","1","","","","","","","","","","","","","","confidence","","","2","59","","","","","","","","","","5"
"","","","","","","","","","","","preload","491","565499","0.0-491.0","","","","","true","","","","","","","","","","","preload","","","2","60","false","[]","[]","[]","","","","","",""
"","","","","","","","","","","","canvas-keyboard-response","492","565801","0.0-492.0","null","null","","","","","","","","","","","","","","fixation","","","2","60","","","","","","","","","",""
