"width","height","webaudio","browser","browser_version","mobile","os","fullscreen","vsync_rate","webcam","microphone","trial_type","trial_index","time_elapsed","internal_node_id","rt","response","accuracy","view_history","success","item_width_mm","item_height_mm","item_width_px","px2mm","view_dist_mm","item_width_deg","px2deg","scale_factor","win_width_deg","win_height_deg","stimulus","datetime","subjectID","curr_triallist","trial_no","timeout","failed_images","failed_audio","failed_video","image_index","category","blur","reps","correct","running_score"
"1664","941","true","chrome","140.0.0","false","Windows 10","true","60.76","true","true","browser-check","0","999","0.0-0.0","","","","","","","","","","","","","","","","","","","","","","","","","","","","","",""
"","","","","","","","","","","","survey","1","99388","0.0-1.0","98326","{""P0_Q0"":""904192282"",""P0_Q1"":""18"",""P1_Q0"":""Male"",""P1_Q1"":""Not Hispanic or Latino"",""P1_Q2"":""More than one race"",""P1_Q3"":""Normal"",""P1_Q4"":""Right-Handed""}","[]","","","","","","","","","","","","","","","","","","","","","","","","","","",""
"","","","","","","","","","","","instructions","2","117546","0.0-2.0","18157","","","[{""page_index"":0,""viewing_time"":4849},{""page_index"":1,""viewing_time"":7969},{""page_index"":2,""viewing_time"":3632},{""page_index"":3,""viewing_time"":1707}]","","","","","","","","","","","","","","","","","","","","","","","","","",""
"","","","","","","","","","","","fullscreen","3","123003","0.0-3.0","4440","","","","true","","","","","","","","","","","","","","","","","","","","","","","","",""
"","","","","","","","","","","","virtual-chinrest","4","189917","0.0-4.0","66912","","","","","85.6","53.98","100.01702959826802","1.1681989057077704","1470.69","3.333900986608934","30","2.499574332532759","55.46666666666667","37","","","","","","","","","","","","","","",""
"","","","","","","","","","","","instructions","5","243541","0.0-5.0","53622","","","[{""page_index"":0,""viewing_time"":5583},{""page_index"":1,""viewing_time"":11921},{""page_index"":2,""viewing_time"":8781},{""page_index"":3,""viewing_time"":7860},{""page_index"":4,""viewing_time"":3580},{""page_index"":5,""viewing_time"":11493},{""page_index"":6,""viewing_time"":4404}]","","","","","","","","","","","","","","","","","","","","","","","","","",""
"","","","","","","","","","","","html-button-response","6","251112","0.0-6.0","7568","0","","","","","","","","","","","","","","start_practice","Thu Oct 09 2025 11:48:37 GMT-0400 (Eastern Daylight Time)","26952","","","","","","","","","","","",""
"","","","","","","","","","","","preload","7","251114","0.0-7.0","","","","","true","","","","","","","","","","","preload","","","0","0","false","[]","[]","[]","","","","","",""
"","","","","","","","","","","","canvas-keyboard-response","8","251436","0.0-8.0","null","null","","","","","","","","","","","","","","fixation","","","0","0","","","","","","","","","",""
"","","","","","","","","","","","canvas-keyboard-response","9","251747","0.0-9.0","null","null","","","","","","","","","","","","","","stimulus","","","0","0","","","","","","","","","",""
"","","","","","","","","","","","canvas-button-response","10","254292","0.0-10.0","2542","train","","","","","","","","","","","","","","perceptual","","","0","0","","","","","62","train","1","","1",""
"","","","","","","","","","","","canvas-button-response","11","256047","0.0-11.0","1752","8","","","","","","","","","","","","","","confidence","","","0","0","","","","","","","","","","1"
"","","","","","","","","","","","html-keyboard-response","12","257052","0.0-12.0","null","null","","","","","","","","","","","","","","feedback","Thu Oct 09 2025 11:48:49 GMT-0400 (Eastern Daylight Time)","26952","0","0","","","","","","","","","",""
"","","","","","","","","","","","preload","13","257053","0.0-13.0","","","","","true","","","","","","","","","","","preload","","","0","1","false","[]","[]","[]","","","","","",""
"","","","","","","","","","","","canvas-keyboard-response","14","257364","0.0-14.0","null","null","","","","","","","","","","","","","","fixation","","","0","1","","","","","","","","","",""
"","","","","","","","","","","","canvas-keyboard-response","15","257672","0.0-15.0","null","null","","","","","","","","","","","","","","stimulus","","","0","1","","","","","","","","","",""
"","","","","","","","","","","","canvas-button-response","16","259084","0.0-16.0","1409","bridge","","","","","","","","","","","","","","perceptual","","","0","1","","","","","42","bridge","1","","1",""
"","","","","","","","","","","","canvas-button-response","17","261223","0.0-17.0","2136","10","","","","","","","","","","","","","","confidence","","","0","1","","","","","","","","","","2"
"","","","","","","","","","","","html-keyboard-response","18","262225","0.0-18.0","null","null","","","","","","","","","","","","","","feedback","Thu Oct 09 2025 11:48:54 GMT-0400 (Eastern Daylight Time)","26952","0","1","","","","","","","","","",""
"","","","","","","","","","","","preload","19","262225","0.0-19.0","","","","","true","","","","","","","","","","","preload","","","0","2","false","[]","[]","[]","","","","","",""
"","","","","","","","","","","","canvas-keyboard-response","20","262528","0.0-20.0","null","null","","","","","","","","","","","","","","fixation","","","0","2","","","","","","","","","",""
"","","","","","","","","","","","canvas-keyboard-response","21","262840","0.0-21.0","null","null","","","","","","","","","","","","","","stimulus","","","0","2","","","","","","","","","",""
"","","","","","","","","","","","canvas-button-response","22","264800","0.0-22.0","1958","bed","","","","","","","","","","","","","","perceptual","","","0","2","","","","","32","bed","1","","1",""
"","","","","","","","","","","","canvas-button-response","23","266596","0.0-23.0","1793","10","","","","","","","","","","","","","","confidence","","","0","2","","","","","","","","","","3"
"","","","","","","","","","","","html-keyboard-response","24","267598","0.0-24.0","null","null","","","","","","","","","","","","","","feedback","Thu Oct 09 2025 11:49:00 GMT-0400 (Eastern Daylight Time)","26952","0","2","","","","","","","","","",""
"","","","","","","","","","","","preload","25","267599","0.0-25.0","","","","","true","","","","","","","","","","","preload","","","0","3","false","[]","[]","[]","","","","","",""
"","","","","","","","","","","","canvas-keyboard-response","26","267905","0.0-26.0","null","null","","","","","","","","","","","","","","fixation","","","0","3","","","","","","","","","",""
"","","","","","","","","","","","canvas-keyboard-response","27","268209","0.0-27.0","null","null","","","","","","","","","","","","","","stimulus","","","0","3","","","","","","","","","",""
"","","","","","","","","","","","canvas-button-response","28","270411","0.0-28.0","2198","phone","","","","","","","","","","","","","","perceptual","","","0","3","","","","","22","phone","1","","1",""
"","","","","","","","","","","","canvas-button-response","29","271628","0.0-29.0","1214","9","","","","","","","","","","","","","","confidence","","","0","3","","","","","","","","","","4"
"","","","","","","","","","","","html-keyboard-response","30","272645","0.0-30.0","null","null","","","","","","","","","","","","","","feedback","Thu Oct 09 2025 11:49:05 GMT-0400 (Eastern Daylight Time)","26952","0","3","","","","","","","","","",""
"","","","","","","","","","","","preload","31","272646","0.0-31.0","","","","","true","","","","","","","","","","","preload","","","0","4","false","[]","[]","[]","","","","","",""
"","","","","","","","","","","","canvas-keyboard-response","32","272959","0.0-32.0","null","null","","","","","","","","","","","","","","fixation","","","0","4","","","","","","","","","",""
"","","","","","","","","","","","canvas-keyboard-response","33","273262","0.0-33.0","null","null","","","","","","","","","","","","","","stimulus","","","0","4","","","","","","","","","",""
"","","","","","","","","","","","canvas-button-response","34","274566","0.0-34.0","1301","house","","","","","","","","","","","","","","perceptual","","","0","4","","","","","2","house","1","","1",""
"","","","","","","","","","","","canvas-button-response","35","276246","0.0-35.0","1677","10","","","","","","","","","","","","","","confidence","","","0","4","","","","","","","","","","5"
"","","","","","","","","","","","html-keyboard-response","36","277253","0.0-36.0","null","null","","","","","","","","","","","","","","feedback","Thu Oct 09 2025 11:49:09 GMT-0400 (Eastern Daylight Time)","26952","0","4","","","","","","","","","",""
"","","","","","","","","","","","preload","37","277254","0.0-37.0","","","","","true","","","","","","","","","","","preload","","","0","5","false","[]","[]","[]","","","","","",""
"","","","","","","","","","","","canvas-keyboard-response","38","277557","0.0-38.0","null","null","","","","","","","","","","","","","","fixation","","","0","5","","","","","","","","","",""
"","","","","","","","","","","","canvas-keyboard-response","39","277872","0.0-39.0","null","null","","","","","","","","","","","","","","stimulus","","","0","5","","","","","","","","","",""
"","","","","","","","","","","","canvas-button-response","40","278799","0.0-40.0","925","car","","","","","","","","","","","","","","perceptual","","","0","5","","","","","12","car","1","","1",""
"","","","","","","","","","","","canvas-button-response","41","280643","0.0-41.0","1842","10","","","","","","","","","","","","","","confidence","","","0","5","","","","","","","","","","6"
"","","","","","","","","","","","html-keyboard-response","42","281657","0.0-42.0","null","null","","","","","","","","","","","","","","feedback","Thu Oct 09 2025 11:49:14 GMT-0400 (Eastern Daylight Time)","26952","0","5","","","","","","","","","",""
"","","","","","","","","","","","preload","43","281658","0.0-43.0","","","","","true","","","","","","","","","","","preload","","","0","6","false","[]","[]","[]","","","","","",""
"","","","","","","","","","","","canvas-keyboard-response","44","281975","0.0-44.0","null","null","","","","","","","","","","","","","","fixation","","","0","6","","","","","","","","","",""
"","","","","","","","","","","","canvas-keyboard-response","45","282285","0.0-45.0","null","null","","","","","","","","","","","","","","stimulus","","","0","6","","","","","","","","","",""
"","","","","","","","","","","","canvas-button-response","46","291439","0.0-46.0","9151","flower","","","","","","","","","","","","","","perceptual","","","0","6","","","","","52","flower","1","","1",""
"","","","","","","","","","","","canvas-button-response","47","292925","0.0-47.0","1483","7","","","","","","","","","","","","","","confidence","","","0","6","","","","","","","","","","7"
"","","","","","","","","","","","html-keyboard-response","48","293930","0.0-48.0","null","null","","","","","","","","","","","","","","feedback","Thu Oct 09 2025 11:49:26 GMT-0400 (Eastern Daylight Time)","26952","0","6","","","","","","","","","",""
"","","","","","","","","","","","preload","49","293931","0.0-49.0","","","","","true","","","","","","","","","","","preload","","","0","7","false","[]","[]","[]","","","","","",""
"","","","","","","","","","","","canvas-keyboard-response","50","294244","0.0-50.0","null","null","","","","","","","","","","","","","","fixation","","","0","7","","","","","","","","","",""
"","","","","","","","","","","","canvas-keyboard-response","51","294554","0.0-51.0","null","null","","","","","","","","","","","","","","stimulus","","","0","7","","","","","","","","","",""
"","","","","","","","","","","","canvas-button-response","52","298443","0.0-52.0","3887","elephant","","","","","","","","","","","","","","perceptual","","","0","7","","","","","82","elephant","1","","1",""
"","","","","","","","","","","","canvas-button-response","53","299556","0.0-53.0","1111","6","","","","","","","","","","","","","","confidence","","","0","7","","","","","","","","","","8"
"","","","","","","","","","","","html-keyboard-response","54","300570","0.0-54.0","null","null","","","","","","","","","","","","","","feedback","Thu Oct 09 2025 11:49:33 GMT-0400 (Eastern Daylight Time)","26952","0","7","","","","","","","","","",""
"","","","","","","","","","","","preload","55","300571","0.0-55.0","","","","","true","","","","","","","","","","","preload","","","0","8","false","[]","[]","[]","","","","","",""
"","","","","","","","","","","","canvas-keyboard-response","56","300875","0.0-56.0","null","null","","","","","","","","","","","","","","fixation","","","0","8","","","","","","","","","",""
"","","","","","","","","","","","canvas-keyboard-response","57","301181","0.0-57.0","null","null","","","","","","","","","","","","","","stimulus","","","0","8","","","","","","","","","",""
"","","","","","","","","","","","canvas-button-response","58","302234","0.0-58.0","1051","cat","","","","","","","","","","","","","","perceptual","","","0","8","","","","","72","cat","1","","1",""
"","","","","","","","","","","","canvas-button-response","59","303456","0.0-59.0","1218","10","","","","","","","","","","","","","","confidence","","","0","8","","","","","","","","","","9"
"","","","","","","","","","","","html-keyboard-response","60","304466","0.0-60.0","null","null","","","","","","","","","","","","","","feedback","Thu Oct 09 2025 11:49:37 GMT-0400 (Eastern Daylight Time)","26952","0","8","","","","","","","","","",""
"","","","","","","","","","","","preload","61","304467","0.0-61.0","","","","","true","","","","","","","","","","","preload","","","0","9","false","[]","[]","[]","","","","","",""
"","","","","","","","","","","","canvas-keyboard-response","62","304771","0.0-62.0","null","null","","","","","","","","","","","","","","fixation","","","0","9","","","","","","","","","",""
"","","","","","","","","","","","canvas-keyboard-response","63","305085","0.0-63.0","null","null","","","","","","","","","","","","","","stimulus","","","0","9","","","","","","","","","",""
"","","","","","","","","","","","canvas-button-response","64","306453","0.0-64.0","1366","knife","","","","","","","","","","","","","","perceptual","","","0","9","","","","","92","knife","1","","1",""
"","","","","","","","","","","","canvas-button-response","65","307567","0.0-65.0","1112","8","","","","","","","","","","","","","","confidence","","","0","9","","","","","","","","","","10"
"","","","","","","","","","","","html-keyboard-response","66","308582","0.0-66.0","null","null","","","","","","","","","","","","","","feedback","Thu Oct 09 2025 11:49:41 GMT-0400 (Eastern Daylight Time)","26952","0","9","","","","","","","","","",""
"","","","","","","","","","","","html-button-response","67","314999","0.0-67.0","6401","0","","","","","","","","","","","","","","start_practice","Thu Oct 09 2025 11:49:42 GMT-0400 (Eastern Daylight Time)","26952","0","9","","","","","","","","","",""
"","","","","","","","","","","","preload","68","315000","0.0-68.0","","","","","true","","","","","","","","","","","preload","","","1","0","false","[]","[]","[]","","","","","",""
"","","","","","","","","","","","canvas-keyboard-response","69","315312","0.0-69.0","null","null","","","","","","","","","","","","","","fixation","","","1","0","","","","","","","","","",""
"","","","","","","","","","","","canvas-keyboard-response","70","315624","0.0-70.0","null","null","","","","","","","","","","","","","","stimulus","","","1","0","","","","","","","","","",""
"","","","","","","","","","","","canvas-button-response","71","317718","0.0-71.0","2092","elephant","","","","","","","","","","","","","","perceptual","","","1","0","","","","","84","elephant","6","","1",""
"","","","","","","","","","","","canvas-button-response","72","318476","0.0-72.0","754","5","","","","","","","","","","","","","","confidence","","","1","0","","","","","","","","","","1"
"","","","","","","","","","","","html-keyboard-response","73","319490","0.0-73.0","null","null","","","","","","","","","","","","","","feedback","Thu Oct 09 2025 11:49:52 GMT-0400 (Eastern Daylight Time)","26952","1","0","","","","","","","","","",""
"","","","","","","","","","","","preload","74","319491","0.0-74.0","","","","","true","","","","","","","","","","","preload","","","1","1","false","[]","[]","[]","","","","","",""
"","","","","","","","","","","","canvas-keyboard-response","75","319799","0.0-75.0","null","null","","","","","","","","","","","","","","fixation","","","1","1","","","","","","","","","",""
"","","","","","","","","","","","canvas-keyboard-response","76","320106","0.0-76.0","null","null","","","","","","","","","","","","","","stimulus","","","1","1","","","","","","","","","",""
"","","","","","","","","","","","canvas-button-response","77","321798","0.0-77.0","1689","cat","","","","","","","","","","","","","","perceptual","","","1","1","","","","","74","cat","6","","1",""
"","","","","","","","","","","","canvas-button-response","78","322418","0.0-78.0","617","7","","","","","","","","","","","","","","confidence","","","1","1","","","","","","","","","","2"
"","","","","","","","","","","","html-keyboard-response","79","323424","0.0-79.0","null","null","","","","","","","","","","","","","","feedback","Thu Oct 09 2025 11:49:56 GMT-0400 (Eastern Daylight Time)","26952","1","1","","","","","","","","","",""
"","","","","","","","","","","","preload","80","323425","0.0-80.0","","","","","true","","","","","","","","","","","preload","","","1","2","false","[]","[]","[]","","","","","",""
"","","","","","","","","","","","canvas-keyboard-response","81","323744","0.0-81.0","null","null","","","","","","","","","","","","","","fixation","","","1","2","","","","","","","","","",""
"","","","","","","","","","","","canvas-keyboard-response","82","324050","0.0-82.0","null","null","","","","","","","","","","","","","","stimulus","","","1","2","","","","","","","","","",""
"","","","","","","","","","","","canvas-button-response","83","326290","0.0-83.0","2239","train","","","","","","","","","","","","","","perceptual","","","1","2","","","","","14","car","6","","0",""
"","","","","","","","","","","","canvas-button-response","84","327206","0.0-84.0","913","3","","","","","","","","","","","","","","confidence","","","1","2","","","","","","","","","","2"
"","","","","","","","","","","","html-keyboard-response","85","328210","0.0-85.0","null","null","","","","","","","","","","","","","","feedback","Thu Oct 09 2025 11:50:00 GMT-0400 (Eastern Daylight Time)","26952","1","2","","","","","","","","","",""
"","","","","","","","","","","","preload","86","328211","0.0-86.0","","","","","true","","","","","","","","","","","preload","","","1","3","false","[]","[]","[]","","","","","",""
"","","","","","","","","","","","canvas-keyboard-response","87","328518","0.0-87.0","null","null","","","","","","","","","","","","","","fixation","","","1","3","","","","","","","","","",""
"","","","","","","","","","","","canvas-keyboard-response","88","328829","0.0-88.0","null","null","","","","","","","","","","","","","","stimulus","","","1","3","","","","","","","","","",""
"","","","","","","","","","","","canvas-button-response","89","331019","0.0-89.0","2187","flower","","","","","","","","","","","","","","perceptual","","","1","3","","","","","77","cat","10","","0",""
"","","","","","","","","","","","canvas-button-response","90","331904","0.0-90.0","883","2","","","","","","","","","","","","","","confidence","","","1","3","","","","","","","","","","2"
"","","","","","","","","","","","html-keyboard-response","91","332914","0.0-91.0","null","null","","","","","","","","","","","","","","feedback","Thu Oct 09 2025 11:50:05 GMT-0400 (Eastern Daylight Time)","26952","1","3","","","","","","","","","",""
"","","","","","","","","","","","preload","92","332915","0.0-92.0","","","","","true","","","","","","","","","","","preload","","","1","4","false","[]","[]","[]","","","","","",""
"","","","","","","","","","","","canvas-keyboard-response","93","333224","0.0-93.0","null","null","","","","","","","","","","","","","","fixation","","","1","4","","","","","","","","","",""
"","","","","","","","","","","","canvas-keyboard-response","94","333542","0.0-94.0","null","null","","","","","","","","","","","","","","stimulus","","","1","4","","","","","","","","","",""
"","","","","","","","","","","","canvas-button-response","95","335339","0.0-95.0","1795","train","","","","","","","","","","","","","","perceptual","","","1","4","","","","","17","car","10","","0",""
"","","","","","","","","","","","canvas-button-response","96","337194","0.0-96.0","1853","4","","","","","","","","","","","","","","confidence","","","1","4","","","","","","","","","","2"
"","","","","","","","","","","","html-keyboard-response","97","338206","0.0-97.0","null","null","","","","","","","","","","","","","","feedback","Thu Oct 09 2025 11:50:10 GMT-0400 (Eastern Daylight Time)","26952","1","4","","","","","","","","","",""
"","","","","","","","","","","","preload","98","338207","0.0-98.0","","","","","true","","","","","","","","","","","preload","","","1","5","false","[]","[]","[]","","","","","",""
"","","","","","","","","","","","canvas-keyboard-response","99","338509","0.0-99.0","null","null","","","","","","","","","","","","","","fixation","","","1","5","","","","","","","","","",""
"","","","","","","","","","","","canvas-keyboard-response","100","338826","0.0-100.0","null","null","","","","","","","","","","","","","","stimulus","","","1","5","","","","","","","","","",""
"","","","","","","","","","","","canvas-button-response","101","343898","0.0-101.0","5070","bed","","","","","","","","","","","","","","perceptual","","","1","5","","","","","34","bed","6","","1",""
"","","","","","","","","","","","canvas-button-response","102","344572","0.0-102.0","671","4","","","","","","","","","","","","","","confidence","","","1","5","","","","","","","","","","3"
"","","","","","","","","","","","html-keyboard-response","103","345580","0.0-103.0","null","null","","","","","","","","","","","","","","feedback","Thu Oct 09 2025 11:50:18 GMT-0400 (Eastern Daylight Time)","26952","1","5","","","","","","","","","",""
"","","","","","","","","","","","preload","104","345581","0.0-104.0","","","","","true","","","","","","","","","","","preload","","","1","6","false","[]","[]","[]","","","","","",""
"","","","","","","","","","","","canvas-keyboard-response","105","345898","0.0-105.0","null","null","","","","","","","","","","","","","","fixation","","","1","6","","","","","","","","","",""
"","","","","","","","","","","","canvas-keyboard-response","106","346209","0.0-106.0","null","null","","","","","","","","","","","","","","stimulus","","","1","6","","","","","","","","","",""
"","","","","","","","","","","","canvas-button-response","107","347765","0.0-107.0","1553","train","","","","","","","","","","","","","","perceptual","","","1","6","","","","","44","bridge","6","","0",""
"","","","","","","","","","","","canvas-button-response","108","348790","0.0-108.0","1022","7","","","","","","","","","","","","","","confidence","","","1","6","","","","","","","","","","3"
"","","","","","","","","","","","html-keyboard-response","109","349792","0.0-109.0","null","null","","","","","","","","","","","","","","feedback","Thu Oct 09 2025 11:50:22 GMT-0400 (Eastern Daylight Time)","26952","1","6","","","","","","","","","",""
"","","","","","","","","","","","preload","110","349792","0.0-110.0","","","","","true","","","","","","","","","","","preload","","","1","7","false","[]","[]","[]","","","","","",""
"","","","","","","","","","","","canvas-keyboard-response","111","350096","0.0-111.0","null","null","","","","","","","","","","","","","","fixation","","","1","7","","","","","","","","","",""
"","","","","","","","","","","","canvas-keyboard-response","112","350416","0.0-112.0","null","null","","","","","","","","","","","","","","stimulus","","","1","7","","","","","","","","","",""
"","","","","","","","","","","","canvas-button-response","113","352635","0.0-113.0","2216","flower","","","","","","","","","","","","","","perceptual","","","1","7","","","","","57","flower","10","","1",""
"","","","","","","","","","","","canvas-button-response","114","353695","0.0-114.0","1057","8","","","","","","","","","","","","","","confidence","","","1","7","","","","","","","","","","4"
"","","","","","","","","","","","html-keyboard-response","115","354712","0.0-115.0","null","null","","","","","","","","","","","","","","feedback","Thu Oct 09 2025 11:50:27 GMT-0400 (Eastern Daylight Time)","26952","1","7","","","","","","","","","",""
"","","","","","","","","","","","preload","116","354712","0.0-116.0","","","","","true","","","","","","","","","","","preload","","","1","8","false","[]","[]","[]","","","","","",""
"","","","","","","","","","","","canvas-keyboard-response","117","355019","0.0-117.0","null","null","","","","","","","","","","","","","","fixation","","","1","8","","","","","","","","","",""
"","","","","","","","","","","","canvas-keyboard-response","118","355333","0.0-118.0","null","null","","","","","","","","","","","","","","stimulus","","","1","8","","","","","","","","","",""
"","","","","","","","","","","","canvas-button-response","119","356490","0.0-119.0","1154","train","","","","","","","","","","","","","","perceptual","","","1","8","","","","","37","bed","10","","0",""
"","","","","","","","","","","","canvas-button-response","120","357060","0.0-120.0","568","7","","","","","","","","","","","","","","confidence","","","1","8","","","","","","","","","","4"
"","","","","","","","","","","","html-keyboard-response","121","358068","0.0-121.0","null","null","","","","","","","","","","","","","","feedback","Thu Oct 09 2025 11:50:30 GMT-0400 (Eastern Daylight Time)","26952","1","8","","","","","","","","","",""
"","","","","","","","","","","","preload","122","358069","0.0-122.0","","","","","true","","","","","","","","","","","preload","","","1","9","false","[]","[]","[]","","","","","",""
"","","","","","","","","","","","canvas-keyboard-response","123","358382","0.0-123.0","null","null","","","","","","","","","","","","","","fixation","","","1","9","","","","","","","","","",""
"","","","","","","","","","","","canvas-keyboard-response","124","358695","0.0-124.0","null","null","","","","","","","","","","","","","","stimulus","","","1","9","","","","","","","","","",""
"","","","","","","","","","","","canvas-button-response","125","360858","0.0-125.0","2162","bridge","","","","","","","","","","","","","","perceptual","","","1","9","","","","","87","elephant","10","","0",""
"","","","","","","","","","","","canvas-button-response","126","361966","0.0-126.0","1105","5","","","","","","","","","","","","","","confidence","","","1","9","","","","","","","","","","4"
"","","","","","","","","","","","html-keyboard-response","127","362967","0.0-127.0","null","null","","","","","","","","","","","","","","feedback","Thu Oct 09 2025 11:50:35 GMT-0400 (Eastern Daylight Time)","26952","1","9","","","","","","","","","",""
"","","","","","","","","","","","preload","128","362968","0.0-128.0","","","","","true","","","","","","","","","","","preload","","","1","10","false","[]","[]","[]","","","","","",""
"","","","","","","","","","","","canvas-keyboard-response","129","363284","0.0-129.0","null","null","","","","","","","","","","","","","","fixation","","","1","10","","","","","","","","","",""
"","","","","","","","","","","","canvas-keyboard-response","130","363597","0.0-130.0","null","null","","","","","","","","","","","","","","stimulus","","","1","10","","","","","","","","","",""
"","","","","","","","","","","","canvas-button-response","131","364711","0.0-131.0","1112","train","","","","","","","","","","","","","","perceptual","","","1","10","","","","","47","bridge","10","","0",""
"","","","","","","","","","","","canvas-button-response","132","365344","0.0-132.0","631","7","","","","","","","","","","","","","","confidence","","","1","10","","","","","","","","","","4"
"","","","","","","","","","","","html-keyboard-response","133","366357","0.0-133.0","null","null","","","","","","","","","","","","","","feedback","Thu Oct 09 2025 11:50:38 GMT-0400 (Eastern Daylight Time)","26952","1","10","","","","","","","","","",""
"","","","","","","","","","","","preload","134","366358","0.0-134.0","","","","","true","","","","","","","","","","","preload","","","1","11","false","[]","[]","[]","","","","","",""
"","","","","","","","","","","","canvas-keyboard-response","135","366661","0.0-135.0","null","null","","","","","","","","","","","","","","fixation","","","1","11","","","","","","","","","",""
"","","","","","","","","","","","canvas-keyboard-response","136","366967","0.0-136.0","null","null","","","","","","","","","","","","","","stimulus","","","1","11","","","","","","","","","",""
"","","","","","","","","","","","canvas-button-response","137","368613","0.0-137.0","1643","house","","","","","","","","","","","","","","perceptual","","","1","11","","","","","4","house","6","","1",""
"","","","","","","","","","","","canvas-button-response","138","370271","0.0-138.0","1656","10","","","","","","","","","","","","","","confidence","","","1","11","","","","","","","","","","5"
"","","","","","","","","","","","html-keyboard-response","139","371283","0.0-139.0","null","null","","","","","","","","","","","","","","feedback","Thu Oct 09 2025 11:50:43 GMT-0400 (Eastern Daylight Time)","26952","1","11","","","","","","","","","",""
"","","","","","","","","","","","preload","140","371283","0.0-140.0","","","","","true","","","","","","","","","","","preload","","","1","12","false","[]","[]","[]","","","","","",""
"","","","","","","","","","","","canvas-keyboard-response","141","371597","0.0-141.0","null","null","","","","","","","","","","","","","","fixation","","","1","12","","","","","","","","","",""
"","","","","","","","","","","","canvas-keyboard-response","142","371904","0.0-142.0","null","null","","","","","","","","","","","","","","stimulus","","","1","12","","","","","","","","","",""
"","","","","","","","","","","","canvas-button-response","143","373390","0.0-143.0","1482","cat","","","","","","","","","","","","","","perceptual","","","1","12","","","","","27","phone","10","","0",""
"","","","","","","","","","","","canvas-button-response","144","374078","0.0-144.0","685","5","","","","","","","","","","","","","","confidence","","","1","12","","","","","","","","","","5"
"","","","","","","","","","","","html-keyboard-response","145","375094","0.0-145.0","null","null","","","","","","","","","","","","","","feedback","Thu Oct 09 2025 11:50:47 GMT-0400 (Eastern Daylight Time)","26952","1","12","","","","","","","","","",""
"","","","","","","","","","","","preload","146","375095","0.0-146.0","","","","","true","","","","","","","","","","","preload","","","1","13","false","[]","[]","[]","","","","","",""
"","","","","","","","","","","","canvas-keyboard-response","147","375403","0.0-147.0","null","null","","","","","","","","","","","","","","fixation","","","1","13","","","","","","","","","",""
"","","","","","","","","","","","canvas-keyboard-response","148","375720","0.0-148.0","null","null","","","","","","","","","","","","","","stimulus","","","1","13","","","","","","","","","",""
"","","","","","","","","","","","canvas-button-response","149","377447","0.0-149.0","1725","flower","","","","","","","","","","","","","","perceptual","","","1","13","","","","","54","flower","6","","1",""
"","","","","","","","","","","","canvas-button-response","150","378096","0.0-150.0","647","4","","","","","","","","","","","","","","confidence","","","1","13","","","","","","","","","","6"
"","","","","","","","","","","","html-keyboard-response","151","379106","0.0-151.0","null","null","","","","","","","","","","","","","","feedback","Thu Oct 09 2025 11:50:51 GMT-0400 (Eastern Daylight Time)","26952","1","13","","","","","","","","","",""
"","","","","","","","","","","","preload","152","379107","0.0-152.0","","","","","true","","","","","","","","","","","preload","","","1","14","false","[]","[]","[]","","","","","",""
"","","","","","","","","","","","canvas-keyboard-response","153","379421","0.0-153.0","null","null","","","","","","","","","","","","","","fixation","","","1","14","","","","","","","","","",""
"","","","","","","","","","","","canvas-keyboard-response","154","379737","0.0-154.0","null","null","","","","","","","","","","","","","","stimulus","","","1","14","","","","","","","","","",""
"","","","","","","","","","","","canvas-button-response","155","381288","0.0-155.0","1549","bridge","","","","","","","","","","","","","","perceptual","","","1","14","","","","","7","house","10","","0",""
"","","","","","","","","","","","canvas-button-response","156","381912","0.0-156.0","623","5","","","","","","","","","","","","","","confidence","","","1","14","","","","","","","","","","6"
"","","","","","","","","","","","html-keyboard-response","157","382922","0.0-157.0","null","null","","","","","","","","","","","","","","feedback","Thu Oct 09 2025 11:50:55 GMT-0400 (Eastern Daylight Time)","26952","1","14","","","","","","","","","",""
"","","","","","","","","","","","preload","158","382922","0.0-158.0","","","","","true","","","","","","","","","","","preload","","","1","15","false","[]","[]","[]","","","","","",""
"","","","","","","","","","","","canvas-keyboard-response","159","383224","0.0-159.0","null","null","","","","","","","","","","","","","","fixation","","","1","15","","","","","","","","","",""
"","","","","","","","","","","","canvas-keyboard-response","160","383542","0.0-160.0","null","null","","","","","","","","","","","","","","stimulus","","","1","15","","","","","","","","","",""
"","","","","","","","","","","","canvas-button-response","161","384718","0.0-161.0","1173","phone","","","","","","","","","","","","","","perceptual","","","1","15","","","","","24","phone","6","","1",""
"","","","","","","","","","","","canvas-button-response","162","386113","0.0-162.0","1391","10","","","","","","","","","","","","","","confidence","","","1","15","","","","","","","","","","7"
"","","","","","","","","","","","html-keyboard-response","163","387129","0.0-163.0","null","null","","","","","","","","","","","","","","feedback","Thu Oct 09 2025 11:50:59 GMT-0400 (Eastern Daylight Time)","26952","1","15","","","","","","","","","",""
"","","","","","","","","","","","preload","164","387129","0.0-164.0","","","","","true","","","","","","","","","","","preload","","","1","16","false","[]","[]","[]","","","","","",""
"","","","","","","","","","","","canvas-keyboard-response","165","387432","0.0-165.0","null","null","","","","","","","","","","","","","","fixation","","","1","16","","","","","","","","","",""
"","","","","","","","","","","","canvas-keyboard-response","166","387740","0.0-166.0","null","null","","","","","","","","","","","","","","stimulus","","","1","16","","","","","","","","","",""
"","","","","","","","","","","","canvas-button-response","167","388817","0.0-167.0","1075","train","","","","","","","","","","","","","","perceptual","","","1","16","","","","","64","train","6","","1",""
"","","","","","","","","","","","canvas-button-response","168","389747","0.0-168.0","928","9","","","","","","","","","","","","","","confidence","","","1","16","","","","","","","","","","8"
"","","","","","","","","","","","html-keyboard-response","169","390756","0.0-169.0","null","null","","","","","","","","","","","","","","feedback","Thu Oct 09 2025 11:51:03 GMT-0400 (Eastern Daylight Time)","26952","1","16","","","","","","","","","",""
"","","","","","","","","","","","preload","170","390757","0.0-170.0","","","","","true","","","","","","","","","","","preload","","","1","17","false","[]","[]","[]","","","","","",""
"","","","","","","","","","","","canvas-keyboard-response","171","391074","0.0-171.0","null","null","","","","","","","","","","","","","","fixation","","","1","17","","","","","","","","","",""
"","","","","","","","","","","","canvas-keyboard-response","172","391379","0.0-172.0","null","null","","","","","","","","","","","","","","stimulus","","","1","17","","","","","","","","","",""
"","","","","","","","","","","","canvas-button-response","173","392994","0.0-173.0","1614","bridge","","","","","","","","","","","","","","perceptual","","","1","17","","","","","67","train","10","","0",""
"","","","","","","","","","","","canvas-button-response","174","393743","0.0-174.0","746","6","","","","","","","","","","","","","","confidence","","","1","17","","","","","","","","","","8"
"","","","","","","","","","","","html-keyboard-response","175","394761","0.0-175.0","null","null","","","","","","","","","","","","","","feedback","Thu Oct 09 2025 11:51:07 GMT-0400 (Eastern Daylight Time)","26952","1","17","","","","","","","","","",""
"","","","","","","","","","","","preload","176","394762","0.0-176.0","","","","","true","","","","","","","","","","","preload","","","1","18","false","[]","[]","[]","","","","","",""
"","","","","","","","","","","","canvas-keyboard-response","177","395072","0.0-177.0","null","null","","","","","","","","","","","","","","fixation","","","1","18","","","","","","","","","",""
"","","","","","","","","","","","canvas-keyboard-response","178","395375","0.0-178.0","null","null","","","","","","","","","","","","","","stimulus","","","1","18","","","","","","","","","",""
"","","","","","","","","","","","canvas-button-response","179","397089","0.0-179.0","1712","phone","","","","","","","","","","","","","","perceptual","","","1","18","","","","","94","knife","6","","0",""
"","","","","","","","","","","","canvas-button-response","180","397819","0.0-180.0","727","8","","","","","","","","","","","","","","confidence","","","1","18","","","","","","","","","","8"
"","","","","","","","","","","","html-keyboard-response","181","398826","0.0-181.0","null","null","","","","","","","","","","","","","","feedback","Thu Oct 09 2025 11:51:11 GMT-0400 (Eastern Daylight Time)","26952","1","18","","","","","","","","","",""
"","","","","","","","","","","","preload","182","398828","0.0-182.0","","","","","true","","","","","","","","","","","preload","","","1","19","false","[]","[]","[]","","","","","",""
"","","","","","","","","","","","canvas-keyboard-response","183","399144","0.0-183.0","null","null","","","","","","","","","","","","","","fixation","","","1","19","","","","","","","","","",""
"","","","","","","","","","","","canvas-keyboard-response","184","399460","0.0-184.0","null","null","","","","","","","","","","","","","","stimulus","","","1","19","","","","","","","","","",""
"","","","","","","","","","","","canvas-button-response","185","400453","0.0-185.0","991","knife","","","","","","","","","","","","","","perceptual","","","1","19","","","","","97","knife","10","","1",""
"","","","","","","","","","","","canvas-button-response","186","401594","0.0-186.0","1139","10","","","","","","","","","","","","","","confidence","","","1","19","","","","","","","","","","9"
"","","","","","","","","","","","html-keyboard-response","187","402603","0.0-187.0","null","null","","","","","","","","","","","","","","feedback","Thu Oct 09 2025 11:51:15 GMT-0400 (Eastern Daylight Time)","26952","1","19","","","","","","","","","",""
"","","","","","","","","","","","html-button-response","188","412235","0.0-188.0","9626","0","","","","","","","","","","","","","","start experiment","Thu Oct 09 2025 11:51:16 GMT-0400 (Eastern Daylight Time)","26952","1","19","","","","","","","","","",""
"","","","","","","","","","","","preload","189","412236","0.0-189.0","","","","","true","","","","","","","","","","","preload","","","2","0","false","[]","[]","[]","","","","","",""
"","","","","","","","","","","","canvas-keyboard-response","190","412549","0.0-190.0","null","null","","","","","","","","","","","","","","fixation","","","2","0","","","","","","","","","",""
"","","","","","","","","","","","canvas-keyboard-response","191","412860","0.0-191.0","null","null","","","","","","","","","","","","","","stimulus","","","2","0","","","","","","","","","",""
"","","","","","","","","","","","canvas-button-response","192","414641","0.0-192.0","1779","car","","","","","","","","","","","","","","perceptual","","","2","0","","","","","47","car","6","0","1",""
"","","","","","","","","","","","canvas-button-response","193","415854","0.0-193.0","1210","9","","","","","","","","","","","","","","confidence","","","2","0","","","","","","","","","","1"
"","","","","","","","","","","","preload","194","415855","0.0-194.0","","","","","true","","","","","","","","","","","preload","","","2","1","false","[]","[]","[]","","","","","",""
"","","","","","","","","","","","canvas-keyboard-response","195","416160","0.0-195.0","null","null","","","","","","","","","","","","","","fixation","","","2","1","","","","","","","","","",""
"","","","","","","","","","","","canvas-keyboard-response","196","416465","0.0-196.0","null","null","","","","","","","","","","","","","","stimulus","","","2","1","","","","","","","","","",""
"","","","","","","","","","","","canvas-button-response","197","418724","0.0-197.0","2256","cat","","","","","","","","","","","","","","perceptual","","","2","1","","","","","43","car","6","0","0",""
"","","","","","","","","","","","canvas-button-response","198","419259","0.0-198.0","534","7","","","","","","","","","","","","","","confidence","","","2","1","","","","","","","","","","1"
"","","","","","","","","","","","preload","199","419260","0.0-199.0","","","","","true","","","","","","","","","","","preload","","","2","2","false","[]","[]","[]","","","","","",""
"","","","","","","","","","","","canvas-keyboard-response","200","419575","0.0-200.0","null","null","","","","","","","","","","","","","","fixation","","","2","2","","","","","","","","","",""
"","","","","","","","","","","","canvas-keyboard-response","201","419881","0.0-201.0","null","null","","","","","","","","","","","","","","stimulus","","","2","2","","","","","","","","","",""
"","","","","","","","","","","","canvas-button-response","202","421372","0.0-202.0","1489","house","","","","","","","","","","","","","","perceptual","","","2","2","","","","","3","house","6","0","1",""
"","","","","","","","","","","","canvas-button-response","203","423106","0.0-203.0","1732","10","","","","","","","","","","","","","","confidence","","","2","2","","","","","","","","","","2"
"","","","","","","","","","","","preload","204","423107","0.0-204.0","","","","","true","","","","","","","","","","","preload","","","2","3","false","[]","[]","[]","","","","","",""
"","","","","","","","","","","","canvas-keyboard-response","205","423412","0.0-205.0","null","null","","","","","","","","","","","","","","fixation","","","2","3","","","","","","","","","",""
"","","","","","","","","","","","canvas-keyboard-response","206","423717","0.0-206.0","null","null","","","","","","","","","","","","","","stimulus","","","2","3","","","","","","","","","",""
"","","","","","","","","","","","canvas-button-response","207","425135","0.0-207.0","1416","train","","","","","","","","","","","","","","perceptual","","","2","3","","","","","189","bridge","10","0","0",""
"","","","","","","","","","","","canvas-button-response","208","425660","0.0-208.0","522","8","","","","","","","","","","","","","","confidence","","","2","3","","","","","","","","","","2"
"","","","","","","","","","","","preload","209","425661","0.0-209.0","","","","","true","","","","","","","","","","","preload","","","2","4","false","[]","[]","[]","","","","","",""
"","","","","","","","","","","","canvas-keyboard-response","210","425966","0.0-210.0","null","null","","","","","","","","","","","","","","fixation","","","2","4","","","","","","","","","",""
"","","","","","","","","","","","canvas-keyboard-response","211","426283","0.0-211.0","null","null","","","","","","","","","","","","","","stimulus","","","2","4","","","","","","","","","",""
"","","","","","","","","","","","canvas-button-response","212","427269","0.0-212.0","984","flower","","","","","","","","","","","","","","perceptual","","","2","4","","","","","203","flower","6","0","1",""
"","","","","","","","","","","","canvas-button-response","213","428673","0.0-213.0","1401","10","","","","","","","","","","","","","","confidence","","","2","4","","","","","","","","","","3"
"","","","","","","","","","","","preload","214","428674","0.0-214.0","","","","","true","","","","","","","","","","","preload","","","2","5","false","[]","[]","[]","","","","","",""
"","","","","","","","","","","","canvas-keyboard-response","215","428981","0.0-215.0","null","null","","","","","","","","","","","","","","fixation","","","2","5","","","","","","","","","",""
"","","","","","","","","","","","canvas-keyboard-response","216","429289","0.0-216.0","null","null","","","","","","","","","","","","","","stimulus","","","2","5","","","","","","","","","",""
"","","","","","","","","","","","canvas-button-response","217","430991","0.0-217.0","1701","phone","","","","","","","","","","","","","","perceptual","","","2","5","","","","","153","bed","10","0","0",""
"","","","","","","","","","","","canvas-button-response","218","431493","0.0-218.0","499","6","","","","","","","","","","","","","","confidence","","","2","5","","","","","","","","","","3"
"","","","","","","","","","","","preload","219","431494","0.0-219.0","","","","","true","","","","","","","","","","","preload","","","2","6","false","[]","[]","[]","","","","","",""
"","","","","","","","","","","","canvas-keyboard-response","220","431798","0.0-220.0","null","null","","","","","","","","","","","","","","fixation","","","2","6","","","","","","","","","",""
"","","","","","","","","","","","canvas-keyboard-response","221","432102","0.0-221.0","null","null","","","","","","","","","","","","","","stimulus","","","2","6","","","","","","","","","",""
"","","","","","","","","","","","canvas-button-response","222","434088","0.0-222.0","1984","house","","","","","","","","","","","","","","perceptual","","","2","6","","","","","19","house","6","0","1",""
"","","","","","","","","","","","canvas-button-response","223","435121","0.0-223.0","1030","9","","","","","","","","","","","","","","confidence","","","2","6","","","","","","","","","","4"
"","","","","","","","","","","","preload","224","435122","0.0-224.0","","","","","true","","","","","","","","","","","preload","","","2","7","false","[]","[]","[]","","","","","",""
"","","","","","","","","","","","canvas-keyboard-response","225","435424","0.0-225.0","null","null","","","","","","","","","","","","","","fixation","","","2","7","","","","","","","","","",""
"","","","","","","","","","","","canvas-keyboard-response","226","435737","0.0-226.0","null","null","","","","","","","","","","","","","","stimulus","","","2","7","","","","","","","","","",""
"","","","","","","","","","","","canvas-button-response","227","436572","0.0-227.0","833","knife","","","","","","","","","","","","","","perceptual","","","2","7","","","","","396","knife","10","0","1",""
"","","","","","","","","","","","canvas-button-response","228","437621","0.0-228.0","1047","10","","","","","","","","","","","","","","confidence","","","2","7","","","","","","","","","","5"
"","","","","","","","","","","","preload","229","437622","0.0-229.0","","","","","true","","","","","","","","","","","preload","","","2","8","false","[]","[]","[]","","","","","",""
"","","","","","","","","","","","canvas-keyboard-response","230","437938","0.0-230.0","null","null","","","","","","","","","","","","","","fixation","","","2","8","","","","","","","","","",""
"","","","","","","","","","","","canvas-keyboard-response","231","438254","0.0-231.0","null","null","","","","","","","","","","","","","","stimulus","","","2","8","","","","","","","","","",""
"","","","","","","","","","","","canvas-button-response","232","439523","0.0-232.0","1267","cat","","","","","","","","","","","","","","perceptual","","","2","8","","","","","319","cat","10","0","1",""
"","","","","","","","","","","","canvas-button-response","233","440239","0.0-233.0","713","6","","","","","","","","","","","","","","confidence","","","2","8","","","","","","","","","","6"
"","","","","","","","","","","","preload","234","440240","0.0-234.0","","","","","true","","","","","","","","","","","preload","","","2","9","false","[]","[]","[]","","","","","",""
"","","","","","","","","","","","canvas-keyboard-response","235","440548","0.0-235.0","null","null","","","","","","","","","","","","","","fixation","","","2","9","","","","","","","","","",""
"","","","","","","","","","","","canvas-keyboard-response","236","440865","0.0-236.0","null","null","","","","","","","","","","","","","","stimulus","","","2","9","","","","","","","","","",""
"","","","","","","","","","","","canvas-button-response","237","442006","0.0-237.0","1138","flower","","","","","","","","","","","","","","perceptual","","","2","9","","","","","217","flower","6","0","1",""
"","","","","","","","","","","","canvas-button-response","238","443706","0.0-238.0","1698","10","","","","","","","","","","","","","","confidence","","","2","9","","","","","","","","","","7"
"","","","","","","","","","","","preload","239","443707","0.0-239.0","","","","","true","","","","","","","","","","","preload","","","2","10","false","[]","[]","[]","","","","","",""
"","","","","","","","","","","","canvas-keyboard-response","240","444010","0.0-240.0","null","null","","","","","","","","","","","","","","fixation","","","2","10","","","","","","","","","",""
"","","","","","","","","","","","canvas-keyboard-response","241","444322","0.0-241.0","null","null","","","","","","","","","","","","","","stimulus","","","2","10","","","","","","","","","",""
"","","","","","","","","","","","canvas-button-response","242","446416","0.0-242.0","2091","house","","","","","","","","","","","","","","perceptual","","","2","10","","","","","142","bed","10","0","0",""
"","","","","","","","","","","","canvas-button-response","243","447621","0.0-243.0","1204","8","","","","","","","","","","","","","","confidence","","","2","10","","","","","","","","","","7"
"","","","","","","","","","","","preload","244","447623","0.0-244.0","","","","","true","","","","","","","","","","","preload","","","2","11","false","[]","[]","[]","","","","","",""
"","","","","","","","","","","","canvas-keyboard-response","245","447936","0.0-245.0","null","null","","","","","","","","","","","","","","fixation","","","2","11","","","","","","","","","",""
"","","","","","","","","","","","canvas-keyboard-response","246","448242","0.0-246.0","null","null","","","","","","","","","","","","","","stimulus","","","2","11","","","","","","","","","",""
"","","","","","","","","","","","canvas-button-response","247","449920","0.0-247.0","1675","car","","","","","","","","","","","","","","perceptual","","","2","11","","","","","160","bridge","6","0","0",""
"","","","","","","","","","","","canvas-button-response","248","450607","0.0-248.0","685","7","","","","","","","","","","","","","","confidence","","","2","11","","","","","","","","","","7"
"","","","","","","","","","","","preload","249","450608","0.0-249.0","","","","","true","","","","","","","","","","","preload","","","2","12","false","[]","[]","[]","","","","","",""
"","","","","","","","","","","","canvas-keyboard-response","250","450920","0.0-250.0","null","null","","","","","","","","","","","","","","fixation","","","2","12","","","","","","","","","",""
"","","","","","","","","","","","canvas-keyboard-response","251","451229","0.0-251.0","null","null","","","","","","","","","","","","","","stimulus","","","2","12","","","","","","","","","",""
"","","","","","","","","","","","canvas-button-response","252","452609","0.0-252.0","1379","cat","","","","","","","","","","","","","","perceptual","","","2","12","","","","","156","bed","10","0","0",""
"","","","","","","","","","","","canvas-button-response","253","453098","0.0-253.0","486","7","","","","","","","","","","","","","","confidence","","","2","12","","","","","","","","","","7"
"","","","","","","","","","","","preload","254","453099","0.0-254.0","","","","","true","","","","","","","","","","","preload","","","2","13","false","[]","[]","[]","","","","","",""
"","","","","","","","","","","","canvas-keyboard-response","255","453416","0.0-255.0","null","null","","","","","","","","","","","","","","fixation","","","2","13","","","","","","","","","",""
"","","","","","","","","","","","canvas-keyboard-response","256","453728","0.0-256.0","null","null","","","","","","","","","","","","","","stimulus","","","2","13","","","","","","","","","",""
"","","","","","","","","","","","canvas-button-response","257","454770","0.0-257.0","1039","car","","","","","","","","","","","","","","perceptual","","","2","13","","","","","51","car","6","0","1",""
"","","","","","","","","","","","canvas-button-response","258","455424","0.0-258.0","651","5","","","","","","","","","","","","","","confidence","","","2","13","","","","","","","","","","8"
"","","","","","","","","","","","preload","259","455424","0.0-259.0","","","","","true","","","","","","","","","","","preload","","","2","14","false","[]","[]","[]","","","","","",""
"","","","","","","","","","","","canvas-keyboard-response","260","455742","0.0-260.0","null","null","","","","","","","","","","","","","","fixation","","","2","14","","","","","","","","","",""
"","","","","","","","","","","","canvas-keyboard-response","261","456053","0.0-261.0","null","null","","","","","","","","","","","","","","stimulus","","","2","14","","","","","","","","","",""
"","","","","","","","","","","","canvas-button-response","262","457540","0.0-262.0","1484","train","","","","","","","","","","","","","","perceptual","","","2","14","","","","","242","train","6","0","1",""
"","","","","","","","","","","","canvas-button-response","263","458636","0.0-263.0","1094","9","","","","","","","","","","","","","","confidence","","","2","14","","","","","","","","","","9"
"","","","","","","","","","","","preload","264","458637","0.0-264.0","","","","","true","","","","","","","","","","","preload","","","2","15","false","[]","[]","[]","","","","","",""
"","","","","","","","","","","","canvas-keyboard-response","265","458938","0.0-265.0","null","null","","","","","","","","","","","","","","fixation","","","2","15","","","","","","","","","",""
"","","","","","","","","","","","canvas-keyboard-response","266","459253","0.0-266.0","null","null","","","","","","","","","","","","","","stimulus","","","2","15","","","","","","","","","",""
"","","","","","","","","","","","canvas-button-response","267","460241","0.0-267.0","986","cat","","","","","","","","","","","","","","perceptual","","","2","15","","","","","113","phone","10","0","0",""
"","","","","","","","","","","","canvas-button-response","268","460903","0.0-268.0","660","8","","","","","","","","","","","","","","confidence","","","2","15","","","","","","","","","","9"
"","","","","","","","","","","","preload","269","460904","0.0-269.0","","","","","true","","","","","","","","","","","preload","","","2","16","false","[]","[]","[]","","","","","",""
"","","","","","","","","","","","canvas-keyboard-response","270","461221","0.0-270.0","null","null","","","","","","","","","","","","","","fixation","","","2","16","","","","","","","","","",""
"","","","","","","","","","","","canvas-keyboard-response","271","461535","0.0-271.0","null","null","","","","","","","","","","","","","","stimulus","","","2","16","","","","","","","","","",""
"","","","","","","","","","","","canvas-button-response","272","462960","0.0-272.0","1423","house","","","","","","","","","","","","","","perceptual","","","2","16","","","","","1","house","6","0","1",""
"","","","","","","","","","","","canvas-button-response","273","463621","0.0-273.0","659","4","","","","","","","","","","","","","","confidence","","","2","16","","","","","","","","","","10"
"","","","","","","","","","","","preload","274","463622","0.0-274.0","","","","","true","","","","","","","","","","","preload","","","2","17","false","[]","[]","[]","","","","","",""
"","","","","","","","","","","","canvas-keyboard-response","275","463927","0.0-275.0","null","null","","","","","","","","","","","","","","fixation","","","2","17","","","","","","","","","",""
"","","","","","","","","","","","canvas-keyboard-response","276","464231","0.0-276.0","null","null","","","","","","","","","","","","","","stimulus","","","2","17","","","","","","","","","",""
"","","","","","","","","","","","canvas-button-response","277","465546","0.0-277.0","1313","house","","","","","","","","","","","","","","perceptual","","","2","17","","","","","23","house","10","0","1",""
"","","","","","","","","","","","canvas-button-response","278","466367","0.0-278.0","815","4","","","","","","","","","","","","","","confidence","","","2","17","","","","","","","","","","11"
"","","","","","","","","","","","preload","279","466368","0.0-279.0","","","","","true","","","","","","","","","","","preload","","","2","18","false","[]","[]","[]","","","","","",""
"","","","","","","","","","","","canvas-keyboard-response","280","466676","0.0-280.0","null","null","","","","","","","","","","","","","","fixation","","","2","18","","","","","","","","","",""
"","","","","","","","","","","","canvas-keyboard-response","281","466978","0.0-281.0","null","null","","","","","","","","","","","","","","stimulus","","","2","18","","","","","","","","","",""
"","","","","","","","","","","","canvas-button-response","282","470019","0.0-282.0","3039","house","","","","","","","","","","","","","","perceptual","","","2","18","","","","","161","bridge","6","0","0",""
"","","","","","","","","","","","canvas-button-response","283","470749","0.0-283.0","727","5","","","","","","","","","","","","","","confidence","","","2","18","","","","","","","","","","11"
"","","","","","","","","","","","preload","284","470750","0.0-284.0","","","","","true","","","","","","","","","","","preload","","","2","19","false","[]","[]","[]","","","","","",""
"","","","","","","","","","","","canvas-keyboard-response","285","471058","0.0-285.0","null","null","","","","","","","","","","","","","","fixation","","","2","19","","","","","","","","","",""
"","","","","","","","","","","","canvas-keyboard-response","286","471363","0.0-286.0","null","null","","","","","","","","","","","","","","stimulus","","","2","19","","","","","","","","","",""
"","","","","","","","","","","","canvas-button-response","287","474807","0.0-287.0","3442","flower","","","","","","","","","","","","","","perceptual","","","2","19","","","","","348","elephant","10","0","0",""
"","","","","","","","","","","","canvas-button-response","288","476341","0.0-288.0","1531","3","","","","","","","","","","","","","","confidence","","","2","19","","","","","","","","","","11"
"","","","","","","","","","","","preload","289","476342","0.0-289.0","","","","","true","","","","","","","","","","","preload","","","2","20","false","[]","[]","[]","","","","","",""
"","","","","","","","","","","","canvas-keyboard-response","290","476653","0.0-290.0","null","null","","","","","","","","","","","","","","fixation","","","2","20","","","","","","","","","",""
"","","","","","","","","","","","canvas-keyboard-response","291","476963","0.0-291.0","null","null","","","","","","","","","","","","","","stimulus","","","2","20","","","","","","","","","",""
"","","","","","","","","","","","canvas-button-response","292","478058","0.0-292.0","1093","car","","","","","","","","","","","","","","perceptual","","","2","20","","","","","55","car","6","0","1",""
"","","","","","","","","","","","canvas-button-response","293","479121","0.0-293.0","1061","9","","","","","","","","","","","","","","confidence","","","2","20","","","","","","","","","","12"
"","","","","","","","","","","","preload","294","479122","0.0-294.0","","","","","true","","","","","","","","","","","preload","","","2","21","false","[]","[]","[]","","","","","",""
"","","","","","","","","","","","canvas-keyboard-response","295","479431","0.0-295.0","null","null","","","","","","","","","","","","","","fixation","","","2","21","","","","","","","","","",""
"","","","","","","","","","","","canvas-keyboard-response","296","479742","0.0-296.0","null","null","","","","","","","","","","","","","","stimulus","","","2","21","","","","","","","","","",""
"","","","","","","","","","","","canvas-button-response","297","481364","0.0-297.0","1620","house","","","","","","","","","","","","","","perceptual","","","2","21","","","","","322","elephant","6","0","0",""
"","","","","","","","","","","","canvas-button-response","298","482390","0.0-298.0","1024","3","","","","","","","","","","","","","","confidence","","","2","21","","","","","","","","","","12"
"","","","","","","","","","","","preload","299","482392","0.0-299.0","","","","","true","","","","","","","","","","","preload","","","2","22","false","[]","[]","[]","","","","","",""
"","","","","","","","","","","","canvas-keyboard-response","300","482707","0.0-300.0","null","null","","","","","","","","","","","","","","fixation","","","2","22","","","","","","","","","",""
"","","","","","","","","","","","canvas-keyboard-response","301","483017","0.0-301.0","null","null","","","","","","","","","","","","","","stimulus","","","2","22","","","","","","","","","",""
"","","","","","","","","","","","canvas-button-response","302","486257","0.0-302.0","3237","phone","","","","","","","","","","","","","","perceptual","","","2","22","","","","","96","phone","6","0","1",""
"","","","","","","","","","","","canvas-button-response","303","487591","0.0-303.0","1332","3","","","","","","","","","","","","","","confidence","","","2","22","","","","","","","","","","13"
"","","","","","","","","","","","preload","304","487592","0.0-304.0","","","","","true","","","","","","","","","","","preload","","","2","23","false","[]","[]","[]","","","","","",""
"","","","","","","","","","","","canvas-keyboard-response","305","487902","0.0-305.0","null","null","","","","","","","","","","","","","","fixation","","","2","23","","","","","","","","","",""
"","","","","","","","","","","","canvas-keyboard-response","306","488217","0.0-306.0","null","null","","","","","","","","","","","","","","stimulus","","","2","23","","","","","","","","","",""
"","","","","","","","","","","","canvas-button-response","307","490585","0.0-307.0","2365","phone","","","","","","","","","","","","","","perceptual","","","2","23","","","","","83","phone","6","0","1",""
"","","","","","","","","","","","canvas-button-response","308","491548","0.0-308.0","960","9","","","","","","","","","","","","","","confidence","","","2","23","","","","","","","","","","14"
"","","","","","","","","","","","preload","309","491549","0.0-309.0","","","","","true","","","","","","","","","","","preload","","","2","24","false","[]","[]","[]","","","","","",""
"","","","","","","","","","","","canvas-keyboard-response","310","491852","0.0-310.0","null","null","","","","","","","","","","","","","","fixation","","","2","24","","","","","","","","","",""
"","","","","","","","","","","","canvas-keyboard-response","311","492161","0.0-311.0","null","null","","","","","","","","","","","","","","stimulus","","","2","24","","","","","","","","","",""
"","","","","","","","","","","","canvas-button-response","312","493336","0.0-312.0","1174","elephant","","","","","","","","","","","","","","perceptual","","","2","24","","","","","353","elephant","10","0","1",""
"","","","","","","","","","","","canvas-button-response","313","493938","0.0-313.0","599","8","","","","","","","","","","","","","","confidence","","","2","24","","","","","","","","","","15"
"","","","","","","","","","","","preload","314","493939","0.0-314.0","","","","","true","","","","","","","","","","","preload","","","2","25","false","[]","[]","[]","","","","","",""
"","","","","","","","","","","","canvas-keyboard-response","315","494248","0.0-315.0","null","null","","","","","","","","","","","","","","fixation","","","2","25","","","","","","","","","",""
"","","","","","","","","","","","canvas-keyboard-response","316","494561","0.0-316.0","null","null","","","","","","","","","","","","","","stimulus","","","2","25","","","","","","","","","",""
"","","","","","","","","","","","canvas-button-response","317","496164","0.0-317.0","1600","flower","","","","","","","","","","","","","","perceptual","","","2","25","","","","","272","train","10","0","0",""
"","","","","","","","","","","","canvas-button-response","318","496912","0.0-318.0","746","5","","","","","","","","","","","","","","confidence","","","2","25","","","","","","","","","","15"
"","","","","","","","","","","","preload","319","496915","0.0-319.0","","","","","true","","","","","","","","","","","preload","","","2","26","false","[]","[]","[]","","","","","",""
"","","","","","","","","","","","canvas-keyboard-response","320","497219","0.0-320.0","null","null","","","","","","","","","","","","","","fixation","","","2","26","","","","","","","","","",""
"","","","","","","","","","","","canvas-keyboard-response","321","497536","0.0-321.0","null","null","","","","","","","","","","","","","","stimulus","","","2","26","","","","","","","","","",""
"","","","","","","","","","","","canvas-button-response","322","500478","0.0-322.0","2940","bridge","","","","","","","","","","","","","","perceptual","","","2","26","","","","","214","flower","6","0","0",""
"","","","","","","","","","","","canvas-button-response","323","501159","0.0-323.0","679","4","","","","","","","","","","","","","","confidence","","","2","26","","","","","","","","","","15"
"","","","","","","","","","","","preload","324","501160","0.0-324.0","","","","","true","","","","","","","","","","","preload","","","2","27","false","[]","[]","[]","","","","","",""
"","","","","","","","","","","","canvas-keyboard-response","325","501469","0.0-325.0","null","null","","","","","","","","","","","","","","fixation","","","2","27","","","","","","","","","",""
"","","","","","","","","","","","canvas-keyboard-response","326","501774","0.0-326.0","null","null","","","","","","","","","","","","","","stimulus","","","2","27","","","","","","","","","",""
"","","","","","","","","","","","canvas-button-response","327","502755","0.0-327.0","978","train","","","","","","","","","","","","","","perceptual","","","2","27","","","","","168","bridge","6","0","0",""
"","","","","","","","","","","","canvas-button-response","328","503588","0.0-328.0","830","9","","","","","","","","","","","","","","confidence","","","2","27","","","","","","","","","","15"
"","","","","","","","","","","","preload","329","503589","0.0-329.0","","","","","true","","","","","","","","","","","preload","","","2","28","false","[]","[]","[]","","","","","",""
"","","","","","","","","","","","canvas-keyboard-response","330","503898","0.0-330.0","null","null","","","","","","","","","","","","","","fixation","","","2","28","","","","","","","","","",""
"","","","","","","","","","","","canvas-keyboard-response","331","504205","0.0-331.0","null","null","","","","","","","","","","","","","","stimulus","","","2","28","","","","","","","","","",""
"","","","","","","","","","","","canvas-button-response","332","506504","0.0-332.0","2298","car","","","","","","","","","","","","","","perceptual","","","2","28","","","","","68","car","10","0","1",""
"","","","","","","","","","","","canvas-button-response","333","507186","0.0-333.0","680","5","","","","","","","","","","","","","","confidence","","","2","28","","","","","","","","","","16"
"","","","","","","","","","","","preload","334","507188","0.0-334.0","","","","","true","","","","","","","","","","","preload","","","2","29","false","[]","[]","[]","","","","","",""
"","","","","","","","","","","","canvas-keyboard-response","335","507498","0.0-335.0","null","null","","","","","","","","","","","","","","fixation","","","2","29","","","","","","","","","",""
"","","","","","","","","","","","canvas-keyboard-response","336","507806","0.0-336.0","null","null","","","","","","","","","","","","","","stimulus","","","2","29","","","","","","","","","",""
"","","","","","","","","","","","canvas-button-response","337","508699","0.0-337.0","891","car","","","","","","","","","","","","","","perceptual","","","2","29","","","","","42","car","6","0","1",""
"","","","","","","","","","","","canvas-button-response","338","509698","0.0-338.0","997","5","","","","","","","","","","","","","","confidence","","","2","29","","","","","","","","","","17"
"","","","","","","","","","","","preload","339","509699","0.0-339.0","","","","","true","","","","","","","","","","","preload","","","2","30","false","[]","[]","[]","","","","","",""
"","","","","","","","","","","","canvas-keyboard-response","340","510002","0.0-340.0","null","null","","","","","","","","","","","","","","fixation","","","2","30","","","","","","","","","",""
"","","","","","","","","","","","canvas-keyboard-response","341","510316","0.0-341.0","null","null","","","","","","","","","","","","","","stimulus","","","2","30","","","","","","","","","",""
"","","","","","","","","","","","canvas-button-response","342","512229","0.0-342.0","1911","cat","","","","","","","","","","","","","","perceptual","","","2","30","","","","","235","flower","10","0","0",""
"","","","","","","","","","","","canvas-button-response","343","512773","0.0-343.0","542","6","","","","","","","","","","","","","","confidence","","","2","30","","","","","","","","","","17"
"","","","","","","","","","","","preload","344","512774","0.0-344.0","","","","","true","","","","","","","","","","","preload","","","2","31","false","[]","[]","[]","","","","","",""
"","","","","","","","","","","","canvas-keyboard-response","345","513087","0.0-345.0","null","null","","","","","","","","","","","","","","fixation","","","2","31","","","","","","","","","",""
"","","","","","","","","","","","canvas-keyboard-response","346","513404","0.0-346.0","null","null","","","","","","","","","","","","","","stimulus","","","2","31","","","","","","","","","",""
"","","","","","","","","","","","canvas-button-response","347","514781","0.0-347.0","1375","phone","","","","","","","","","","","","","","perceptual","","","2","31","","","","","95","phone","6","0","1",""
"","","","","","","","","","","","canvas-button-response","348","515725","0.0-348.0","942","8","","","","","","","","","","","","","","confidence","","","2","31","","","","","","","","","","18"
"","","","","","","","","","","","preload","349","515726","0.0-349.0","","","","","true","","","","","","","","","","","preload","","","2","32","false","[]","[]","[]","","","","","",""
"","","","","","","","","","","","canvas-keyboard-response","350","516045","0.0-350.0","null","null","","","","","","","","","","","","","","fixation","","","2","32","","","","","","","","","",""
"","","","","","","","","","","","canvas-keyboard-response","351","516358","0.0-351.0","null","null","","","","","","","","","","","","","","stimulus","","","2","32","","","","","","","","","",""
"","","","","","","","","","","","canvas-button-response","352","518139","0.0-352.0","1779","cat","","","","","","","","","","","","","","perceptual","","","2","32","","","","","300","cat","10","0","1",""
"","","","","","","","","","","","canvas-button-response","353","519261","0.0-353.0","1120","8","","","","","","","","","","","","","","confidence","","","2","32","","","","","","","","","","19"
"","","","","","","","","","","","preload","354","519262","0.0-354.0","","","","","true","","","","","","","","","","","preload","","","2","33","false","[]","[]","[]","","","","","",""
"","","","","","","","","","","","canvas-keyboard-response","355","519570","0.0-355.0","null","null","","","","","","","","","","","","","","fixation","","","2","33","","","","","","","","","",""
"","","","","","","","","","","","canvas-keyboard-response","356","519876","0.0-356.0","null","null","","","","","","","","","","","","","","stimulus","","","2","33","","","","","","","","","",""
"","","","","","","","","","","","canvas-button-response","357","521187","0.0-357.0","1309","knife","","","","","","","","","","","","","","perceptual","","","2","33","","","","","231","flower","10","0","0",""
"","","","","","","","","","","","canvas-button-response","358","521891","0.0-358.0","701","6","","","","","","","","","","","","","","confidence","","","2","33","","","","","","","","","","19"
"","","","","","","","","","","","preload","359","521892","0.0-359.0","","","","","true","","","","","","","","","","","preload","","","2","34","false","[]","[]","[]","","","","","",""
"","","","","","","","","","","","canvas-keyboard-response","360","522194","0.0-360.0","null","null","","","","","","","","","","","","","","fixation","","","2","34","","","","","","","","","",""
"","","","","","","","","","","","canvas-keyboard-response","361","522509","0.0-361.0","null","null","","","","","","","","","","","","","","stimulus","","","2","34","","","","","","","","","",""
"","","","","","","","","","","","canvas-button-response","362","523761","0.0-362.0","1250","bed","","","","","","","","","","","","","","perceptual","","","2","34","","","","","147","bed","10","0","1",""
"","","","","","","","","","","","canvas-button-response","363","524855","0.0-363.0","1090","8","","","","","","","","","","","","","","confidence","","","2","34","","","","","","","","","","20"
"","","","","","","","","","","","preload","364","524856","0.0-364.0","","","","","true","","","","","","","","","","","preload","","","2","35","false","[]","[]","[]","","","","","",""
"","","","","","","","","","","","canvas-keyboard-response","365","525163","0.0-365.0","null","null","","","","","","","","","","","","","","fixation","","","2","35","","","","","","","","","",""
"","","","","","","","","","","","canvas-keyboard-response","366","525465","0.0-366.0","null","null","","","","","","","","","","","","","","stimulus","","","2","35","","","","","","","","","",""
"","","","","","","","","","","","canvas-button-response","367","528348","0.0-367.0","2881","flower","","","","","","","","","","","","","","perceptual","","","2","35","","","","","306","cat","10","0","0",""
"","","","","","","","","","","","canvas-button-response","368","529747","0.0-368.0","1396","7","","","","","","","","","","","","","","confidence","","","2","35","","","","","","","","","","20"
"","","","","","","","","","","","preload","369","529748","0.0-369.0","","","","","true","","","","","","","","","","","preload","","","2","36","false","[]","[]","[]","","","","","",""
"","","","","","","","","","","","canvas-keyboard-response","370","530062","0.0-370.0","null","null","","","","","","","","","","","","","","fixation","","","2","36","","","","","","","","","",""
"","","","","","","","","","","","canvas-keyboard-response","371","530379","0.0-371.0","null","null","","","","","","","","","","","","","","stimulus","","","2","36","","","","","","","","","",""
"","","","","","","","","","","","canvas-button-response","372","533916","0.0-372.0","3534","cat","","","","","","","","","","","","","","perceptual","","","2","36","","","","","172","bridge","6","0","0",""
"","","","","","","","","","","","canvas-button-response","373","544395","0.0-373.0","10475","7","","","","","","","","","","","","","","confidence","","","2","36","","","","","","","","","","20"
"","","","","","","","","","","","preload","374","544396","0.0-374.0","","","","","true","","","","","","","","","","","preload","","","2","37","false","[]","[]","[]","","","","","",""
"","","","","","","","","","","","canvas-keyboard-response","375","544700","0.0-375.0","null","null","","","","","","","","","","","","","","fixation","","","2","37","","","","","","","","","",""
"","","","","","","","","","","","canvas-keyboard-response","376","545006","0.0-376.0","null","null","","","","","","","","","","","","","","stimulus","","","2","37","","","","","","","","","",""
"","","","","","","","","","","","canvas-button-response","377","546790","0.0-377.0","1782","car","","","","","","","","","","","","","","perceptual","","","2","37","","","","","128","bed","6","0","0",""
"","","","","","","","","","","","canvas-button-response","378","548015","0.0-378.0","1222","5","","","","","","","","","","","","","","confidence","","","2","37","","","","","","","","","","20"
"","","","","","","","","","","","preload","379","548016","0.0-379.0","","","","","true","","","","","","","","","","","preload","","","2","38","false","[]","[]","[]","","","","","",""
"","","","","","","","","","","","canvas-keyboard-response","380","548326","0.0-380.0","null","null","","","","","","","","","","","","","","fixation","","","2","38","","","","","","","","","",""
"","","","","","","","","","","","canvas-keyboard-response","381","548633","0.0-381.0","null","null","","","","","","","","","","","","","","stimulus","","","2","38","","","","","","","","","",""
"","","","","","","","","","","","canvas-button-response","382","549893","0.0-382.0","1258","train","","","","","","","","","","","","","","perceptual","","","2","38","","","","","162","bridge","6","0","0",""
"","","","","","","","","","","","canvas-button-response","383","550602","0.0-383.0","706","7","","","","","","","","","","","","","","confidence","","","2","38","","","","","","","","","","20"
"","","","","","","","","","","","preload","384","550603","0.0-384.0","","","","","true","","","","","","","","","","","preload","","","2","39","false","[]","[]","[]","","","","","",""
"","","","","","","","","","","","canvas-keyboard-response","385","550916","0.0-385.0","null","null","","","","","","","","","","","","","","fixation","","","2","39","","","","","","","","","",""
"","","","","","","","","","","","canvas-keyboard-response","386","551230","0.0-386.0","null","null","","","","","","","","","","","","","","stimulus","","","2","39","","","","","","","","","",""
"","","","","","","","","","","","canvas-button-response","387","552267","0.0-387.0","1035","bridge","","","","","","","","","","","","","","perceptual","","","2","39","","","","","212","flower","6","0","0",""
"","","","","","","","","","","","canvas-button-response","388","553410","0.0-388.0","1141","3","","","","","","","","","","","","","","confidence","","","2","39","","","","","","","","","","20"
"","","","","","","","","","","","preload","389","553411","0.0-389.0","","","","","true","","","","","","","","","","","preload","","","2","40","false","[]","[]","[]","","","","","",""
"","","","","","","","","","","","canvas-keyboard-response","390","553728","0.0-390.0","null","null","","","","","","","","","","","","","","fixation","","","2","40","","","","","","","","","",""
"","","","","","","","","","","","canvas-keyboard-response","391","554034","0.0-391.0","null","null","","","","","","","","","","","","","","stimulus","","","2","40","","","","","","","","","",""
"","","","","","","","","","","","canvas-button-response","392","554972","0.0-392.0","936","knife","","","","","","","","","","","","","","perceptual","","","2","40","","","","","141","bed","10","0","0",""
"","","","","","","","","","","","canvas-button-response","393","556010","0.0-393.0","1035","4","","","","","","","","","","","","","","confidence","","","2","40","","","","","","","","","","20"
"","","","","","","","","","","","preload","394","556011","0.0-394.0","","","","","true","","","","","","","","","","","preload","","","2","41","false","[]","[]","[]","","","","","",""
"","","","","","","","","","","","canvas-keyboard-response","395","556327","0.0-395.0","null","null","","","","","","","","","","","","","","fixation","","","2","41","","","","","","","","","",""
"","","","","","","","","","","","canvas-keyboard-response","396","556636","0.0-396.0","null","null","","","","","","","","","","","","","","stimulus","","","2","41","","","","","","","","","",""
"","","","","","","","","","","","canvas-button-response","397","558646","0.0-397.0","2009","bridge","","","","","","","","","","","","","","perceptual","","","2","41","","","","","388","knife","10","0","0",""
"","","","","","","","","","","","canvas-button-response","398","559395","0.0-398.0","747","4","","","","","","","","","","","","","","confidence","","","2","41","","","","","","","","","","20"
"","","","","","","","","","","","preload","399","559396","0.0-399.0","","","","","true","","","","","","","","","","","preload","","","2","42","false","[]","[]","[]","","","","","",""
"","","","","","","","","","","","canvas-keyboard-response","400","559714","0.0-400.0","null","null","","","","","","","","","","","","","","fixation","","","2","42","","","","","","","","","",""
"","","","","","","","","","","","canvas-keyboard-response","401","560021","0.0-401.0","null","null","","","","","","","","","","","","","","stimulus","","","2","42","","","","","","","","","",""
"","","","","","","","","","","","canvas-button-response","402","561068","0.0-402.0","1046","knife","","","","","","","","","","","","","","perceptual","","","2","42","","","","","108","phone","10","0","0",""
"","","","","","","","","","","","canvas-button-response","403","561845","0.0-403.0","775","7","","","","","","","","","","","","","","confidence","","","2","42","","","","","","","","","","20"
"","","","","","","","","","","","preload","404","561847","0.0-404.0","","","","","true","","","","","","","","","","","preload","","","2","43","false","[]","[]","[]","","","","","",""
"","","","","","","","","","","","canvas-keyboard-response","405","562155","0.0-405.0","null","null","","","","","","","","","","","","","","fixation","","","2","43","","","","","","","","","",""
"","","","","","","","","","","","canvas-keyboard-response","406","562458","0.0-406.0","null","null","","","","","","","","","","","","","","stimulus","","","2","43","","","","","","","","","",""
"","","","","","","","","","","","canvas-button-response","407","563413","0.0-407.0","953","car","","","","","","","","","","","","","","perceptual","","","2","43","","","","","325","elephant","6","0","0",""
"","","","","","","","","","","","canvas-button-response","408","563889","0.0-408.0","473","5","","","","","","","","","","","","","","confidence","","","2","43","","","","","","","","","","20"
"","","","","","","","","","","","preload","409","563890","0.0-409.0","","","","","true","","","","","","","","","","","preload","","","2","44","false","[]","[]","[]","","","","","",""
"","","","","","","","","","","","canvas-keyboard-response","410","564205","0.0-410.0","null","null","","","","","","","","","","","","","","fixation","","","2","44","","","","","","","","","",""
"","","","","","","","","","","","canvas-keyboard-response","411","564521","0.0-411.0","null","null","","","","","","","","","","","","","","stimulus","","","2","44","","","","","","","","","",""
"","","","","","","","","","","","canvas-button-response","412","568382","0.0-412.0","3860","house","","","","","","","","","","","","","","perceptual","","","2","44","","","","","107","phone","10","0","0",""
"","","","","","","","","","","","canvas-button-response","413","569963","0.0-413.0","1578","3","","","","","","","","","","","","","","confidence","","","2","44","","","","","","","","","","20"
"","","","","","","","","","","","preload","414","569964","0.0-414.0","","","","","true","","","","","","","","","","","preload","","","2","45","false","[]","[]","[]","","","","","",""
"","","","","","","","","","","","canvas-keyboard-response","415","570272","0.0-415.0","null","null","","","","","","","","","","","","","","fixation","","","2","45","","","","","","","","","",""
"","","","","","","","","","","","canvas-keyboard-response","416","570583","0.0-416.0","null","null","","","","","","","","","","","","","","stimulus","","","2","45","","","","","","","","","",""
"","","","","","","","","","","","canvas-button-response","417","572454","0.0-417.0","1868","knife","","","","","","","","","","","","","","perceptual","","","2","45","","","","","393","knife","10","0","1",""
"","","","","","","","","","","","canvas-button-response","418","573287","0.0-418.0","830","9","","","","","","","","","","","","","","confidence","","","2","45","","","","","","","","","","21"
"","","","","","","","","","","","preload","419","573288","0.0-419.0","","","","","true","","","","","","","","","","","preload","","","2","46","false","[]","[]","[]","","","","","",""
"","","","","","","","","","","","canvas-keyboard-response","420","573592","0.0-420.0","null","null","","","","","","","","","","","","","","fixation","","","2","46","","","","","","","","","",""
"","","","","","","","","","","","canvas-keyboard-response","421","573907","0.0-421.0","null","null","","","","","","","","","","","","","","stimulus","","","2","46","","","","","","","","","",""
"","","","","","","","","","","","canvas-button-response","422","575158","0.0-422.0","1248","bed","","","","","","","","","","","","","","perceptual","","","2","46","","","","","124","bed","6","0","1",""
"","","","","","","","","","","","canvas-button-response","423","576646","0.0-423.0","1485","9","","","","","","","","","","","","","","confidence","","","2","46","","","","","","","","","","22"
"","","","","","","","","","","","preload","424","576646","0.0-424.0","","","","","true","","","","","","","","","","","preload","","","2","47","false","[]","[]","[]","","","","","",""
"","","","","","","","","","","","canvas-keyboard-response","425","576948","0.0-425.0","null","null","","","","","","","","","","","","","","fixation","","","2","47","","","","","","","","","",""
"","","","","","","","","","","","canvas-keyboard-response","426","577262","0.0-426.0","null","null","","","","","","","","","","","","","","stimulus","","","2","47","","","","","","","","","",""
"","","","","","","","","","","","canvas-button-response","427","578049","0.0-427.0","786","car","","","","","","","","","","","","","","perceptual","","","2","47","","","","","184","bridge","10","0","0",""
"","","","","","","","","","","","canvas-button-response","428","579320","0.0-428.0","1269","5","","","","","","","","","","","","","","confidence","","","2","47","","","","","","","","","","22"
"","","","","","","","","","","","preload","429","579321","0.0-429.0","","","","","true","","","","","","","","","","","preload","","","2","48","false","[]","[]","[]","","","","","",""
"","","","","","","","","","","","canvas-keyboard-response","430","579637","0.0-430.0","null","null","","","","","","","","","","","","","","fixation","","","2","48","","","","","","","","","",""
"","","","","","","","","","","","canvas-keyboard-response","431","579951","0.0-431.0","null","null","","","","","","","","","","","","","","stimulus","","","2","48","","","","","","","","","",""
"","","","","","","","","","","","canvas-button-response","432","581580","0.0-432.0","1626","car","","","","","","","","","","","","","","perceptual","","","2","48","","","","","381","knife","10","0","0",""
"","","","","","","","","","","","canvas-button-response","433","582905","0.0-433.0","1322","5","","","","","","","","","","","","","","confidence","","","2","48","","","","","","","","","","22"
"","","","","","","","","","","","preload","434","582906","0.0-434.0","","","","","true","","","","","","","","","","","preload","","","2","49","false","[]","[]","[]","","","","","",""
"","","","","","","","","","","","canvas-keyboard-response","435","583209","0.0-435.0","null","null","","","","","","","","","","","","","","fixation","","","2","49","","","","","","","","","",""
"","","","","","","","","","","","canvas-keyboard-response","436","583526","0.0-436.0","null","null","","","","","","","","","","","","","","stimulus","","","2","49","","","","","","","","","",""
"","","","","","","","","","","","canvas-button-response","437","584503","0.0-437.0","975","car","","","","","","","","","","","","","","perceptual","","","2","49","","","","","100","phone","10","0","0",""
"","","","","","","","","","","","canvas-button-response","438","584978","0.0-438.0","473","5","","","","","","","","","","","","","","confidence","","","2","49","","","","","","","","","","22"
"","","","","","","","","","","","html-button-response","439","593798","0.0-439.0","8805","0","","","","","","","","","","","","","","<p style=""font-size:20px;color:#000000"">You got 22 out of 50 trials correct in this block.<br><br>You have completed 6% of the experiment.<br><br>Take a short break.<br><br>When you are ready, click Continue to proceed.","","","2","49","","","","","","","","","",""
"","","","","","","","","","","","html-keyboard-response","440","594809","0.0-440.0","null","null","","","","","","","","","","","","","","<p style=""font-size:32px;color:#000000""><br><br> RUN: &nbsp 1/4 <br><br> BLOCK: 2/4 ","","","2","49","","","","","","","","","",""
"","","","","","","","","","","","preload","441","594809","0.0-441.0","","","","","true","","","","","","","","","","","preload","","","2","50","false","[]","[]","[]","","","","","",""
"","","","","","","","","","","","canvas-keyboard-response","442","595113","0.0-442.0","null","null","","","","","","","","","","","","","","fixation","","","2","50","","","","","","","","","",""
"","","","","","","","","","","","canvas-keyboard-response","443","595428","0.0-443.0","null","null","","","","","","","","","","","","","","stimulus","","","2","50","","","","","","","","","",""
"","","","","","","","","","","","canvas-button-response","444","596411","0.0-444.0","980","car","","","","","","","","","","","","","","perceptual","","","2","50","","","","","386","knife","10","0","0",""
"","","","","","","","","","","","canvas-button-response","445","597161","0.0-445.0","748","6","","","","","","","","","","","","","","confidence","","","2","50","","","","","","","","","","0"
"","","","","","","","","","","","preload","446","597162","0.0-446.0","","","","","true","","","","","","","","","","","preload","","","2","51","false","[]","[]","[]","","","","","",""
"","","","","","","","","","","","canvas-keyboard-response","447","597467","0.0-447.0","null","null","","","","","","","","","","","","","","fixation","","","2","51","","","","","","","","","",""
"","","","","","","","","","","","canvas-keyboard-response","448","597774","0.0-448.0","null","null","","","","","","","","","","","","","","stimulus","","","2","51","","","","","","","","","",""
"","","","","","","","","","","","canvas-button-response","449","598640","0.0-449.0","864","car","","","","","","","","","","","","","","perceptual","","","2","51","","","","","58","car","6","0","1",""
"","","","","","","","","","","","canvas-button-response","450","599245","0.0-450.0","602","6","","","","","","","","","","","","","","confidence","","","2","51","","","","","","","","","","1"
"","","","","","","","","","","","preload","451","599246","0.0-451.0","","","","","true","","","","","","","","","","","preload","","","2","52","false","[]","[]","[]","","","","","",""
"","","","","","","","","","","","canvas-keyboard-response","452","599563","0.0-452.0","null","null","","","","","","","","","","","","","","fixation","","","2","52","","","","","","","","","",""
"","","","","","","","","","","","canvas-keyboard-response","453","599880","0.0-453.0","null","null","","","","","","","","","","","","","","stimulus","","","2","52","","","","","","","","","",""
"","","","","","","","","","","","canvas-button-response","454","600682","0.0-454.0","801","cat","","","","","","","","","","","","","","perceptual","","","2","52","","","","","296","cat","6","0","1",""
"","","","","","","","","","","","canvas-button-response","455","601138","0.0-455.0","453","7","","","","","","","","","","","","","","confidence","","","2","52","","","","","","","","","","2"
"","","","","","","","","","","","preload","456","601139","0.0-456.0","","","","","true","","","","","","","","","","","preload","","","2","53","false","[]","[]","[]","","","","","",""
"","","","","","","","","","","","canvas-keyboard-response","457","601447","0.0-457.0","null","null","","","","","","","","","","","","","","fixation","","","2","53","","","","","","","","","",""
"","","","","","","","","","","","canvas-keyboard-response","458","601763","0.0-458.0","null","null","","","","","","","","","","","","","","stimulus","","","2","53","","","","","","","","","",""
"","","","","","","","","","","","canvas-button-response","459","603042","0.0-459.0","1278","phone","","","","","","","","","","","","","","perceptual","","","2","53","","","","","97","phone","6","0","1",""
"","","","","","","","","","","","canvas-button-response","460","603629","0.0-460.0","584","6","","","","","","","","","","","","","","confidence","","","2","53","","","","","","","","","","3"
"","","","","","","","","","","","preload","461","603630","0.0-461.0","","","","","true","","","","","","","","","","","preload","","","2","54","false","[]","[]","[]","","","","","",""
"","","","","","","","","","","","canvas-keyboard-response","462","603932","0.0-462.0","null","null","","","","","","","","","","","","","","fixation","","","2","54","","","","","","","","","",""
"","","","","","","","","","","","canvas-keyboard-response","463","604247","0.0-463.0","null","null","","","","","","","","","","","","","","stimulus","","","2","54","","","","","","","","","",""
"","","","","","","","","","","","canvas-button-response","464","605527","0.0-464.0","1277","house","","","","","","","","","","","","","","perceptual","","","2","54","","","","","14","house","6","0","1",""
"","","","","","","","","","","","canvas-button-response","465","606173","0.0-465.0","644","6","","","","","","","","","","","","","","confidence","","","2","54","","","","","","","","","","4"
"","","","","","","","","","","","preload","466","606174","0.0-466.0","","","","","true","","","","","","","","","","","preload","","","2","55","false","[]","[]","[]","","","","","",""
"","","","","","","","","","","","canvas-keyboard-response","467","606480","0.0-467.0","null","null","","","","","","","","","","","","","","fixation","","","2","55","","","","","","","","","",""
"","","","","","","","","","","","canvas-keyboard-response","468","606793","0.0-468.0","null","null","","","","","","","","","","","","","","stimulus","","","2","55","","","","","","","","","",""
"","","","","","","","","","","","canvas-button-response","469","608058","0.0-469.0","1264","elephant","","","","","","","","","","","","","","perceptual","","","2","55","","","","","73","car","10","0","0",""
"","","","","","","","","","","","canvas-button-response","470","608747","0.0-470.0","686","6","","","","","","","","","","","","","","confidence","","","2","55","","","","","","","","","","4"
"","","","","","","","","","","","preload","471","608748","0.0-471.0","","","","","true","","","","","","","","","","","preload","","","2","56","false","[]","[]","[]","","","","","",""
"","","","","","","","","","","","canvas-keyboard-response","472","609059","0.0-472.0","null","null","","","","","","","","","","","","","","fixation","","","2","56","","","","","","","","","",""
"","","","","","","","","","","","canvas-keyboard-response","473","609366","0.0-473.0","null","null","","","","","","","","","","","","","","stimulus","","","2","56","","","","","","","","","",""
"","","","","","","","","","","","canvas-button-response","474","611201","0.0-474.0","1834","car","","","","","","","","","","","","","","perceptual","","","2","56","","","","","134","bed","6","0","0",""
"","","","","","","","","","","","canvas-button-response","475","611909","0.0-475.0","706","6","","","","","","","","","","","","","","confidence","","","2","56","","","","","","","","","","4"
"","","","","","","","","","","","preload","476","611910","0.0-476.0","","","","","true","","","","","","","","","","","preload","","","2","57","false","[]","[]","[]","","","","","",""
"","","","","","","","","","","","canvas-keyboard-response","477","612216","0.0-477.0","null","null","","","","","","","","","","","","","","fixation","","","2","57","","","","","","","","","",""
"","","","","","","","","","","","canvas-keyboard-response","478","612529","0.0-478.0","null","null","","","","","","","","","","","","","","stimulus","","","2","57","","","","","","","","","",""
"","","","","","","","","","","","canvas-button-response","479","613511","0.0-479.0","979","train","","","","","","","","","","","","","","perceptual","","","2","57","","","","","254","train","6","0","1",""
"","","","","","","","","","","","canvas-button-response","480","614744","0.0-480.0","1230","6","","","","","","","","","","","","","","confidence","","","2","57","","","","","","","","","","5"
"","","","","","","","","","","","preload","481","614744","0.0-481.0","","","","","true","","","","","","","","","","","preload","","","2","58","false","[]","[]","[]","","","","","",""
"","","","","","","","","","","","canvas-keyboard-response","482","615052","0.0-482.0","null","null","","","","","","","","","","","","","","fixation","","","2","58","","","","","","","","","",""
"","","","","","","","","","","","canvas-keyboard-response","483","615362","0.0-483.0","null","null","","","","","","","","","","","","","","stimulus","","","2","58","","","","","","","","","",""
"","","","","","","","","","","","canvas-button-response","484","616725","0.0-484.0","1360","bridge","","","","","","","","","","","","","","perceptual","","","2","58","","","","","32","house","10","0","0",""
"","","","","","","","","","","","canvas-button-response","485","617335","0.0-485.0","608","5","","","","","","","","","","","","","","confidence","","","2","58","","","","","","","","","","5"
"","","","","","","","","","","","preload","486","617336","0.0-486.0","","","","","true","","","","","","","","","","","preload","","","2","59","false","[]","[]","[]","","","","","",""
"","","","","","","","","","","","canvas-keyboard-response","487","617647","0.0-487.0","null","null","","","","","","","","","","","","","","fixation","","","2","59","","","","","","","","","",""
"","","","","","","","","","","","canvas-keyboard-response","488","617965","0.0-488.0","null","null","","","","","","","","","","","","","","stimulus","","","2","59","","","","","","","","","",""
"","","","","","","","","","","","canvas-button-response","489","619775","0.0-489.0","1808","house","","","","","","","","","","","","","","perceptual","","","2","59","","","","","310","cat","10","0","0",""
"","","","","","","","","","","","canvas-button-response","490","620984","0.0-490.0","1207","4","","","","","","","","","","","","","","confidence","","","2","59","","","","","","","","","","5"
"","","","","","","","","","","","preload","491","620985","0.0-491.0","","","","","true","","","","","","","","","","","preload","","","2","60","false","[]","[]","[]","","","","","",""
"","","","","","","","","","","","canvas-keyboard-response","492","621302","0.0-492.0","null","null","","","","","","","","","","","","","","fixation","","","2","60","","","","","","","","","",""
