"width","height","webaudio","browser","browser_version","mobile","os","fullscreen","vsync_rate","webcam","microphone","trial_type","trial_index","time_elapsed","internal_node_id","rt","response","accuracy","view_history","success","item_width_mm","item_height_mm","item_width_px","px2mm","view_dist_mm","item_width_deg","px2deg","scale_factor","win_width_deg","win_height_deg","stimulus","datetime","subjectID","curr_triallist","trial_no","timeout","failed_images","failed_audio","failed_video","image_index","category","blur","reps","correct","running_score"
"1512","857","true","chrome","141.0.0","false","Mac OS","true","119.98","true","true","browser-check","0","507","0.0-0.0","","","","","","","","","","","","","","","","","","","","","","","","","","","","","",""
"","","","","","","","","","","","survey","1","35190","0.0-1.0","34647","{""P0_Q0"":""904121646"",""P0_Q1"":""18"",""P1_Q0"":""Male"",""P1_Q1"":""Not Hispanic or Latino"",""P1_Q2"":""Asian"",""P1_Q3"":""Normal"",""P1_Q4"":""Right-Handed""}","[]","","","","","","","","","","","","","","","","","","","","","","","","","","",""
"","","","","","","","","","","","instructions","2","41955","0.0-2.0","6765","","","[{""page_index"":0,""viewing_time"":1798},{""page_index"":1,""viewing_time"":1768},{""page_index"":2,""viewing_time"":1812},{""page_index"":3,""viewing_time"":1386}]","","","","","","","","","","","","","","","","","","","","","","","","","",""
"","","","","","","","","","","","fullscreen","3","45570","0.0-3.0","2611","","","","true","","","","","","","","","","","","","","","","","","","","","","","","",""
"","","","","","","","","","","","virtual-chinrest","4","179265","0.0-4.0","133698","","","","","85.6","53.98","334.52888203373845","3.9055046514943625","438.44","11.150962734457947","30","1.2495184196318307","50.4","31.5","","","","","","","","","","","","","","",""
"","","","","","","","","","","","instructions","5","230612","0.0-5.0","51348","","","[{""page_index"":0,""viewing_time"":5342},{""page_index"":1,""viewing_time"":5739},{""page_index"":2,""viewing_time"":8348},{""page_index"":3,""viewing_time"":3909},{""page_index"":4,""viewing_time"":16561},{""page_index"":5,""viewing_time"":9310},{""page_index"":6,""viewing_time"":2140}]","","","","","","","","","","","","","","","","","","","","","","","","","",""
"","","","","","","","","","","","html-button-response","6","232239","0.0-6.0","1624","0","","","","","","","","","","","","","","start_practice","Sat Oct 11 2025 14:36:34 GMT-0400 (Eastern Daylight Time)","27779","","","","","","","","","","","",""
"","","","","","","","","","","","preload","7","232240","0.0-7.0","","","","","true","","","","","","","","","","","preload","","","0","0","false","[]","[]","[]","","","","","",""
"","","","","","","","","","","","canvas-keyboard-response","8","232543","0.0-8.0","null","null","","","","","","","","","","","","","","fixation","","","0","0","","","","","","","","","",""
"","","","","","","","","","","","canvas-keyboard-response","9","232847","0.0-9.0","null","null","","","","","","","","","","","","","","stimulus","","","0","0","","","","","","","","","",""
"","","","","","","","","","","","canvas-button-response","10","235872","0.0-10.0","3022","cat","","","","","","","","","","","","","","perceptual","","","0","0","","","","","52","flower","1","","0",""
"","","","","","","","","","","","canvas-button-response","11","238267","0.0-11.0","2394","2","","","","","","","","","","","","","","confidence","","","0","0","","","","","","","","","","0"
"","","","","","","","","","","","html-keyboard-response","12","239269","0.0-12.0","null","null","","","","","","","","","","","","","","feedback","Sat Oct 11 2025 14:36:41 GMT-0400 (Eastern Daylight Time)","27779","0","0","","","","","","","","","",""
"","","","","","","","","","","","preload","13","239270","0.0-13.0","","","","","true","","","","","","","","","","","preload","","","0","1","false","[]","[]","[]","","","","","",""
"","","","","","","","","","","","canvas-keyboard-response","14","239572","0.0-14.0","null","null","","","","","","","","","","","","","","fixation","","","0","1","","","","","","","","","",""
"","","","","","","","","","","","canvas-keyboard-response","15","239874","0.0-15.0","null","null","","","","","","","","","","","","","","stimulus","","","0","1","","","","","","","","","",""
"","","","","","","","","","","","canvas-button-response","16","241392","0.0-16.0","1516","bed","","","","","","","","","","","","","","perceptual","","","0","1","","","","","32","bed","1","","1",""
"","","","","","","","","","","","canvas-button-response","17","242537","0.0-17.0","1144","10","","","","","","","","","","","","","","confidence","","","0","1","","","","","","","","","","1"
"","","","","","","","","","","","html-keyboard-response","18","243539","0.0-18.0","null","null","","","","","","","","","","","","","","feedback","Sat Oct 11 2025 14:36:46 GMT-0400 (Eastern Daylight Time)","27779","0","1","","","","","","","","","",""
"","","","","","","","","","","","preload","19","243540","0.0-19.0","","","","","true","","","","","","","","","","","preload","","","0","2","false","[]","[]","[]","","","","","",""
"","","","","","","","","","","","canvas-keyboard-response","20","243842","0.0-20.0","null","null","","","","","","","","","","","","","","fixation","","","0","2","","","","","","","","","",""
"","","","","","","","","","","","canvas-keyboard-response","21","244144","0.0-21.0","null","null","","","","","","","","","","","","","","stimulus","","","0","2","","","","","","","","","",""
"","","","","","","","","","","","canvas-button-response","22","245276","0.0-22.0","1131","cat","","","","","","","","","","","","","","perceptual","","","0","2","","","","","72","cat","1","","1",""
"","","","","","","","","","","","canvas-button-response","23","246742","0.0-23.0","1464","10","","","","","","","","","","","","","","confidence","","","0","2","","","","","","","","","","2"
"","","","","","","","","","","","html-keyboard-response","24","247745","0.0-24.0","null","null","","","","","","","","","","","","","","feedback","Sat Oct 11 2025 14:36:50 GMT-0400 (Eastern Daylight Time)","27779","0","2","","","","","","","","","",""
"","","","","","","","","","","","preload","25","247746","0.0-25.0","","","","","true","","","","","","","","","","","preload","","","0","3","false","[]","[]","[]","","","","","",""
"","","","","","","","","","","","canvas-keyboard-response","26","248048","0.0-26.0","null","null","","","","","","","","","","","","","","fixation","","","0","3","","","","","","","","","",""
"","","","","","","","","","","","canvas-keyboard-response","27","248351","0.0-27.0","null","null","","","","","","","","","","","","","","stimulus","","","0","3","","","","","","","","","",""
"","","","","","","","","","","","canvas-button-response","28","252157","0.0-28.0","3805","cat","","","","","","","","","","","","","","perceptual","","","0","3","","","","","42","bridge","1","","0",""
"","","","","","","","","","","","canvas-button-response","29","254415","0.0-29.0","2256","0","","","","","","","","","","","","","","confidence","","","0","3","","","","","","","","","","2"
"","","","","","","","","","","","html-keyboard-response","30","255418","0.0-30.0","null","null","","","","","","","","","","","","","","feedback","Sat Oct 11 2025 14:36:58 GMT-0400 (Eastern Daylight Time)","27779","0","3","","","","","","","","","",""
"","","","","","","","","","","","preload","31","255418","0.0-31.0","","","","","true","","","","","","","","","","","preload","","","0","4","false","[]","[]","[]","","","","","",""
"","","","","","","","","","","","canvas-keyboard-response","32","255721","0.0-32.0","null","null","","","","","","","","","","","","","","fixation","","","0","4","","","","","","","","","",""
"","","","","","","","","","","","canvas-keyboard-response","33","256024","0.0-33.0","null","null","","","","","","","","","","","","","","stimulus","","","0","4","","","","","","","","","",""
"","","","","","","","","","","","canvas-button-response","34","268119","0.0-34.0","12093","elephant","","","","","","","","","","","","","","perceptual","","","0","4","","","","","82","elephant","1","","1",""
"","","","","","","","","","","","canvas-button-response","35","269561","0.0-35.0","1441","2","","","","","","","","","","","","","","confidence","","","0","4","","","","","","","","","","3"
"","","","","","","","","","","","html-keyboard-response","36","270563","0.0-36.0","null","null","","","","","","","","","","","","","","feedback","Sat Oct 11 2025 14:37:13 GMT-0400 (Eastern Daylight Time)","27779","0","4","","","","","","","","","",""
"","","","","","","","","","","","preload","37","270564","0.0-37.0","","","","","true","","","","","","","","","","","preload","","","0","5","false","[]","[]","[]","","","","","",""
"","","","","","","","","","","","canvas-keyboard-response","38","270866","0.0-38.0","null","null","","","","","","","","","","","","","","fixation","","","0","5","","","","","","","","","",""
"","","","","","","","","","","","canvas-keyboard-response","39","271169","0.0-39.0","null","null","","","","","","","","","","","","","","stimulus","","","0","5","","","","","","","","","",""
"","","","","","","","","","","","canvas-button-response","40","272639","0.0-40.0","1468","car","","","","","","","","","","","","","","perceptual","","","0","5","","","","","12","car","1","","1",""
"","","","","","","","","","","","canvas-button-response","41","273600","0.0-41.0","959","10","","","","","","","","","","","","","","confidence","","","0","5","","","","","","","","","","4"
"","","","","","","","","","","","html-keyboard-response","42","274603","0.0-42.0","null","null","","","","","","","","","","","","","","feedback","Sat Oct 11 2025 14:37:17 GMT-0400 (Eastern Daylight Time)","27779","0","5","","","","","","","","","",""
"","","","","","","","","","","","preload","43","274604","0.0-43.0","","","","","true","","","","","","","","","","","preload","","","0","6","false","[]","[]","[]","","","","","",""
"","","","","","","","","","","","canvas-keyboard-response","44","274907","0.0-44.0","null","null","","","","","","","","","","","","","","fixation","","","0","6","","","","","","","","","",""
"","","","","","","","","","","","canvas-keyboard-response","45","275208","0.0-45.0","null","null","","","","","","","","","","","","","","stimulus","","","0","6","","","","","","","","","",""
"","","","","","","","","","","","canvas-button-response","46","278101","0.0-46.0","2891","train","","","","","","","","","","","","","","perceptual","","","0","6","","","","","62","train","1","","1",""
"","","","","","","","","","","","canvas-button-response","47","279007","0.0-47.0","905","10","","","","","","","","","","","","","","confidence","","","0","6","","","","","","","","","","5"
"","","","","","","","","","","","html-keyboard-response","48","280010","0.0-48.0","null","null","","","","","","","","","","","","","","feedback","Sat Oct 11 2025 14:37:22 GMT-0400 (Eastern Daylight Time)","27779","0","6","","","","","","","","","",""
"","","","","","","","","","","","preload","49","280011","0.0-49.0","","","","","true","","","","","","","","","","","preload","","","0","7","false","[]","[]","[]","","","","","",""
"","","","","","","","","","","","canvas-keyboard-response","50","280314","0.0-50.0","null","null","","","","","","","","","","","","","","fixation","","","0","7","","","","","","","","","",""
"","","","","","","","","","","","canvas-keyboard-response","51","280616","0.0-51.0","null","null","","","","","","","","","","","","","","stimulus","","","0","7","","","","","","","","","",""
"","","","","","","","","","","","canvas-button-response","52","281930","0.0-52.0","1312","house","","","","","","","","","","","","","","perceptual","","","0","7","","","","","2","house","1","","1",""
"","","","","","","","","","","","canvas-button-response","53","283003","0.0-53.0","1072","10","","","","","","","","","","","","","","confidence","","","0","7","","","","","","","","","","6"
"","","","","","","","","","","","html-keyboard-response","54","284007","0.0-54.0","null","null","","","","","","","","","","","","","","feedback","Sat Oct 11 2025 14:37:26 GMT-0400 (Eastern Daylight Time)","27779","0","7","","","","","","","","","",""
"","","","","","","","","","","","preload","55","284008","0.0-55.0","","","","","true","","","","","","","","","","","preload","","","0","8","false","[]","[]","[]","","","","","",""
"","","","","","","","","","","","canvas-keyboard-response","56","284310","0.0-56.0","null","null","","","","","","","","","","","","","","fixation","","","0","8","","","","","","","","","",""
"","","","","","","","","","","","canvas-keyboard-response","57","284613","0.0-57.0","null","null","","","","","","","","","","","","","","stimulus","","","0","8","","","","","","","","","",""
"","","","","","","","","","","","canvas-button-response","58","296651","0.0-58.0","12036","flower","","","","","","","","","","","","","","perceptual","","","0","8","","","","","92","knife","1","","0",""
"","","","","","","","","","","","canvas-button-response","59","298053","0.0-59.0","1401","2","","","","","","","","","","","","","","confidence","","","0","8","","","","","","","","","","6"
"","","","","","","","","","","","html-keyboard-response","60","299056","0.0-60.0","null","null","","","","","","","","","","","","","","feedback","Sat Oct 11 2025 14:37:41 GMT-0400 (Eastern Daylight Time)","27779","0","8","","","","","","","","","",""
"","","","","","","","","","","","preload","61","299057","0.0-61.0","","","","","true","","","","","","","","","","","preload","","","0","9","false","[]","[]","[]","","","","","",""
"","","","","","","","","","","","canvas-keyboard-response","62","299359","0.0-62.0","null","null","","","","","","","","","","","","","","fixation","","","0","9","","","","","","","","","",""
"","","","","","","","","","","","canvas-keyboard-response","63","299662","0.0-63.0","null","null","","","","","","","","","","","","","","stimulus","","","0","9","","","","","","","","","",""
"","","","","","","","","","","","canvas-button-response","64","302267","0.0-64.0","2603","phone","","","","","","","","","","","","","","perceptual","","","0","9","","","","","22","phone","1","","1",""
"","","","","","","","","","","","canvas-button-response","65","303220","0.0-65.0","951","10","","","","","","","","","","","","","","confidence","","","0","9","","","","","","","","","","7"
"","","","","","","","","","","","html-keyboard-response","66","304222","0.0-66.0","null","null","","","","","","","","","","","","","","feedback","Sat Oct 11 2025 14:37:46 GMT-0400 (Eastern Daylight Time)","27779","0","9","","","","","","","","","",""
"","","","","","","","","","","","html-button-response","67","319256","0.0-67.0","15033","0","","","","","","","","","","","","","","start_practice","Sat Oct 11 2025 14:37:47 GMT-0400 (Eastern Daylight Time)","27779","0","9","","","","","","","","","",""
"","","","","","","","","","","","preload","68","319257","0.0-68.0","","","","","true","","","","","","","","","","","preload","","","1","0","false","[]","[]","[]","","","","","",""
"","","","","","","","","","","","canvas-keyboard-response","69","319559","0.0-69.0","null","null","","","","","","","","","","","","","","fixation","","","1","0","","","","","","","","","",""
"","","","","","","","","","","","canvas-keyboard-response","70","319861","0.0-70.0","null","null","","","","","","","","","","","","","","stimulus","","","1","0","","","","","","","","","",""
"","","","","","","","","","","","canvas-button-response","71","324537","0.0-71.0","4674","flower","","","","","","","","","","","","","","perceptual","","","1","0","","","","","57","flower","10","","1",""
"","","","","","","","","","","","canvas-button-response","72","325362","0.0-72.0","824","1","","","","","","","","","","","","","","confidence","","","1","0","","","","","","","","","","1"
"","","","","","","","","","","","html-keyboard-response","73","326364","0.0-73.0","null","null","","","","","","","","","","","","","","feedback","Sat Oct 11 2025 14:38:09 GMT-0400 (Eastern Daylight Time)","27779","1","0","","","","","","","","","",""
"","","","","","","","","","","","preload","74","326365","0.0-74.0","","","","","true","","","","","","","","","","","preload","","","1","1","false","[]","[]","[]","","","","","",""
"","","","","","","","","","","","canvas-keyboard-response","75","326668","0.0-75.0","null","null","","","","","","","","","","","","","","fixation","","","1","1","","","","","","","","","",""
"","","","","","","","","","","","canvas-keyboard-response","76","326971","0.0-76.0","null","null","","","","","","","","","","","","","","stimulus","","","1","1","","","","","","","","","",""
"","","","","","","","","","","","canvas-button-response","77","330647","0.0-77.0","3675","house","","","","","","","","","","","","","","perceptual","","","1","1","","","","","17","car","10","","0",""
"","","","","","","","","","","","canvas-button-response","78","331825","0.0-78.0","1177","2","","","","","","","","","","","","","","confidence","","","1","1","","","","","","","","","","1"
"","","","","","","","","","","","html-keyboard-response","79","332827","0.0-79.0","null","null","","","","","","","","","","","","","","feedback","Sat Oct 11 2025 14:38:15 GMT-0400 (Eastern Daylight Time)","27779","1","1","","","","","","","","","",""
"","","","","","","","","","","","preload","80","332828","0.0-80.0","","","","","true","","","","","","","","","","","preload","","","1","2","false","[]","[]","[]","","","","","",""
"","","","","","","","","","","","canvas-keyboard-response","81","333131","0.0-81.0","null","null","","","","","","","","","","","","","","fixation","","","1","2","","","","","","","","","",""
"","","","","","","","","","","","canvas-keyboard-response","82","333434","0.0-82.0","null","null","","","","","","","","","","","","","","stimulus","","","1","2","","","","","","","","","",""
"","","","","","","","","","","","canvas-button-response","83","335398","0.0-83.0","1963","train","","","","","","","","","","","","","","perceptual","","","1","2","","","","","64","train","6","","1",""
"","","","","","","","","","","","canvas-button-response","84","336151","0.0-84.0","752","10","","","","","","","","","","","","","","confidence","","","1","2","","","","","","","","","","2"
"","","","","","","","","","","","html-keyboard-response","85","337153","0.0-85.0","null","null","","","","","","","","","","","","","","feedback","Sat Oct 11 2025 14:38:19 GMT-0400 (Eastern Daylight Time)","27779","1","2","","","","","","","","","",""
"","","","","","","","","","","","preload","86","337154","0.0-86.0","","","","","true","","","","","","","","","","","preload","","","1","3","false","[]","[]","[]","","","","","",""
"","","","","","","","","","","","canvas-keyboard-response","87","337456","0.0-87.0","null","null","","","","","","","","","","","","","","fixation","","","1","3","","","","","","","","","",""
"","","","","","","","","","","","canvas-keyboard-response","88","337759","0.0-88.0","null","null","","","","","","","","","","","","","","stimulus","","","1","3","","","","","","","","","",""
"","","","","","","","","","","","canvas-button-response","89","340315","0.0-89.0","2555","bed","","","","","","","","","","","","","","perceptual","","","1","3","","","","","87","elephant","10","","0",""
"","","","","","","","","","","","canvas-button-response","90","341037","0.0-90.0","721","1","","","","","","","","","","","","","","confidence","","","1","3","","","","","","","","","","2"
"","","","","","","","","","","","html-keyboard-response","91","342039","0.0-91.0","null","null","","","","","","","","","","","","","","feedback","Sat Oct 11 2025 14:38:24 GMT-0400 (Eastern Daylight Time)","27779","1","3","","","","","","","","","",""
"","","","","","","","","","","","preload","92","342040","0.0-92.0","","","","","true","","","","","","","","","","","preload","","","1","4","false","[]","[]","[]","","","","","",""
"","","","","","","","","","","","canvas-keyboard-response","93","342343","0.0-93.0","null","null","","","","","","","","","","","","","","fixation","","","1","4","","","","","","","","","",""
"","","","","","","","","","","","canvas-keyboard-response","94","342645","0.0-94.0","null","null","","","","","","","","","","","","","","stimulus","","","1","4","","","","","","","","","",""
"","","","","","","","","","","","canvas-button-response","95","345218","0.0-95.0","2571","bed","","","","","","","","","","","","","","perceptual","","","1","4","","","","","34","bed","6","","1",""
"","","","","","","","","","","","canvas-button-response","96","346259","0.0-96.0","1040","10","","","","","","","","","","","","","","confidence","","","1","4","","","","","","","","","","3"
"","","","","","","","","","","","html-keyboard-response","97","347261","0.0-97.0","null","null","","","","","","","","","","","","","","feedback","Sat Oct 11 2025 14:38:29 GMT-0400 (Eastern Daylight Time)","27779","1","4","","","","","","","","","",""
"","","","","","","","","","","","preload","98","347262","0.0-98.0","","","","","true","","","","","","","","","","","preload","","","1","5","false","[]","[]","[]","","","","","",""
"","","","","","","","","","","","canvas-keyboard-response","99","347564","0.0-99.0","null","null","","","","","","","","","","","","","","fixation","","","1","5","","","","","","","","","",""
"","","","","","","","","","","","canvas-keyboard-response","100","347867","0.0-100.0","null","null","","","","","","","","","","","","","","stimulus","","","1","5","","","","","","","","","",""
"","","","","","","","","","","","canvas-button-response","101","349839","0.0-101.0","1970","cat","","","","","","","","","","","","","","perceptual","","","1","5","","","","","37","bed","10","","0",""
"","","","","","","","","","","","canvas-button-response","102","350896","0.0-102.0","1056","2","","","","","","","","","","","","","","confidence","","","1","5","","","","","","","","","","3"
"","","","","","","","","","","","html-keyboard-response","103","351898","0.0-103.0","null","null","","","","","","","","","","","","","","feedback","Sat Oct 11 2025 14:38:34 GMT-0400 (Eastern Daylight Time)","27779","1","5","","","","","","","","","",""
"","","","","","","","","","","","preload","104","351899","0.0-104.0","","","","","true","","","","","","","","","","","preload","","","1","6","false","[]","[]","[]","","","","","",""
"","","","","","","","","","","","canvas-keyboard-response","105","352202","0.0-105.0","null","null","","","","","","","","","","","","","","fixation","","","1","6","","","","","","","","","",""
"","","","","","","","","","","","canvas-keyboard-response","106","352505","0.0-106.0","null","null","","","","","","","","","","","","","","stimulus","","","1","6","","","","","","","","","",""
"","","","","","","","","","","","canvas-button-response","107","353715","0.0-107.0","1209","elephant","","","","","","","","","","","","","","perceptual","","","1","6","","","","","84","elephant","6","","1",""
"","","","","","","","","","","","canvas-button-response","108","354403","0.0-108.0","687","10","","","","","","","","","","","","","","confidence","","","1","6","","","","","","","","","","4"
"","","","","","","","","","","","html-keyboard-response","109","355406","0.0-109.0","null","null","","","","","","","","","","","","","","feedback","Sat Oct 11 2025 14:38:38 GMT-0400 (Eastern Daylight Time)","27779","1","6","","","","","","","","","",""
"","","","","","","","","","","","preload","110","355407","0.0-110.0","","","","","true","","","","","","","","","","","preload","","","1","7","false","[]","[]","[]","","","","","",""
"","","","","","","","","","","","canvas-keyboard-response","111","355709","0.0-111.0","null","null","","","","","","","","","","","","","","fixation","","","1","7","","","","","","","","","",""
"","","","","","","","","","","","canvas-keyboard-response","112","356012","0.0-112.0","null","null","","","","","","","","","","","","","","stimulus","","","1","7","","","","","","","","","",""
"","","","","","","","","","","","canvas-button-response","113","357359","0.0-113.0","1345","house","","","","","","","","","","","","","","perceptual","","","1","7","","","","","4","house","6","","1",""
"","","","","","","","","","","","canvas-button-response","114","358119","0.0-114.0","759","10","","","","","","","","","","","","","","confidence","","","1","7","","","","","","","","","","5"
"","","","","","","","","","","","html-keyboard-response","115","359121","0.0-115.0","null","null","","","","","","","","","","","","","","feedback","Sat Oct 11 2025 14:38:41 GMT-0400 (Eastern Daylight Time)","27779","1","7","","","","","","","","","",""
"","","","","","","","","","","","preload","116","359122","0.0-116.0","","","","","true","","","","","","","","","","","preload","","","1","8","false","[]","[]","[]","","","","","",""
"","","","","","","","","","","","canvas-keyboard-response","117","359423","0.0-117.0","null","null","","","","","","","","","","","","","","fixation","","","1","8","","","","","","","","","",""
"","","","","","","","","","","","canvas-keyboard-response","118","359725","0.0-118.0","null","null","","","","","","","","","","","","","","stimulus","","","1","8","","","","","","","","","",""
"","","","","","","","","","","","canvas-button-response","119","362044","0.0-119.0","2317","phone","","","","","","","","","","","","","","perceptual","","","1","8","","","","","24","phone","6","","1",""
"","","","","","","","","","","","canvas-button-response","120","362741","0.0-120.0","695","7","","","","","","","","","","","","","","confidence","","","1","8","","","","","","","","","","6"
"","","","","","","","","","","","html-keyboard-response","121","363743","0.0-121.0","null","null","","","","","","","","","","","","","","feedback","Sat Oct 11 2025 14:38:46 GMT-0400 (Eastern Daylight Time)","27779","1","8","","","","","","","","","",""
"","","","","","","","","","","","preload","122","363743","0.0-122.0","","","","","true","","","","","","","","","","","preload","","","1","9","false","[]","[]","[]","","","","","",""
"","","","","","","","","","","","canvas-keyboard-response","123","364046","0.0-123.0","null","null","","","","","","","","","","","","","","fixation","","","1","9","","","","","","","","","",""
"","","","","","","","","","","","canvas-keyboard-response","124","364349","0.0-124.0","null","null","","","","","","","","","","","","","","stimulus","","","1","9","","","","","","","","","",""
"","","","","","","","","","","","canvas-button-response","125","369563","0.0-125.0","5213","bridge","","","","","","","","","","","","","","perceptual","","","1","9","","","","","27","phone","10","","0",""
"","","","","","","","","","","","canvas-button-response","126","370140","0.0-126.0","575","3","","","","","","","","","","","","","","confidence","","","1","9","","","","","","","","","","6"
"","","","","","","","","","","","html-keyboard-response","127","371142","0.0-127.0","null","null","","","","","","","","","","","","","","feedback","Sat Oct 11 2025 14:38:53 GMT-0400 (Eastern Daylight Time)","27779","1","9","","","","","","","","","",""
"","","","","","","","","","","","preload","128","371143","0.0-128.0","","","","","true","","","","","","","","","","","preload","","","1","10","false","[]","[]","[]","","","","","",""
"","","","","","","","","","","","canvas-keyboard-response","129","371445","0.0-129.0","null","null","","","","","","","","","","","","","","fixation","","","1","10","","","","","","","","","",""
"","","","","","","","","","","","canvas-keyboard-response","130","371747","0.0-130.0","null","null","","","","","","","","","","","","","","stimulus","","","1","10","","","","","","","","","",""
"","","","","","","","","","","","canvas-button-response","131","374513","0.0-131.0","2765","flower","","","","","","","","","","","","","","perceptual","","","1","10","","","","","74","cat","6","","0",""
"","","","","","","","","","","","canvas-button-response","132","375377","0.0-132.0","863","1","","","","","","","","","","","","","","confidence","","","1","10","","","","","","","","","","6"
"","","","","","","","","","","","html-keyboard-response","133","376380","0.0-133.0","null","null","","","","","","","","","","","","","","feedback","Sat Oct 11 2025 14:38:59 GMT-0400 (Eastern Daylight Time)","27779","1","10","","","","","","","","","",""
"","","","","","","","","","","","preload","134","376381","0.0-134.0","","","","","true","","","","","","","","","","","preload","","","1","11","false","[]","[]","[]","","","","","",""
"","","","","","","","","","","","canvas-keyboard-response","135","376684","0.0-135.0","null","null","","","","","","","","","","","","","","fixation","","","1","11","","","","","","","","","",""
"","","","","","","","","","","","canvas-keyboard-response","136","376987","0.0-136.0","null","null","","","","","","","","","","","","","","stimulus","","","1","11","","","","","","","","","",""
"","","","","","","","","","","","canvas-button-response","137","378593","0.0-137.0","1605","knife","","","","","","","","","","","","","","perceptual","","","1","11","","","","","97","knife","10","","1",""
"","","","","","","","","","","","canvas-button-response","138","379450","0.0-138.0","855","10","","","","","","","","","","","","","","confidence","","","1","11","","","","","","","","","","7"
"","","","","","","","","","","","html-keyboard-response","139","380452","0.0-139.0","null","null","","","","","","","","","","","","","","feedback","Sat Oct 11 2025 14:39:03 GMT-0400 (Eastern Daylight Time)","27779","1","11","","","","","","","","","",""
"","","","","","","","","","","","preload","140","380453","0.0-140.0","","","","","true","","","","","","","","","","","preload","","","1","12","false","[]","[]","[]","","","","","",""
"","","","","","","","","","","","canvas-keyboard-response","141","380755","0.0-141.0","null","null","","","","","","","","","","","","","","fixation","","","1","12","","","","","","","","","",""
"","","","","","","","","","","","canvas-keyboard-response","142","381058","0.0-142.0","null","null","","","","","","","","","","","","","","stimulus","","","1","12","","","","","","","","","",""
"","","","","","","","","","","","canvas-button-response","143","383262","0.0-143.0","2203","house","","","","","","","","","","","","","","perceptual","","","1","12","","","","","47","bridge","10","","0",""
"","","","","","","","","","","","canvas-button-response","144","383981","0.0-144.0","718","1","","","","","","","","","","","","","","confidence","","","1","12","","","","","","","","","","7"
"","","","","","","","","","","","html-keyboard-response","145","384984","0.0-145.0","null","null","","","","","","","","","","","","","","feedback","Sat Oct 11 2025 14:39:07 GMT-0400 (Eastern Daylight Time)","27779","1","12","","","","","","","","","",""
"","","","","","","","","","","","preload","146","384984","0.0-146.0","","","","","true","","","","","","","","","","","preload","","","1","13","false","[]","[]","[]","","","","","",""
"","","","","","","","","","","","canvas-keyboard-response","147","385287","0.0-147.0","null","null","","","","","","","","","","","","","","fixation","","","1","13","","","","","","","","","",""
"","","","","","","","","","","","canvas-keyboard-response","148","385590","0.0-148.0","null","null","","","","","","","","","","","","","","stimulus","","","1","13","","","","","","","","","",""
"","","","","","","","","","","","canvas-button-response","149","387406","0.0-149.0","1814","train","","","","","","","","","","","","","","perceptual","","","1","13","","","","","67","train","10","","1",""
"","","","","","","","","","","","canvas-button-response","150","388181","0.0-150.0","774","10","","","","","","","","","","","","","","confidence","","","1","13","","","","","","","","","","8"
"","","","","","","","","","","","html-keyboard-response","151","389183","0.0-151.0","null","null","","","","","","","","","","","","","","feedback","Sat Oct 11 2025 14:39:11 GMT-0400 (Eastern Daylight Time)","27779","1","13","","","","","","","","","",""
"","","","","","","","","","","","preload","152","389184","0.0-152.0","","","","","true","","","","","","","","","","","preload","","","1","14","false","[]","[]","[]","","","","","",""
"","","","","","","","","","","","canvas-keyboard-response","153","389486","0.0-153.0","null","null","","","","","","","","","","","","","","fixation","","","1","14","","","","","","","","","",""
"","","","","","","","","","","","canvas-keyboard-response","154","389789","0.0-154.0","null","null","","","","","","","","","","","","","","stimulus","","","1","14","","","","","","","","","",""
"","","","","","","","","","","","canvas-button-response","155","391706","0.0-155.0","1915","flower","","","","","","","","","","","","","","perceptual","","","1","14","","","","","54","flower","6","","1",""
"","","","","","","","","","","","canvas-button-response","156","392411","0.0-156.0","703","10","","","","","","","","","","","","","","confidence","","","1","14","","","","","","","","","","9"
"","","","","","","","","","","","html-keyboard-response","157","393413","0.0-157.0","null","null","","","","","","","","","","","","","","feedback","Sat Oct 11 2025 14:39:16 GMT-0400 (Eastern Daylight Time)","27779","1","14","","","","","","","","","",""
"","","","","","","","","","","","preload","158","393413","0.0-158.0","","","","","true","","","","","","","","","","","preload","","","1","15","false","[]","[]","[]","","","","","",""
"","","","","","","","","","","","canvas-keyboard-response","159","393716","0.0-159.0","null","null","","","","","","","","","","","","","","fixation","","","1","15","","","","","","","","","",""
"","","","","","","","","","","","canvas-keyboard-response","160","394019","0.0-160.0","null","null","","","","","","","","","","","","","","stimulus","","","1","15","","","","","","","","","",""
"","","","","","","","","","","","canvas-button-response","161","400624","0.0-161.0","6603","bed","","","","","","","","","","","","","","perceptual","","","1","15","","","","","94","knife","6","","0",""
"","","","","","","","","","","","canvas-button-response","162","401705","0.0-162.0","1080","3","","","","","","","","","","","","","","confidence","","","1","15","","","","","","","","","","9"
"","","","","","","","","","","","html-keyboard-response","163","402707","0.0-163.0","null","null","","","","","","","","","","","","","","feedback","Sat Oct 11 2025 14:39:25 GMT-0400 (Eastern Daylight Time)","27779","1","15","","","","","","","","","",""
"","","","","","","","","","","","preload","164","402708","0.0-164.0","","","","","true","","","","","","","","","","","preload","","","1","16","false","[]","[]","[]","","","","","",""
"","","","","","","","","","","","canvas-keyboard-response","165","403011","0.0-165.0","null","null","","","","","","","","","","","","","","fixation","","","1","16","","","","","","","","","",""
"","","","","","","","","","","","canvas-keyboard-response","166","403314","0.0-166.0","null","null","","","","","","","","","","","","","","stimulus","","","1","16","","","","","","","","","",""
"","","","","","","","","","","","canvas-button-response","167","407242","0.0-167.0","3927","elephant","","","","","","","","","","","","","","perceptual","","","1","16","","","","","7","house","10","","0",""
"","","","","","","","","","","","canvas-button-response","168","408555","0.0-168.0","1311","6","","","","","","","","","","","","","","confidence","","","1","16","","","","","","","","","","9"
"","","","","","","","","","","","html-keyboard-response","169","409557","0.0-169.0","null","null","","","","","","","","","","","","","","feedback","Sat Oct 11 2025 14:39:32 GMT-0400 (Eastern Daylight Time)","27779","1","16","","","","","","","","","",""
"","","","","","","","","","","","preload","170","409558","0.0-170.0","","","","","true","","","","","","","","","","","preload","","","1","17","false","[]","[]","[]","","","","","",""
"","","","","","","","","","","","canvas-keyboard-response","171","409861","0.0-171.0","null","null","","","","","","","","","","","","","","fixation","","","1","17","","","","","","","","","",""
"","","","","","","","","","","","canvas-keyboard-response","172","410163","0.0-172.0","null","null","","","","","","","","","","","","","","stimulus","","","1","17","","","","","","","","","",""
"","","","","","","","","","","","canvas-button-response","173","411706","0.0-173.0","1541","bridge","","","","","","","","","","","","","","perceptual","","","1","17","","","","","77","cat","10","","0",""
"","","","","","","","","","","","canvas-button-response","174","412466","0.0-174.0","759","1","","","","","","","","","","","","","","confidence","","","1","17","","","","","","","","","","9"
"","","","","","","","","","","","html-keyboard-response","175","413468","0.0-175.0","null","null","","","","","","","","","","","","","","feedback","Sat Oct 11 2025 14:39:36 GMT-0400 (Eastern Daylight Time)","27779","1","17","","","","","","","","","",""
"","","","","","","","","","","","preload","176","413469","0.0-176.0","","","","","true","","","","","","","","","","","preload","","","1","18","false","[]","[]","[]","","","","","",""
"","","","","","","","","","","","canvas-keyboard-response","177","413771","0.0-177.0","null","null","","","","","","","","","","","","","","fixation","","","1","18","","","","","","","","","",""
"","","","","","","","","","","","canvas-keyboard-response","178","414074","0.0-178.0","null","null","","","","","","","","","","","","","","stimulus","","","1","18","","","","","","","","","",""
"","","","","","","","","","","","canvas-button-response","179","419188","0.0-179.0","5113","bed","","","","","","","","","","","","","","perceptual","","","1","18","","","","","14","car","6","","0",""
"","","","","","","","","","","","canvas-button-response","180","419821","0.0-180.0","631","1","","","","","","","","","","","","","","confidence","","","1","18","","","","","","","","","","9"
"","","","","","","","","","","","html-keyboard-response","181","420824","0.0-181.0","null","null","","","","","","","","","","","","","","feedback","Sat Oct 11 2025 14:39:43 GMT-0400 (Eastern Daylight Time)","27779","1","18","","","","","","","","","",""
"","","","","","","","","","","","preload","182","420824","0.0-182.0","","","","","true","","","","","","","","","","","preload","","","1","19","false","[]","[]","[]","","","","","",""
"","","","","","","","","","","","canvas-keyboard-response","183","421127","0.0-183.0","null","null","","","","","","","","","","","","","","fixation","","","1","19","","","","","","","","","",""
"","","","","","","","","","","","canvas-keyboard-response","184","421429","0.0-184.0","null","null","","","","","","","","","","","","","","stimulus","","","1","19","","","","","","","","","",""
"","","","","","","","","","","","canvas-button-response","185","423739","0.0-185.0","2308","knife","","","","","","","","","","","","","","perceptual","","","1","19","","","","","44","bridge","6","","0",""
"","","","","","","","","","","","canvas-button-response","186","424484","0.0-186.0","744","1","","","","","","","","","","","","","","confidence","","","1","19","","","","","","","","","","9"
"","","","","","","","","","","","html-keyboard-response","187","425486","0.0-187.0","null","null","","","","","","","","","","","","","","feedback","Sat Oct 11 2025 14:39:48 GMT-0400 (Eastern Daylight Time)","27779","1","19","","","","","","","","","",""
"","","","","","","","","","","","html-button-response","188","768175","0.0-188.0","342698","0","","","","","","","","","","","","","","start experiment","Sat Oct 11 2025 14:39:49 GMT-0400 (Eastern Daylight Time)","27779","1","19","","","","","","","","","",""
"","","","","","","","","","","","preload","189","768176","0.0-189.0","","","","","true","","","","","","","","","","","preload","","","2","0","false","[]","[]","[]","","","","","",""
"","","","","","","","","","","","canvas-keyboard-response","190","768478","0.0-190.0","null","null","","","","","","","","","","","","","","fixation","","","2","0","","","","","","","","","",""
"","","","","","","","","","","","canvas-keyboard-response","191","768780","0.0-191.0","null","null","","","","","","","","","","","","","","stimulus","","","2","0","","","","","","","","","",""
"","","","","","","","","","","","canvas-button-response","192","771294","0.0-192.0","2512","bed","","","","","","","","","","","","","","perceptual","","","2","0","","","","","156","bed","10","0","1",""
"","","","","","","","","","","","canvas-button-response","193","772152","0.0-193.0","856","10","","","","","","","","","","","","","","confidence","","","2","0","","","","","","","","","","1"
"","","","","","","","","","","","preload","194","772153","0.0-194.0","","","","","true","","","","","","","","","","","preload","","","2","1","false","[]","[]","[]","","","","","",""
"","","","","","","","","","","","canvas-keyboard-response","195","772454","0.0-195.0","null","null","","","","","","","","","","","","","","fixation","","","2","1","","","","","","","","","",""
"","","","","","","","","","","","canvas-keyboard-response","196","772757","0.0-196.0","null","null","","","","","","","","","","","","","","stimulus","","","2","1","","","","","","","","","",""
"","","","","","","","","","","","canvas-button-response","197","774739","0.0-197.0","1980","bridge","","","","","","","","","","","","","","perceptual","","","2","1","","","","","235","flower","10","0","0",""
"","","","","","","","","","","","canvas-button-response","198","775724","0.0-198.0","984","2","","","","","","","","","","","","","","confidence","","","2","1","","","","","","","","","","1"
"","","","","","","","","","","","preload","199","775725","0.0-199.0","","","","","true","","","","","","","","","","","preload","","","2","2","false","[]","[]","[]","","","","","",""
"","","","","","","","","","","","canvas-keyboard-response","200","776027","0.0-200.0","null","null","","","","","","","","","","","","","","fixation","","","2","2","","","","","","","","","",""
"","","","","","","","","","","","canvas-keyboard-response","201","776329","0.0-201.0","null","null","","","","","","","","","","","","","","stimulus","","","2","2","","","","","","","","","",""
"","","","","","","","","","","","canvas-button-response","202","778201","0.0-202.0","1870","car","","","","","","","","","","","","","","perceptual","","","2","2","","","","","321","elephant","6","0","0",""
"","","","","","","","","","","","canvas-button-response","203","778989","0.0-203.0","787","1","","","","","","","","","","","","","","confidence","","","2","2","","","","","","","","","","1"
"","","","","","","","","","","","preload","204","778990","0.0-204.0","","","","","true","","","","","","","","","","","preload","","","2","3","false","[]","[]","[]","","","","","",""
"","","","","","","","","","","","canvas-keyboard-response","205","779292","0.0-205.0","null","null","","","","","","","","","","","","","","fixation","","","2","3","","","","","","","","","",""
"","","","","","","","","","","","canvas-keyboard-response","206","779594","0.0-206.0","null","null","","","","","","","","","","","","","","stimulus","","","2","3","","","","","","","","","",""
"","","","","","","","","","","","canvas-button-response","207","783681","0.0-207.0","4086","car","","","","","","","","","","","","","","perceptual","","","2","3","","","","","92","phone","6","0","0",""
"","","","","","","","","","","","canvas-button-response","208","785063","0.0-208.0","1380","3","","","","","","","","","","","","","","confidence","","","2","3","","","","","","","","","","1"
"","","","","","","","","","","","preload","209","785064","0.0-209.0","","","","","true","","","","","","","","","","","preload","","","2","4","false","[]","[]","[]","","","","","",""
"","","","","","","","","","","","canvas-keyboard-response","210","785366","0.0-210.0","null","null","","","","","","","","","","","","","","fixation","","","2","4","","","","","","","","","",""
"","","","","","","","","","","","canvas-keyboard-response","211","785669","0.0-211.0","null","null","","","","","","","","","","","","","","stimulus","","","2","4","","","","","","","","","",""
"","","","","","","","","","","","canvas-button-response","212","788861","0.0-212.0","3190","bed","","","","","","","","","","","","","","perceptual","","","2","4","","","","","131","bed","6","0","1",""
"","","","","","","","","","","","canvas-button-response","213","789702","0.0-213.0","839","9","","","","","","","","","","","","","","confidence","","","2","4","","","","","","","","","","2"
"","","","","","","","","","","","preload","214","789703","0.0-214.0","","","","","true","","","","","","","","","","","preload","","","2","5","false","[]","[]","[]","","","","","",""
"","","","","","","","","","","","canvas-keyboard-response","215","790006","0.0-215.0","null","null","","","","","","","","","","","","","","fixation","","","2","5","","","","","","","","","",""
"","","","","","","","","","","","canvas-keyboard-response","216","790308","0.0-216.0","null","null","","","","","","","","","","","","","","stimulus","","","2","5","","","","","","","","","",""
"","","","","","","","","","","","canvas-button-response","217","792346","0.0-217.0","2036","cat","","","","","","","","","","","","","","perceptual","","","2","5","","","","","312","cat","10","0","1",""
"","","","","","","","","","","","canvas-button-response","218","793043","0.0-218.0","696","8","","","","","","","","","","","","","","confidence","","","2","5","","","","","","","","","","3"
"","","","","","","","","","","","preload","219","793044","0.0-219.0","","","","","true","","","","","","","","","","","preload","","","2","6","false","[]","[]","[]","","","","","",""
"","","","","","","","","","","","canvas-keyboard-response","220","793346","0.0-220.0","null","null","","","","","","","","","","","","","","fixation","","","2","6","","","","","","","","","",""
"","","","","","","","","","","","canvas-keyboard-response","221","793648","0.0-221.0","null","null","","","","","","","","","","","","","","stimulus","","","2","6","","","","","","","","","",""
"","","","","","","","","","","","canvas-button-response","222","794790","0.0-222.0","1140","elephant","","","","","","","","","","","","","","perceptual","","","2","6","","","","","341","elephant","10","0","1",""
"","","","","","","","","","","","canvas-button-response","223","795383","0.0-223.0","591","10","","","","","","","","","","","","","","confidence","","","2","6","","","","","","","","","","4"
"","","","","","","","","","","","preload","224","795384","0.0-224.0","","","","","true","","","","","","","","","","","preload","","","2","7","false","[]","[]","[]","","","","","",""
"","","","","","","","","","","","canvas-keyboard-response","225","795686","0.0-225.0","null","null","","","","","","","","","","","","","","fixation","","","2","7","","","","","","","","","",""
"","","","","","","","","","","","canvas-keyboard-response","226","795988","0.0-226.0","null","null","","","","","","","","","","","","","","stimulus","","","2","7","","","","","","","","","",""
"","","","","","","","","","","","canvas-button-response","227","797690","0.0-227.0","1700","house","","","","","","","","","","","","","","perceptual","","","2","7","","","","","10","house","6","0","1",""
"","","","","","","","","","","","canvas-button-response","228","798651","0.0-228.0","960","1","","","","","","","","","","","","","","confidence","","","2","7","","","","","","","","","","5"
"","","","","","","","","","","","preload","229","798652","0.0-229.0","","","","","true","","","","","","","","","","","preload","","","2","8","false","[]","[]","[]","","","","","",""
"","","","","","","","","","","","canvas-keyboard-response","230","798954","0.0-230.0","null","null","","","","","","","","","","","","","","fixation","","","2","8","","","","","","","","","",""
"","","","","","","","","","","","canvas-keyboard-response","231","799257","0.0-231.0","null","null","","","","","","","","","","","","","","stimulus","","","2","8","","","","","","","","","",""
"","","","","","","","","","","","canvas-button-response","232","800270","0.0-232.0","1012","knife","","","","","","","","","","","","","","perceptual","","","2","8","","","","","113","phone","10","0","0",""
"","","","","","","","","","","","canvas-button-response","233","801119","0.0-233.0","848","1","","","","","","","","","","","","","","confidence","","","2","8","","","","","","","","","","5"
"","","","","","","","","","","","preload","234","801120","0.0-234.0","","","","","true","","","","","","","","","","","preload","","","2","9","false","[]","[]","[]","","","","","",""
"","","","","","","","","","","","canvas-keyboard-response","235","801421","0.0-235.0","null","null","","","","","","","","","","","","","","fixation","","","2","9","","","","","","","","","",""
"","","","","","","","","","","","canvas-keyboard-response","236","801724","0.0-236.0","null","null","","","","","","","","","","","","","","stimulus","","","2","9","","","","","","","","","",""
"","","","","","","","","","","","canvas-button-response","237","803298","0.0-237.0","1573","phone","","","","","","","","","","","","","","perceptual","","","2","9","","","","","118","phone","10","0","1",""
"","","","","","","","","","","","canvas-button-response","238","804163","0.0-238.0","864","10","","","","","","","","","","","","","","confidence","","","2","9","","","","","","","","","","6"
"","","","","","","","","","","","preload","239","804164","0.0-239.0","","","","","true","","","","","","","","","","","preload","","","2","10","false","[]","[]","[]","","","","","",""
"","","","","","","","","","","","canvas-keyboard-response","240","804466","0.0-240.0","null","null","","","","","","","","","","","","","","fixation","","","2","10","","","","","","","","","",""
"","","","","","","","","","","","canvas-keyboard-response","241","804768","0.0-241.0","null","null","","","","","","","","","","","","","","stimulus","","","2","10","","","","","","","","","",""
"","","","","","","","","","","","canvas-button-response","242","806655","0.0-242.0","1886","knife","","","","","","","","","","","","","","perceptual","","","2","10","","","","","292","cat","6","0","0",""
"","","","","","","","","","","","canvas-button-response","243","807520","0.0-243.0","863","1","","","","","","","","","","","","","","confidence","","","2","10","","","","","","","","","","6"
"","","","","","","","","","","","preload","244","807520","0.0-244.0","","","","","true","","","","","","","","","","","preload","","","2","11","false","[]","[]","[]","","","","","",""
"","","","","","","","","","","","canvas-keyboard-response","245","807823","0.0-245.0","null","null","","","","","","","","","","","","","","fixation","","","2","11","","","","","","","","","",""
"","","","","","","","","","","","canvas-keyboard-response","246","808126","0.0-246.0","null","null","","","","","","","","","","","","","","stimulus","","","2","11","","","","","","","","","",""
"","","","","","","","","","","","canvas-button-response","247","809915","0.0-247.0","1788","phone","","","","","","","","","","","","","","perceptual","","","2","11","","","","","100","phone","10","0","1",""
"","","","","","","","","","","","canvas-button-response","248","810621","0.0-248.0","704","5","","","","","","","","","","","","","","confidence","","","2","11","","","","","","","","","","7"
"","","","","","","","","","","","preload","249","810621","0.0-249.0","","","","","true","","","","","","","","","","","preload","","","2","12","false","[]","[]","[]","","","","","",""
"","","","","","","","","","","","canvas-keyboard-response","250","810924","0.0-250.0","null","null","","","","","","","","","","","","","","fixation","","","2","12","","","","","","","","","",""
"","","","","","","","","","","","canvas-keyboard-response","251","811226","0.0-251.0","null","null","","","","","","","","","","","","","","stimulus","","","2","12","","","","","","","","","",""
"","","","","","","","","","","","canvas-button-response","252","812278","0.0-252.0","1050","car","","","","","","","","","","","","","","perceptual","","","2","12","","","","","44","car","6","0","1",""
"","","","","","","","","","","","canvas-button-response","253","813039","0.0-253.0","759","10","","","","","","","","","","","","","","confidence","","","2","12","","","","","","","","","","8"
"","","","","","","","","","","","preload","254","813040","0.0-254.0","","","","","true","","","","","","","","","","","preload","","","2","13","false","[]","[]","[]","","","","","",""
"","","","","","","","","","","","canvas-keyboard-response","255","813341","0.0-255.0","null","null","","","","","","","","","","","","","","fixation","","","2","13","","","","","","","","","",""
"","","","","","","","","","","","canvas-keyboard-response","256","813642","0.0-256.0","null","null","","","","","","","","","","","","","","stimulus","","","2","13","","","","","","","","","",""
"","","","","","","","","","","","canvas-button-response","257","814626","0.0-257.0","981","knife","","","","","","","","","","","","","","perceptual","","","2","13","","","","","334","elephant","6","0","0",""
"","","","","","","","","","","","canvas-button-response","258","815387","0.0-258.0","759","1","","","","","","","","","","","","","","confidence","","","2","13","","","","","","","","","","8"
"","","","","","","","","","","","preload","259","815388","0.0-259.0","","","","","true","","","","","","","","","","","preload","","","2","14","false","[]","[]","[]","","","","","",""
"","","","","","","","","","","","canvas-keyboard-response","260","815690","0.0-260.0","null","null","","","","","","","","","","","","","","fixation","","","2","14","","","","","","","","","",""
"","","","","","","","","","","","canvas-keyboard-response","261","815992","0.0-261.0","null","null","","","","","","","","","","","","","","stimulus","","","2","14","","","","","","","","","",""
"","","","","","","","","","","","canvas-button-response","262","817517","0.0-262.0","1524","knife","","","","","","","","","","","","","","perceptual","","","2","14","","","","","394","knife","10","0","1",""
"","","","","","","","","","","","canvas-button-response","263","818551","0.0-263.0","1032","10","","","","","","","","","","","","","","confidence","","","2","14","","","","","","","","","","9"
"","","","","","","","","","","","preload","264","818551","0.0-264.0","","","","","true","","","","","","","","","","","preload","","","2","15","false","[]","[]","[]","","","","","",""
"","","","","","","","","","","","canvas-keyboard-response","265","818853","0.0-265.0","null","null","","","","","","","","","","","","","","fixation","","","2","15","","","","","","","","","",""
"","","","","","","","","","","","canvas-keyboard-response","266","819156","0.0-266.0","null","null","","","","","","","","","","","","","","stimulus","","","2","15","","","","","","","","","",""
"","","","","","","","","","","","canvas-button-response","267","822380","0.0-267.0","3223","bed","","","","","","","","","","","","","","perceptual","","","2","15","","","","","399","knife","10","0","0",""
"","","","","","","","","","","","canvas-button-response","268","823493","0.0-268.0","1111","7","","","","","","","","","","","","","","confidence","","","2","15","","","","","","","","","","9"
"","","","","","","","","","","","preload","269","823494","0.0-269.0","","","","","true","","","","","","","","","","","preload","","","2","16","false","[]","[]","[]","","","","","",""
"","","","","","","","","","","","canvas-keyboard-response","270","823796","0.0-270.0","null","null","","","","","","","","","","","","","","fixation","","","2","16","","","","","","","","","",""
"","","","","","","","","","","","canvas-keyboard-response","271","824098","0.0-271.0","null","null","","","","","","","","","","","","","","stimulus","","","2","16","","","","","","","","","",""
"","","","","","","","","","","","canvas-button-response","272","826417","0.0-272.0","2317","bed","","","","","","","","","","","","","","perceptual","","","2","16","","","","","132","bed","6","0","1",""
"","","","","","","","","","","","canvas-button-response","273","827322","0.0-273.0","904","8","","","","","","","","","","","","","","confidence","","","2","16","","","","","","","","","","10"
"","","","","","","","","","","","preload","274","827323","0.0-274.0","","","","","true","","","","","","","","","","","preload","","","2","17","false","[]","[]","[]","","","","","",""
"","","","","","","","","","","","canvas-keyboard-response","275","827625","0.0-275.0","null","null","","","","","","","","","","","","","","fixation","","","2","17","","","","","","","","","",""
"","","","","","","","","","","","canvas-keyboard-response","276","827927","0.0-276.0","null","null","","","","","","","","","","","","","","stimulus","","","2","17","","","","","","","","","",""
"","","","","","","","","","","","canvas-button-response","277","829309","0.0-277.0","1380","house","","","","","","","","","","","","","","perceptual","","","2","17","","","","","18","house","6","0","1",""
"","","","","","","","","","","","canvas-button-response","278","830134","0.0-278.0","823","10","","","","","","","","","","","","","","confidence","","","2","17","","","","","","","","","","11"
"","","","","","","","","","","","preload","279","830135","0.0-279.0","","","","","true","","","","","","","","","","","preload","","","2","18","false","[]","[]","[]","","","","","",""
"","","","","","","","","","","","canvas-keyboard-response","280","830437","0.0-280.0","null","null","","","","","","","","","","","","","","fixation","","","2","18","","","","","","","","","",""
"","","","","","","","","","","","canvas-keyboard-response","281","830740","0.0-281.0","null","null","","","","","","","","","","","","","","stimulus","","","2","18","","","","","","","","","",""
"","","","","","","","","","","","canvas-button-response","282","835687","0.0-282.0","4946","house","","","","","","","","","","","","","","perceptual","","","2","18","","","","","35","house","10","0","1",""
"","","","","","","","","","","","canvas-button-response","283","836817","0.0-283.0","1128","7","","","","","","","","","","","","","","confidence","","","2","18","","","","","","","","","","12"
"","","","","","","","","","","","preload","284","836817","0.0-284.0","","","","","true","","","","","","","","","","","preload","","","2","19","false","[]","[]","[]","","","","","",""
"","","","","","","","","","","","canvas-keyboard-response","285","837119","0.0-285.0","null","null","","","","","","","","","","","","","","fixation","","","2","19","","","","","","","","","",""
"","","","","","","","","","","","canvas-keyboard-response","286","837421","0.0-286.0","null","null","","","","","","","","","","","","","","stimulus","","","2","19","","","","","","","","","",""
"","","","","","","","","","","","canvas-button-response","287","839612","0.0-287.0","2189","flower","","","","","","","","","","","","","","perceptual","","","2","19","","","","","316","cat","10","0","0",""
"","","","","","","","","","","","canvas-button-response","288","840157","0.0-288.0","543","2","","","","","","","","","","","","","","confidence","","","2","19","","","","","","","","","","12"
"","","","","","","","","","","","preload","289","840158","0.0-289.0","","","","","true","","","","","","","","","","","preload","","","2","20","false","[]","[]","[]","","","","","",""
"","","","","","","","","","","","canvas-keyboard-response","290","840460","0.0-290.0","null","null","","","","","","","","","","","","","","fixation","","","2","20","","","","","","","","","",""
"","","","","","","","","","","","canvas-keyboard-response","291","840763","0.0-291.0","null","null","","","","","","","","","","","","","","stimulus","","","2","20","","","","","","","","","",""
"","","","","","","","","","","","canvas-button-response","292","842455","0.0-292.0","1690","knife","","","","","","","","","","","","","","perceptual","","","2","20","","","","","370","knife","6","0","1",""
"","","","","","","","","","","","canvas-button-response","293","843361","0.0-293.0","904","10","","","","","","","","","","","","","","confidence","","","2","20","","","","","","","","","","13"
"","","","","","","","","","","","preload","294","843362","0.0-294.0","","","","","true","","","","","","","","","","","preload","","","2","21","false","[]","[]","[]","","","","","",""
"","","","","","","","","","","","canvas-keyboard-response","295","843664","0.0-295.0","null","null","","","","","","","","","","","","","","fixation","","","2","21","","","","","","","","","",""
"","","","","","","","","","","","canvas-keyboard-response","296","843966","0.0-296.0","null","null","","","","","","","","","","","","","","stimulus","","","2","21","","","","","","","","","",""
"","","","","","","","","","","","canvas-button-response","297","846958","0.0-297.0","2990","house","","","","","","","","","","","","","","perceptual","","","2","21","","","","","263","train","10","0","0",""
"","","","","","","","","","","","canvas-button-response","298","848415","0.0-298.0","1456","4","","","","","","","","","","","","","","confidence","","","2","21","","","","","","","","","","13"
"","","","","","","","","","","","preload","299","848416","0.0-299.0","","","","","true","","","","","","","","","","","preload","","","2","22","false","[]","[]","[]","","","","","",""
"","","","","","","","","","","","canvas-keyboard-response","300","848719","0.0-300.0","null","null","","","","","","","","","","","","","","fixation","","","2","22","","","","","","","","","",""
"","","","","","","","","","","","canvas-keyboard-response","301","849021","0.0-301.0","null","null","","","","","","","","","","","","","","stimulus","","","2","22","","","","","","","","","",""
"","","","","","","","","","","","canvas-button-response","302","851915","0.0-302.0","2893","house","","","","","","","","","","","","","","perceptual","","","2","22","","","","","342","elephant","10","0","0",""
"","","","","","","","","","","","canvas-button-response","303","852692","0.0-303.0","775","2","","","","","","","","","","","","","","confidence","","","2","22","","","","","","","","","","13"
"","","","","","","","","","","","preload","304","852693","0.0-304.0","","","","","true","","","","","","","","","","","preload","","","2","23","false","[]","[]","[]","","","","","",""
"","","","","","","","","","","","canvas-keyboard-response","305","852995","0.0-305.0","null","null","","","","","","","","","","","","","","fixation","","","2","23","","","","","","","","","",""
"","","","","","","","","","","","canvas-keyboard-response","306","853298","0.0-306.0","null","null","","","","","","","","","","","","","","stimulus","","","2","23","","","","","","","","","",""
"","","","","","","","","","","","canvas-button-response","307","855319","0.0-307.0","2020","car","","","","","","","","","","","","","","perceptual","","","2","23","","","","","68","car","10","0","1",""
"","","","","","","","","","","","canvas-button-response","308","856577","0.0-308.0","1256","10","","","","","","","","","","","","","","confidence","","","2","23","","","","","","","","","","14"
"","","","","","","","","","","","preload","309","856577","0.0-309.0","","","","","true","","","","","","","","","","","preload","","","2","24","false","[]","[]","[]","","","","","",""
"","","","","","","","","","","","canvas-keyboard-response","310","856879","0.0-310.0","null","null","","","","","","","","","","","","","","fixation","","","2","24","","","","","","","","","",""
"","","","","","","","","","","","canvas-keyboard-response","311","857182","0.0-311.0","null","null","","","","","","","","","","","","","","stimulus","","","2","24","","","","","","","","","",""
"","","","","","","","","","","","canvas-button-response","312","858532","0.0-312.0","1348","house","","","","","","","","","","","","","","perceptual","","","2","24","","","","","315","cat","10","0","0",""
"","","","","","","","","","","","canvas-button-response","313","859292","0.0-313.0","759","2","","","","","","","","","","","","","","confidence","","","2","24","","","","","","","","","","14"
"","","","","","","","","","","","preload","314","859293","0.0-314.0","","","","","true","","","","","","","","","","","preload","","","2","25","false","[]","[]","[]","","","","","",""
"","","","","","","","","","","","canvas-keyboard-response","315","859594","0.0-315.0","null","null","","","","","","","","","","","","","","fixation","","","2","25","","","","","","","","","",""
"","","","","","","","","","","","canvas-keyboard-response","316","859896","0.0-316.0","null","null","","","","","","","","","","","","","","stimulus","","","2","25","","","","","","","","","",""
"","","","","","","","","","","","canvas-button-response","317","862111","0.0-317.0","2213","house","","","","","","","","","","","","","","perceptual","","","2","25","","","","","348","elephant","10","0","0",""
"","","","","","","","","","","","canvas-button-response","318","862824","0.0-318.0","712","4","","","","","","","","","","","","","","confidence","","","2","25","","","","","","","","","","14"
"","","","","","","","","","","","preload","319","862825","0.0-319.0","","","","","true","","","","","","","","","","","preload","","","2","26","false","[]","[]","[]","","","","","",""
"","","","","","","","","","","","canvas-keyboard-response","320","863127","0.0-320.0","null","null","","","","","","","","","","","","","","fixation","","","2","26","","","","","","","","","",""
"","","","","","","","","","","","canvas-keyboard-response","321","863430","0.0-321.0","null","null","","","","","","","","","","","","","","stimulus","","","2","26","","","","","","","","","",""
"","","","","","","","","","","","canvas-button-response","322","864537","0.0-322.0","1106","phone","","","","","","","","","","","","","","perceptual","","","2","26","","","","","106","phone","10","0","1",""
"","","","","","","","","","","","canvas-button-response","323","865186","0.0-323.0","648","8","","","","","","","","","","","","","","confidence","","","2","26","","","","","","","","","","15"
"","","","","","","","","","","","preload","324","865187","0.0-324.0","","","","","true","","","","","","","","","","","preload","","","2","27","false","[]","[]","[]","","","","","",""
"","","","","","","","","","","","canvas-keyboard-response","325","865488","0.0-325.0","null","null","","","","","","","","","","","","","","fixation","","","2","27","","","","","","","","","",""
"","","","","","","","","","","","canvas-keyboard-response","326","865791","0.0-326.0","null","null","","","","","","","","","","","","","","stimulus","","","2","27","","","","","","","","","",""
"","","","","","","","","","","","canvas-button-response","327","866892","0.0-327.0","1099","car","","","","","","","","","","","","","","perceptual","","","2","27","","","","","78","car","10","0","1",""
"","","","","","","","","","","","canvas-button-response","328","867572","0.0-328.0","679","10","","","","","","","","","","","","","","confidence","","","2","27","","","","","","","","","","16"
"","","","","","","","","","","","preload","329","867573","0.0-329.0","","","","","true","","","","","","","","","","","preload","","","2","28","false","[]","[]","[]","","","","","",""
"","","","","","","","","","","","canvas-keyboard-response","330","867875","0.0-330.0","null","null","","","","","","","","","","","","","","fixation","","","2","28","","","","","","","","","",""
"","","","","","","","","","","","canvas-keyboard-response","331","868177","0.0-331.0","null","null","","","","","","","","","","","","","","stimulus","","","2","28","","","","","","","","","",""
"","","","","","","","","","","","canvas-button-response","332","869158","0.0-332.0","979","knife","","","","","","","","","","","","","","perceptual","","","2","28","","","","","112","phone","10","0","0",""
"","","","","","","","","","","","canvas-button-response","333","869887","0.0-333.0","728","4","","","","","","","","","","","","","","confidence","","","2","28","","","","","","","","","","16"
"","","","","","","","","","","","preload","334","869887","0.0-334.0","","","","","true","","","","","","","","","","","preload","","","2","29","false","[]","[]","[]","","","","","",""
"","","","","","","","","","","","canvas-keyboard-response","335","870189","0.0-335.0","null","null","","","","","","","","","","","","","","fixation","","","2","29","","","","","","","","","",""
"","","","","","","","","","","","canvas-keyboard-response","336","870492","0.0-336.0","null","null","","","","","","","","","","","","","","stimulus","","","2","29","","","","","","","","","",""
"","","","","","","","","","","","canvas-button-response","337","872225","0.0-337.0","1732","bed","","","","","","","","","","","","","","perceptual","","","2","29","","","","","290","cat","6","0","0",""
"","","","","","","","","","","","canvas-button-response","338","873346","0.0-338.0","1119","10","","","","","","","","","","","","","","confidence","","","2","29","","","","","","","","","","16"
"","","","","","","","","","","","preload","339","873346","0.0-339.0","","","","","true","","","","","","","","","","","preload","","","2","30","false","[]","[]","[]","","","","","",""
"","","","","","","","","","","","canvas-keyboard-response","340","873648","0.0-340.0","null","null","","","","","","","","","","","","","","fixation","","","2","30","","","","","","","","","",""
"","","","","","","","","","","","canvas-keyboard-response","341","873949","0.0-341.0","null","null","","","","","","","","","","","","","","stimulus","","","2","30","","","","","","","","","",""
"","","","","","","","","","","","canvas-button-response","342","875309","0.0-342.0","1358","flower","","","","","","","","","","","","","","perceptual","","","2","30","","","","","216","flower","6","0","1",""
"","","","","","","","","","","","canvas-button-response","343","876053","0.0-343.0","743","10","","","","","","","","","","","","","","confidence","","","2","30","","","","","","","","","","17"
"","","","","","","","","","","","preload","344","876054","0.0-344.0","","","","","true","","","","","","","","","","","preload","","","2","31","false","[]","[]","[]","","","","","",""
"","","","","","","","","","","","canvas-keyboard-response","345","876356","0.0-345.0","null","null","","","","","","","","","","","","","","fixation","","","2","31","","","","","","","","","",""
"","","","","","","","","","","","canvas-keyboard-response","346","876659","0.0-346.0","null","null","","","","","","","","","","","","","","stimulus","","","2","31","","","","","","","","","",""
"","","","","","","","","","","","canvas-button-response","347","878688","0.0-347.0","2028","flower","","","","","","","","","","","","","","perceptual","","","2","31","","","","","314","cat","10","0","0",""
"","","","","","","","","","","","canvas-button-response","348","879425","0.0-348.0","735","1","","","","","","","","","","","","","","confidence","","","2","31","","","","","","","","","","17"
"","","","","","","","","","","","preload","349","879425","0.0-349.0","","","","","true","","","","","","","","","","","preload","","","2","32","false","[]","[]","[]","","","","","",""
"","","","","","","","","","","","canvas-keyboard-response","350","879727","0.0-350.0","null","null","","","","","","","","","","","","","","fixation","","","2","32","","","","","","","","","",""
"","","","","","","","","","","","canvas-keyboard-response","351","880029","0.0-351.0","null","null","","","","","","","","","","","","","","stimulus","","","2","32","","","","","","","","","",""
"","","","","","","","","","","","canvas-button-response","352","881331","0.0-352.0","1301","car","","","","","","","","","","","","","","perceptual","","","2","32","","","","","271","train","10","0","0",""
"","","","","","","","","","","","canvas-button-response","353","882124","0.0-353.0","792","1","","","","","","","","","","","","","","confidence","","","2","32","","","","","","","","","","17"
"","","","","","","","","","","","preload","354","882125","0.0-354.0","","","","","true","","","","","","","","","","","preload","","","2","33","false","[]","[]","[]","","","","","",""
"","","","","","","","","","","","canvas-keyboard-response","355","882427","0.0-355.0","null","null","","","","","","","","","","","","","","fixation","","","2","33","","","","","","","","","",""
"","","","","","","","","","","","canvas-keyboard-response","356","882729","0.0-356.0","null","null","","","","","","","","","","","","","","stimulus","","","2","33","","","","","","","","","",""
"","","","","","","","","","","","canvas-button-response","357","883758","0.0-357.0","1027","knife","","","","","","","","","","","","","","perceptual","","","2","33","","","","","393","knife","10","0","1",""
"","","","","","","","","","","","canvas-button-response","358","884669","0.0-358.0","910","10","","","","","","","","","","","","","","confidence","","","2","33","","","","","","","","","","18"
"","","","","","","","","","","","preload","359","884670","0.0-359.0","","","","","true","","","","","","","","","","","preload","","","2","34","false","[]","[]","[]","","","","","",""
"","","","","","","","","","","","canvas-keyboard-response","360","884971","0.0-360.0","null","null","","","","","","","","","","","","","","fixation","","","2","34","","","","","","","","","",""
"","","","","","","","","","","","canvas-keyboard-response","361","885274","0.0-361.0","null","null","","","","","","","","","","","","","","stimulus","","","2","34","","","","","","","","","",""
"","","","","","","","","","","","canvas-button-response","362","886897","0.0-362.0","1621","phone","","","","","","","","","","","","","","perceptual","","","2","34","","","","","104","phone","10","0","1",""
"","","","","","","","","","","","canvas-button-response","363","887522","0.0-363.0","623","10","","","","","","","","","","","","","","confidence","","","2","34","","","","","","","","","","19"
"","","","","","","","","","","","preload","364","887522","0.0-364.0","","","","","true","","","","","","","","","","","preload","","","2","35","false","[]","[]","[]","","","","","",""
"","","","","","","","","","","","canvas-keyboard-response","365","887824","0.0-365.0","null","null","","","","","","","","","","","","","","fixation","","","2","35","","","","","","","","","",""
"","","","","","","","","","","","canvas-keyboard-response","366","888127","0.0-366.0","null","null","","","","","","","","","","","","","","stimulus","","","2","35","","","","","","","","","",""
"","","","","","","","","","","","canvas-button-response","367","889467","0.0-367.0","1339","bridge","","","","","","","","","","","","","","perceptual","","","2","35","","","","","188","bridge","10","0","1",""
"","","","","","","","","","","","canvas-button-response","368","890236","0.0-368.0","767","10","","","","","","","","","","","","","","confidence","","","2","35","","","","","","","","","","20"
"","","","","","","","","","","","preload","369","890236","0.0-369.0","","","","","true","","","","","","","","","","","preload","","","2","36","false","[]","[]","[]","","","","","",""
"","","","","","","","","","","","canvas-keyboard-response","370","890537","0.0-370.0","null","null","","","","","","","","","","","","","","fixation","","","2","36","","","","","","","","","",""
"","","","","","","","","","","","canvas-keyboard-response","371","890840","0.0-371.0","null","null","","","","","","","","","","","","","","stimulus","","","2","36","","","","","","","","","",""
"","","","","","","","","","","","canvas-button-response","372","893760","0.0-372.0","2918","train","","","","","","","","","","","","","","perceptual","","","2","36","","","","","186","bridge","10","0","0",""
"","","","","","","","","","","","canvas-button-response","373","894304","0.0-373.0","543","10","","","","","","","","","","","","","","confidence","","","2","36","","","","","","","","","","20"
"","","","","","","","","","","","preload","374","894304","0.0-374.0","","","","","true","","","","","","","","","","","preload","","","2","37","false","[]","[]","[]","","","","","",""
"","","","","","","","","","","","canvas-keyboard-response","375","894606","0.0-375.0","null","null","","","","","","","","","","","","","","fixation","","","2","37","","","","","","","","","",""
"","","","","","","","","","","","canvas-keyboard-response","376","894909","0.0-376.0","null","null","","","","","","","","","","","","","","stimulus","","","2","37","","","","","","","","","",""
"","","","","","","","","","","","canvas-button-response","377","896907","0.0-377.0","1996","elephant","","","","","","","","","","","","","","perceptual","","","2","37","","","","","346","elephant","10","0","1",""
"","","","","","","","","","","","canvas-button-response","378","897483","0.0-378.0","575","10","","","","","","","","","","","","","","confidence","","","2","37","","","","","","","","","","21"
"","","","","","","","","","","","preload","379","897484","0.0-379.0","","","","","true","","","","","","","","","","","preload","","","2","38","false","[]","[]","[]","","","","","",""
"","","","","","","","","","","","canvas-keyboard-response","380","897785","0.0-380.0","null","null","","","","","","","","","","","","","","fixation","","","2","38","","","","","","","","","",""
"","","","","","","","","","","","canvas-keyboard-response","381","898086","0.0-381.0","null","null","","","","","","","","","","","","","","stimulus","","","2","38","","","","","","","","","",""
"","","","","","","","","","","","canvas-button-response","382","899606","0.0-382.0","1518","phone","","","","","","","","","","","","","","perceptual","","","2","38","","","","","82","phone","6","0","1",""
"","","","","","","","","","","","canvas-button-response","383","900702","0.0-383.0","1095","10","","","","","","","","","","","","","","confidence","","","2","38","","","","","","","","","","22"
"","","","","","","","","","","","preload","384","900703","0.0-384.0","","","","","true","","","","","","","","","","","preload","","","2","39","false","[]","[]","[]","","","","","",""
"","","","","","","","","","","","canvas-keyboard-response","385","901005","0.0-385.0","null","null","","","","","","","","","","","","","","fixation","","","2","39","","","","","","","","","",""
"","","","","","","","","","","","canvas-keyboard-response","386","901308","0.0-386.0","null","null","","","","","","","","","","","","","","stimulus","","","2","39","","","","","","","","","",""
"","","","","","","","","","","","canvas-button-response","387","903897","0.0-387.0","2588","flower","","","","","","","","","","","","","","perceptual","","","2","39","","","","","382","knife","10","0","0",""
"","","","","","","","","","","","canvas-button-response","388","904538","0.0-388.0","639","1","","","","","","","","","","","","","","confidence","","","2","39","","","","","","","","","","22"
"","","","","","","","","","","","preload","389","904539","0.0-389.0","","","","","true","","","","","","","","","","","preload","","","2","40","false","[]","[]","[]","","","","","",""
"","","","","","","","","","","","canvas-keyboard-response","390","904840","0.0-390.0","null","null","","","","","","","","","","","","","","fixation","","","2","40","","","","","","","","","",""
"","","","","","","","","","","","canvas-keyboard-response","391","905142","0.0-391.0","null","null","","","","","","","","","","","","","","stimulus","","","2","40","","","","","","","","","",""
"","","","","","","","","","","","canvas-button-response","392","906684","0.0-392.0","1541","bridge","","","","","","","","","","","","","","perceptual","","","2","40","","","","","247","train","6","0","0",""
"","","","","","","","","","","","canvas-button-response","393","907421","0.0-393.0","736","10","","","","","","","","","","","","","","confidence","","","2","40","","","","","","","","","","22"
"","","","","","","","","","","","preload","394","907421","0.0-394.0","","","","","true","","","","","","","","","","","preload","","","2","41","false","[]","[]","[]","","","","","",""
"","","","","","","","","","","","canvas-keyboard-response","395","907723","0.0-395.0","null","null","","","","","","","","","","","","","","fixation","","","2","41","","","","","","","","","",""
"","","","","","","","","","","","canvas-keyboard-response","396","908026","0.0-396.0","null","null","","","","","","","","","","","","","","stimulus","","","2","41","","","","","","","","","",""
"","","","","","","","","","","","canvas-button-response","397","910344","0.0-397.0","2316","elephant","","","","","","","","","","","","","","perceptual","","","2","41","","","","","181","bridge","10","0","0",""
"","","","","","","","","","","","canvas-button-response","398","911305","0.0-398.0","960","10","","","","","","","","","","","","","","confidence","","","2","41","","","","","","","","","","22"
"","","","","","","","","","","","preload","399","911306","0.0-399.0","","","","","true","","","","","","","","","","","preload","","","2","42","false","[]","[]","[]","","","","","",""
"","","","","","","","","","","","canvas-keyboard-response","400","911608","0.0-400.0","null","null","","","","","","","","","","","","","","fixation","","","2","42","","","","","","","","","",""
"","","","","","","","","","","","canvas-keyboard-response","401","911910","0.0-401.0","null","null","","","","","","","","","","","","","","stimulus","","","2","42","","","","","","","","","",""
"","","","","","","","","","","","canvas-button-response","402","914100","0.0-402.0","2188","phone","","","","","","","","","","","","","","perceptual","","","2","42","","","","","96","phone","6","0","1",""
"","","","","","","","","","","","canvas-button-response","403","914780","0.0-403.0","679","10","","","","","","","","","","","","","","confidence","","","2","42","","","","","","","","","","23"
"","","","","","","","","","","","preload","404","914781","0.0-404.0","","","","","true","","","","","","","","","","","preload","","","2","43","false","[]","[]","[]","","","","","",""
"","","","","","","","","","","","canvas-keyboard-response","405","915083","0.0-405.0","null","null","","","","","","","","","","","","","","fixation","","","2","43","","","","","","","","","",""
"","","","","","","","","","","","canvas-keyboard-response","406","915385","0.0-406.0","null","null","","","","","","","","","","","","","","stimulus","","","2","43","","","","","","","","","",""
"","","","","","","","","","","","canvas-button-response","407","916887","0.0-407.0","1499","house","","","","","","","","","","","","","","perceptual","","","2","43","","","","","8","house","6","0","1",""
"","","","","","","","","","","","canvas-button-response","408","917567","0.0-408.0","679","10","","","","","","","","","","","","","","confidence","","","2","43","","","","","","","","","","24"
"","","","","","","","","","","","preload","409","917568","0.0-409.0","","","","","true","","","","","","","","","","","preload","","","2","44","false","[]","[]","[]","","","","","",""
"","","","","","","","","","","","canvas-keyboard-response","410","917870","0.0-410.0","null","null","","","","","","","","","","","","","","fixation","","","2","44","","","","","","","","","",""
"","","","","","","","","","","","canvas-keyboard-response","411","918173","0.0-411.0","null","null","","","","","","","","","","","","","","stimulus","","","2","44","","","","","","","","","",""
"","","","","","","","","","","","canvas-button-response","412","919913","0.0-412.0","1739","knife","","","","","","","","","","","","","","perceptual","","","2","44","","","","","260","train","10","0","0",""
"","","","","","","","","","","","canvas-button-response","413","920891","0.0-413.0","977","10","","","","","","","","","","","","","","confidence","","","2","44","","","","","","","","","","24"
"","","","","","","","","","","","preload","414","920892","0.0-414.0","","","","","true","","","","","","","","","","","preload","","","2","45","false","[]","[]","[]","","","","","",""
"","","","","","","","","","","","canvas-keyboard-response","415","921194","0.0-415.0","null","null","","","","","","","","","","","","","","fixation","","","2","45","","","","","","","","","",""
"","","","","","","","","","","","canvas-keyboard-response","416","921496","0.0-416.0","null","null","","","","","","","","","","","","","","stimulus","","","2","45","","","","","","","","","",""
"","","","","","","","","","","","canvas-button-response","417","923293","0.0-417.0","1796","phone","","","","","","","","","","","","","","perceptual","","","2","45","","","","","243","train","6","0","0",""
"","","","","","","","","","","","canvas-button-response","418","923966","0.0-418.0","672","10","","","","","","","","","","","","","","confidence","","","2","45","","","","","","","","","","24"
"","","","","","","","","","","","preload","419","923967","0.0-419.0","","","","","true","","","","","","","","","","","preload","","","2","46","false","[]","[]","[]","","","","","",""
"","","","","","","","","","","","canvas-keyboard-response","420","924270","0.0-420.0","null","null","","","","","","","","","","","","","","fixation","","","2","46","","","","","","","","","",""
"","","","","","","","","","","","canvas-keyboard-response","421","924572","0.0-421.0","null","null","","","","","","","","","","","","","","stimulus","","","2","46","","","","","","","","","",""
"","","","","","","","","","","","canvas-button-response","422","930816","0.0-422.0","6242","train","","","","","","","","","","","","","","perceptual","","","2","46","","","","","81","phone","6","0","0",""
"","","","","","","","","","","","canvas-button-response","423","931465","0.0-423.0","647","8","","","","","","","","","","","","","","confidence","","","2","46","","","","","","","","","","24"
"","","","","","","","","","","","preload","424","931466","0.0-424.0","","","","","true","","","","","","","","","","","preload","","","2","47","false","[]","[]","[]","","","","","",""
"","","","","","","","","","","","canvas-keyboard-response","425","931768","0.0-425.0","null","null","","","","","","","","","","","","","","fixation","","","2","47","","","","","","","","","",""
"","","","","","","","","","","","canvas-keyboard-response","426","932071","0.0-426.0","null","null","","","","","","","","","","","","","","stimulus","","","2","47","","","","","","","","","",""
"","","","","","","","","","","","canvas-button-response","427","934137","0.0-427.0","2065","house","","","","","","","","","","","","","","perceptual","","","2","47","","","","","191","bridge","10","0","0",""
"","","","","","","","","","","","canvas-button-response","428","934995","0.0-428.0","856","1","","","","","","","","","","","","","","confidence","","","2","47","","","","","","","","","","24"
"","","","","","","","","","","","preload","429","934995","0.0-429.0","","","","","true","","","","","","","","","","","preload","","","2","48","false","[]","[]","[]","","","","","",""
"","","","","","","","","","","","canvas-keyboard-response","430","935297","0.0-430.0","null","null","","","","","","","","","","","","","","fixation","","","2","48","","","","","","","","","",""
"","","","","","","","","","","","canvas-keyboard-response","431","935600","0.0-431.0","null","null","","","","","","","","","","","","","","stimulus","","","2","48","","","","","","","","","",""
"","","","","","","","","","","","canvas-button-response","432","937300","0.0-432.0","1699","bed","","","","","","","","","","","","","","perceptual","","","2","48","","","","","152","bed","10","0","1",""
"","","","","","","","","","","","canvas-button-response","433","937989","0.0-433.0","687","4","","","","","","","","","","","","","","confidence","","","2","48","","","","","","","","","","25"
"","","","","","","","","","","","preload","434","937990","0.0-434.0","","","","","true","","","","","","","","","","","preload","","","2","49","false","[]","[]","[]","","","","","",""
"","","","","","","","","","","","canvas-keyboard-response","435","938292","0.0-435.0","null","null","","","","","","","","","","","","","","fixation","","","2","49","","","","","","","","","",""
"","","","","","","","","","","","canvas-keyboard-response","436","938595","0.0-436.0","null","null","","","","","","","","","","","","","","stimulus","","","2","49","","","","","","","","","",""
"","","","","","","","","","","","canvas-button-response","437","940704","0.0-437.0","2108","flower","","","","","","","","","","","","","","perceptual","","","2","49","","","","","295","cat","6","0","0",""
"","","","","","","","","","","","canvas-button-response","438","941337","0.0-438.0","631","3","","","","","","","","","","","","","","confidence","","","2","49","","","","","","","","","","25"
"","","","","","","","","","","","html-button-response","439","951159","0.0-439.0","9821","0","","","","","","","","","","","","","","<p style=""font-size:20px;color:#000000"">You got 25 out of 50 trials correct in this block.<br><br>You have completed 6% of the experiment.<br><br>Take a short break.<br><br>When you are ready, click Continue to proceed.","","","2","49","","","","","","","","","",""
"","","","","","","","","","","","html-keyboard-response","440","952162","0.0-440.0","null","null","","","","","","","","","","","","","","<p style=""font-size:32px;color:#000000""><br><br> RUN: &nbsp 1/4 <br><br> BLOCK: 2/4 ","","","2","49","","","","","","","","","",""
"","","","","","","","","","","","preload","441","952163","0.0-441.0","","","","","true","","","","","","","","","","","preload","","","2","50","false","[]","[]","[]","","","","","",""
"","","","","","","","","","","","canvas-keyboard-response","442","952466","0.0-442.0","null","null","","","","","","","","","","","","","","fixation","","","2","50","","","","","","","","","",""
"","","","","","","","","","","","canvas-keyboard-response","443","952768","0.0-443.0","null","null","","","","","","","","","","","","","","stimulus","","","2","50","","","","","","","","","",""
"","","","","","","","","","","","canvas-button-response","444","956237","0.0-444.0","3467","car","","","","","","","","","","","","","","perceptual","","","2","50","","","","","52","car","6","0","1",""
"","","","","","","","","","","","canvas-button-response","445","956942","0.0-445.0","704","10","","","","","","","","","","","","","","confidence","","","2","50","","","","","","","","","","1"
"","","","","","","","","","","","preload","446","956943","0.0-446.0","","","","","true","","","","","","","","","","","preload","","","2","51","false","[]","[]","[]","","","","","",""
"","","","","","","","","","","","canvas-keyboard-response","447","957244","0.0-447.0","null","null","","","","","","","","","","","","","","fixation","","","2","51","","","","","","","","","",""
"","","","","","","","","","","","canvas-keyboard-response","448","957546","0.0-448.0","null","null","","","","","","","","","","","","","","stimulus","","","2","51","","","","","","","","","",""
"","","","","","","","","","","","canvas-button-response","449","960265","0.0-449.0","2718","flower","","","","","","","","","","","","","","perceptual","","","2","51","","","","","227","flower","10","0","1",""
"","","","","","","","","","","","canvas-button-response","450","961003","0.0-450.0","737","10","","","","","","","","","","","","","","confidence","","","2","51","","","","","","","","","","2"
"","","","","","","","","","","","preload","451","961004","0.0-451.0","","","","","true","","","","","","","","","","","preload","","","2","52","false","[]","[]","[]","","","","","",""
"","","","","","","","","","","","canvas-keyboard-response","452","961305","0.0-452.0","null","null","","","","","","","","","","","","","","fixation","","","2","52","","","","","","","","","",""
"","","","","","","","","","","","canvas-keyboard-response","453","961607","0.0-453.0","null","null","","","","","","","","","","","","","","stimulus","","","2","52","","","","","","","","","",""
"","","","","","","","","","","","canvas-button-response","454","962613","0.0-454.0","1004","flower","","","","","","","","","","","","","","perceptual","","","2","52","","","","","226","flower","10","0","1",""
"","","","","","","","","","","","canvas-button-response","455","963446","0.0-455.0","831","10","","","","","","","","","","","","","","confidence","","","2","52","","","","","","","","","","3"
"","","","","","","","","","","","preload","456","963446","0.0-456.0","","","","","true","","","","","","","","","","","preload","","","2","53","false","[]","[]","[]","","","","","",""
"","","","","","","","","","","","canvas-keyboard-response","457","963747","0.0-457.0","null","null","","","","","","","","","","","","","","fixation","","","2","53","","","","","","","","","",""
"","","","","","","","","","","","canvas-keyboard-response","458","964050","0.0-458.0","null","null","","","","","","","","","","","","","","stimulus","","","2","53","","","","","","","","","",""
"","","","","","","","","","","","canvas-button-response","459","966521","0.0-459.0","2470","elephant","","","","","","","","","","","","","","perceptual","","","2","53","","","","","197","bridge","10","0","0",""
"","","","","","","","","","","","canvas-button-response","460","967643","0.0-460.0","1120","6","","","","","","","","","","","","","","confidence","","","2","53","","","","","","","","","","3"
"","","","","","","","","","","","preload","461","967643","0.0-461.0","","","","","true","","","","","","","","","","","preload","","","2","54","false","[]","[]","[]","","","","","",""
"","","","","","","","","","","","canvas-keyboard-response","462","967946","0.0-462.0","null","null","","","","","","","","","","","","","","fixation","","","2","54","","","","","","","","","",""
"","","","","","","","","","","","canvas-keyboard-response","463","968248","0.0-463.0","null","null","","","","","","","","","","","","","","stimulus","","","2","54","","","","","","","","","",""
"","","","","","","","","","","","canvas-button-response","464","978606","0.0-464.0","10357","house","","","","","","","","","","","","","","perceptual","","","2","54","","","","","386","knife","10","0","0",""
"","","","","","","","","","","","canvas-button-response","465","979976","0.0-465.0","1368","1","","","","","","","","","","","","","","confidence","","","2","54","","","","","","","","","","3"
"","","","","","","","","","","","preload","466","979977","0.0-466.0","","","","","true","","","","","","","","","","","preload","","","2","55","false","[]","[]","[]","","","","","",""
"","","","","","","","","","","","canvas-keyboard-response","467","980279","0.0-467.0","null","null","","","","","","","","","","","","","","fixation","","","2","55","","","","","","","","","",""
"","","","","","","","","","","","canvas-keyboard-response","468","980582","0.0-468.0","null","null","","","","","","","","","","","","","","stimulus","","","2","55","","","","","","","","","",""
"","","","","","","","","","","","canvas-button-response","469","981706","0.0-469.0","1122","car","","","","","","","","","","","","","","perceptual","","","2","55","","","","","56","car","6","0","1",""
"","","","","","","","","","","","canvas-button-response","470","982442","0.0-470.0","735","10","","","","","","","","","","","","","","confidence","","","2","55","","","","","","","","","","4"
"","","","","","","","","","","","preload","471","982443","0.0-471.0","","","","","true","","","","","","","","","","","preload","","","2","56","false","[]","[]","[]","","","","","",""
"","","","","","","","","","","","canvas-keyboard-response","472","982744","0.0-472.0","null","null","","","","","","","","","","","","","","fixation","","","2","56","","","","","","","","","",""
"","","","","","","","","","","","canvas-keyboard-response","473","983047","0.0-473.0","null","null","","","","","","","","","","","","","","stimulus","","","2","56","","","","","","","","","",""
"","","","","","","","","","","","canvas-button-response","474","985662","0.0-474.0","2614","flower","","","","","","","","","","","","","","perceptual","","","2","56","","","","","222","flower","10","0","1",""
"","","","","","","","","","","","canvas-button-response","475","986503","0.0-475.0","839","10","","","","","","","","","","","","","","confidence","","","2","56","","","","","","","","","","5"
"","","","","","","","","","","","preload","476","986504","0.0-476.0","","","","","true","","","","","","","","","","","preload","","","2","57","false","[]","[]","[]","","","","","",""
"","","","","","","","","","","","canvas-keyboard-response","477","986805","0.0-477.0","null","null","","","","","","","","","","","","","","fixation","","","2","57","","","","","","","","","",""
"","","","","","","","","","","","canvas-keyboard-response","478","987107","0.0-478.0","null","null","","","","","","","","","","","","","","stimulus","","","2","57","","","","","","","","","",""
"","","","","","","","","","","","canvas-button-response","479","991356","0.0-479.0","4247","flower","","","","","","","","","","","","","","perceptual","","","2","57","","","","","213","flower","6","0","1",""
"","","","","","","","","","","","canvas-button-response","480","992205","0.0-480.0","847","10","","","","","","","","","","","","","","confidence","","","2","57","","","","","","","","","","6"
"","","","","","","","","","","","preload","481","992205","0.0-481.0","","","","","true","","","","","","","","","","","preload","","","2","58","false","[]","[]","[]","","","","","",""
"","","","","","","","","","","","canvas-keyboard-response","482","992507","0.0-482.0","null","null","","","","","","","","","","","","","","fixation","","","2","58","","","","","","","","","",""
"","","","","","","","","","","","canvas-keyboard-response","483","992810","0.0-483.0","null","null","","","","","","","","","","","","","","stimulus","","","2","58","","","","","","","","","",""
"","","","","","","","","","","","canvas-button-response","484","994345","0.0-484.0","1533","house","","","","","","","","","","","","","","perceptual","","","2","58","","","","","23","house","10","0","1",""
"","","","","","","","","","","","canvas-button-response","485","995016","0.0-485.0","670","10","","","","","","","","","","","","","","confidence","","","2","58","","","","","","","","","","7"
"","","","","","","","","","","","preload","486","995017","0.0-486.0","","","","","true","","","","","","","","","","","preload","","","2","59","false","[]","[]","[]","","","","","",""
"","","","","","","","","","","","canvas-keyboard-response","487","995319","0.0-487.0","null","null","","","","","","","","","","","","","","fixation","","","2","59","","","","","","","","","",""
"","","","","","","","","","","","canvas-keyboard-response","488","995622","0.0-488.0","null","null","","","","","","","","","","","","","","stimulus","","","2","59","","","","","","","","","",""
"","","","","","","","","","","","canvas-button-response","489","996730","0.0-489.0","1106","elephant","","","","","","","","","","","","","","perceptual","","","2","59","","","","","349","elephant","10","0","1",""
"","","","","","","","","","","","canvas-button-response","490","997331","0.0-490.0","599","10","","","","","","","","","","","","","","confidence","","","2","59","","","","","","","","","","8"
"","","","","","","","","","","","preload","491","997331","0.0-491.0","","","","","true","","","","","","","","","","","preload","","","2","60","false","[]","[]","[]","","","","","",""
