"width","height","webaudio","browser","browser_version","mobile","os","fullscreen","vsync_rate","webcam","microphone","trial_type","trial_index","time_elapsed","internal_node_id","rt","response","accuracy","view_history","success","item_width_mm","item_height_mm","item_width_px","px2mm","view_dist_mm","item_width_deg","px2deg","scale_factor","win_width_deg","win_height_deg","stimulus","datetime","subjectID","curr_triallist","trial_no","timeout","failed_images","failed_audio","failed_video","image_index","category","blur","reps","correct","running_score"
"1440","825","true","chrome","141.0.0","false","Windows 10","true","60.03","true","true","browser-check","0","1249","0.0-0.0","","","","","","","","","","","","","","","","","","","","","","","","","","","","","",""
"","","","","","","","","","","","survey","1","35018","0.0-1.0","33697","{""P0_Q0"":""903676464"",""P0_Q1"":""22"",""P1_Q0"":""Male"",""P1_Q1"":""Not Hispanic or Latino"",""P1_Q2"":""White"",""P1_Q3"":""Normal"",""P1_Q4"":""Right-Handed""}","[]","","","","","","","","","","","","","","","","","","","","","","","","","","",""
"","","","","","","","","","","","instructions","2","75628","0.0-2.0","40608","","","[{""page_index"":0,""viewing_time"":6620},{""page_index"":1,""viewing_time"":14331},{""page_index"":2,""viewing_time"":12297},{""page_index"":3,""viewing_time"":7359}]","","","","","","","","","","","","","","","","","","","","","","","","","",""
"","","","","","","","","","","","fullscreen","3","79374","0.0-3.0","2731","","","","true","","","","","","","","","","","","","","","","","","","","","","","","",""
"","","","","","","","","","","","virtual-chinrest","4","186200","0.0-4.0","106821","","","","","85.6","53.98","290.0855212231474","3.39077742585279","506.01","9.669517374104913","30","1.551266668196924","48","32","","","","","","","","","","","","","","",""
"","","","","","","","","","","","instructions","5","264172","0.0-5.0","77971","","","[{""page_index"":0,""viewing_time"":9564},{""page_index"":1,""viewing_time"":5900},{""page_index"":2,""viewing_time"":9101},{""page_index"":3,""viewing_time"":3682},{""page_index"":4,""viewing_time"":22971},{""page_index"":5,""viewing_time"":22310},{""page_index"":6,""viewing_time"":4442}]","","","","","","","","","","","","","","","","","","","","","","","","","",""
"","","","","","","","","","","","html-button-response","6","270827","0.0-6.0","6647","0","","","","","","","","","","","","","","start_practice","Tue Oct 21 2025 15:19:53 GMT-0400 (Eastern Daylight Time)","27782","","","","","","","","","","","",""
"","","","","","","","","","","","preload","7","270832","0.0-7.0","","","","","true","","","","","","","","","","","preload","","","0","0","false","[]","[]","[]","","","","","",""
"","","","","","","","","","","","canvas-keyboard-response","8","271147","0.0-8.0","null","null","","","","","","","","","","","","","","fixation","","","0","0","","","","","","","","","",""
"","","","","","","","","","","","canvas-keyboard-response","9","271458","0.0-9.0","null","null","","","","","","","","","","","","","","stimulus","","","0","0","","","","","","","","","",""
"","","","","","","","","","","","canvas-button-response","10","279699","0.0-10.0","8234","cat","","","","","","","","","","","","","","perceptual","","","0","0","","","","","82","elephant","1","","0",""
"","","","","","","","","","","","canvas-button-response","11","282414","0.0-11.0","2711","5","","","","","","","","","","","","","","confidence","","","0","0","","","","","","","","","","0"
"","","","","","","","","","","","html-keyboard-response","12","283422","0.0-12.0","null","null","","","","","","","","","","","","","","feedback","Tue Oct 21 2025 15:20:11 GMT-0400 (Eastern Daylight Time)","27782","0","0","","","","","","","","","",""
"","","","","","","","","","","","preload","13","283423","0.0-13.0","","","","","true","","","","","","","","","","","preload","","","0","1","false","[]","[]","[]","","","","","",""
"","","","","","","","","","","","canvas-keyboard-response","14","283725","0.0-14.0","null","null","","","","","","","","","","","","","","fixation","","","0","1","","","","","","","","","",""
"","","","","","","","","","","","canvas-keyboard-response","15","284039","0.0-15.0","null","null","","","","","","","","","","","","","","stimulus","","","0","1","","","","","","","","","",""
"","","","","","","","","","","","canvas-button-response","16","291909","0.0-16.0","7866","knife","","","","","","","","","","","","","","perceptual","","","0","1","","","","","92","knife","1","","1",""
"","","","","","","","","","","","canvas-button-response","17","294257","0.0-17.0","2344","8","","","","","","","","","","","","","","confidence","","","0","1","","","","","","","","","","1"
"","","","","","","","","","","","html-keyboard-response","18","295266","0.0-18.0","null","null","","","","","","","","","","","","","","feedback","Tue Oct 21 2025 15:20:23 GMT-0400 (Eastern Daylight Time)","27782","0","1","","","","","","","","","",""
"","","","","","","","","","","","preload","19","295267","0.0-19.0","","","","","true","","","","","","","","","","","preload","","","0","2","false","[]","[]","[]","","","","","",""
"","","","","","","","","","","","canvas-keyboard-response","20","295576","0.0-20.0","null","null","","","","","","","","","","","","","","fixation","","","0","2","","","","","","","","","",""
"","","","","","","","","","","","canvas-keyboard-response","21","295888","0.0-21.0","null","null","","","","","","","","","","","","","","stimulus","","","0","2","","","","","","","","","",""
"","","","","","","","","","","","canvas-button-response","22","298269","0.0-22.0","2378","bridge","","","","","","","","","","","","","","perceptual","","","0","2","","","","","42","bridge","1","","1",""
"","","","","","","","","","","","canvas-button-response","23","299622","0.0-23.0","1350","10","","","","","","","","","","","","","","confidence","","","0","2","","","","","","","","","","2"
"","","","","","","","","","","","html-keyboard-response","24","300632","0.0-24.0","null","null","","","","","","","","","","","","","","feedback","Tue Oct 21 2025 15:20:28 GMT-0400 (Eastern Daylight Time)","27782","0","2","","","","","","","","","",""
"","","","","","","","","","","","preload","25","300633","0.0-25.0","","","","","true","","","","","","","","","","","preload","","","0","3","false","[]","[]","[]","","","","","",""
"","","","","","","","","","","","canvas-keyboard-response","26","300943","0.0-26.0","null","null","","","","","","","","","","","","","","fixation","","","0","3","","","","","","","","","",""
"","","","","","","","","","","","canvas-keyboard-response","27","301254","0.0-27.0","null","null","","","","","","","","","","","","","","stimulus","","","0","3","","","","","","","","","",""
"","","","","","","","","","","","canvas-button-response","28","302580","0.0-28.0","1323","cat","","","","","","","","","","","","","","perceptual","","","0","3","","","","","72","cat","1","","1",""
"","","","","","","","","","","","canvas-button-response","29","303948","0.0-29.0","1364","10","","","","","","","","","","","","","","confidence","","","0","3","","","","","","","","","","3"
"","","","","","","","","","","","html-keyboard-response","30","304953","0.0-30.0","null","null","","","","","","","","","","","","","","feedback","Tue Oct 21 2025 15:20:33 GMT-0400 (Eastern Daylight Time)","27782","0","3","","","","","","","","","",""
"","","","","","","","","","","","preload","31","304954","0.0-31.0","","","","","true","","","","","","","","","","","preload","","","0","4","false","[]","[]","[]","","","","","",""
"","","","","","","","","","","","canvas-keyboard-response","32","305264","0.0-32.0","null","null","","","","","","","","","","","","","","fixation","","","0","4","","","","","","","","","",""
"","","","","","","","","","","","canvas-keyboard-response","33","305576","0.0-33.0","null","null","","","","","","","","","","","","","","stimulus","","","0","4","","","","","","","","","",""
"","","","","","","","","","","","canvas-button-response","34","307208","0.0-34.0","1629","phone","","","","","","","","","","","","","","perceptual","","","0","4","","","","","22","phone","1","","1",""
"","","","","","","","","","","","canvas-button-response","35","308246","0.0-35.0","1033","10","","","","","","","","","","","","","","confidence","","","0","4","","","","","","","","","","4"
"","","","","","","","","","","","html-keyboard-response","36","309250","0.0-36.0","null","null","","","","","","","","","","","","","","feedback","Tue Oct 21 2025 15:20:37 GMT-0400 (Eastern Daylight Time)","27782","0","4","","","","","","","","","",""
"","","","","","","","","","","","preload","37","309251","0.0-37.0","","","","","true","","","","","","","","","","","preload","","","0","5","false","[]","[]","[]","","","","","",""
"","","","","","","","","","","","canvas-keyboard-response","38","309561","0.0-38.0","null","null","","","","","","","","","","","","","","fixation","","","0","5","","","","","","","","","",""
"","","","","","","","","","","","canvas-keyboard-response","39","309871","0.0-39.0","null","null","","","","","","","","","","","","","","stimulus","","","0","5","","","","","","","","","",""
"","","","","","","","","","","","canvas-button-response","40","311300","0.0-40.0","1426","train","","","","","","","","","","","","","","perceptual","","","0","5","","","","","62","train","1","","1",""
"","","","","","","","","","","","canvas-button-response","41","312313","0.0-41.0","1009","10","","","","","","","","","","","","","","confidence","","","0","5","","","","","","","","","","5"
"","","","","","","","","","","","html-keyboard-response","42","313325","0.0-42.0","null","null","","","","","","","","","","","","","","feedback","Tue Oct 21 2025 15:20:41 GMT-0400 (Eastern Daylight Time)","27782","0","5","","","","","","","","","",""
"","","","","","","","","","","","preload","43","313326","0.0-43.0","","","","","true","","","","","","","","","","","preload","","","0","6","false","[]","[]","[]","","","","","",""
"","","","","","","","","","","","canvas-keyboard-response","44","313638","0.0-44.0","null","null","","","","","","","","","","","","","","fixation","","","0","6","","","","","","","","","",""
"","","","","","","","","","","","canvas-keyboard-response","45","313949","0.0-45.0","null","null","","","","","","","","","","","","","","stimulus","","","0","6","","","","","","","","","",""
"","","","","","","","","","","","canvas-button-response","46","315584","0.0-46.0","1633","bed","","","","","","","","","","","","","","perceptual","","","0","6","","","","","32","bed","1","","1",""
"","","","","","","","","","","","canvas-button-response","47","316938","0.0-47.0","1351","10","","","","","","","","","","","","","","confidence","","","0","6","","","","","","","","","","6"
"","","","","","","","","","","","html-keyboard-response","48","317954","0.0-48.0","null","null","","","","","","","","","","","","","","feedback","Tue Oct 21 2025 15:20:46 GMT-0400 (Eastern Daylight Time)","27782","0","6","","","","","","","","","",""
"","","","","","","","","","","","preload","49","317955","0.0-49.0","","","","","true","","","","","","","","","","","preload","","","0","7","false","[]","[]","[]","","","","","",""
"","","","","","","","","","","","canvas-keyboard-response","50","318268","0.0-50.0","null","null","","","","","","","","","","","","","","fixation","","","0","7","","","","","","","","","",""
"","","","","","","","","","","","canvas-keyboard-response","51","318579","0.0-51.0","null","null","","","","","","","","","","","","","","stimulus","","","0","7","","","","","","","","","",""
"","","","","","","","","","","","canvas-button-response","52","319863","0.0-52.0","1280","house","","","","","","","","","","","","","","perceptual","","","0","7","","","","","2","house","1","","1",""
"","","","","","","","","","","","canvas-button-response","53","320804","0.0-53.0","938","10","","","","","","","","","","","","","","confidence","","","0","7","","","","","","","","","","7"
"","","","","","","","","","","","html-keyboard-response","54","321808","0.0-54.0","null","null","","","","","","","","","","","","","","feedback","Tue Oct 21 2025 15:20:49 GMT-0400 (Eastern Daylight Time)","27782","0","7","","","","","","","","","",""
"","","","","","","","","","","","preload","55","321809","0.0-55.0","","","","","true","","","","","","","","","","","preload","","","0","8","false","[]","[]","[]","","","","","",""
"","","","","","","","","","","","canvas-keyboard-response","56","322120","0.0-56.0","null","null","","","","","","","","","","","","","","fixation","","","0","8","","","","","","","","","",""
"","","","","","","","","","","","canvas-keyboard-response","57","322430","0.0-57.0","null","null","","","","","","","","","","","","","","stimulus","","","0","8","","","","","","","","","",""
"","","","","","","","","","","","canvas-button-response","58","325388","0.0-58.0","2954","flower","","","","","","","","","","","","","","perceptual","","","0","8","","","","","52","flower","1","","1",""
"","","","","","","","","","","","canvas-button-response","59","326819","0.0-59.0","1429","10","","","","","","","","","","","","","","confidence","","","0","8","","","","","","","","","","8"
"","","","","","","","","","","","html-keyboard-response","60","327828","0.0-60.0","null","null","","","","","","","","","","","","","","feedback","Tue Oct 21 2025 15:20:55 GMT-0400 (Eastern Daylight Time)","27782","0","8","","","","","","","","","",""
"","","","","","","","","","","","preload","61","327830","0.0-61.0","","","","","true","","","","","","","","","","","preload","","","0","9","false","[]","[]","[]","","","","","",""
"","","","","","","","","","","","canvas-keyboard-response","62","328139","0.0-62.0","null","null","","","","","","","","","","","","","","fixation","","","0","9","","","","","","","","","",""
"","","","","","","","","","","","canvas-keyboard-response","63","328447","0.0-63.0","null","null","","","","","","","","","","","","","","stimulus","","","0","9","","","","","","","","","",""
"","","","","","","","","","","","canvas-button-response","64","330255","0.0-64.0","1805","car","","","","","","","","","","","","","","perceptual","","","0","9","","","","","12","car","1","","1",""
"","","","","","","","","","","","canvas-button-response","65","331298","0.0-65.0","1040","10","","","","","","","","","","","","","","confidence","","","0","9","","","","","","","","","","9"
"","","","","","","","","","","","html-keyboard-response","66","332306","0.0-66.0","null","null","","","","","","","","","","","","","","feedback","Tue Oct 21 2025 15:21:00 GMT-0400 (Eastern Daylight Time)","27782","0","9","","","","","","","","","",""
"","","","","","","","","","","","html-button-response","67","345618","0.0-67.0","13309","0","","","","","","","","","","","","","","start_practice","Tue Oct 21 2025 15:21:01 GMT-0400 (Eastern Daylight Time)","27782","0","9","","","","","","","","","",""
"","","","","","","","","","","","preload","68","345619","0.0-68.0","","","","","true","","","","","","","","","","","preload","","","1","0","false","[]","[]","[]","","","","","",""
"","","","","","","","","","","","canvas-keyboard-response","69","345934","0.0-69.0","null","null","","","","","","","","","","","","","","fixation","","","1","0","","","","","","","","","",""
"","","","","","","","","","","","canvas-keyboard-response","70","346243","0.0-70.0","null","null","","","","","","","","","","","","","","stimulus","","","1","0","","","","","","","","","",""
"","","","","","","","","","","","canvas-button-response","71","350217","0.0-71.0","3971","elephant","","","","","","","","","","","","","","perceptual","","","1","0","","","","","14","car","6","","0",""
"","","","","","","","","","","","canvas-button-response","72","351499","0.0-72.0","1280","5","","","","","","","","","","","","","","confidence","","","1","0","","","","","","","","","","0"
"","","","","","","","","","","","html-keyboard-response","73","352505","0.0-73.0","null","null","","","","","","","","","","","","","","feedback","Tue Oct 21 2025 15:21:20 GMT-0400 (Eastern Daylight Time)","27782","1","0","","","","","","","","","",""
"","","","","","","","","","","","preload","74","352505","0.0-74.0","","","","","true","","","","","","","","","","","preload","","","1","1","false","[]","[]","[]","","","","","",""
"","","","","","","","","","","","canvas-keyboard-response","75","352816","0.0-75.0","null","null","","","","","","","","","","","","","","fixation","","","1","1","","","","","","","","","",""
"","","","","","","","","","","","canvas-keyboard-response","76","353127","0.0-76.0","null","null","","","","","","","","","","","","","","stimulus","","","1","1","","","","","","","","","",""
"","","","","","","","","","","","canvas-button-response","77","354716","0.0-77.0","1587","elephant","","","","","","","","","","","","","","perceptual","","","1","1","","","","","84","elephant","6","","1",""
"","","","","","","","","","","","canvas-button-response","78","355861","0.0-78.0","1142","5","","","","","","","","","","","","","","confidence","","","1","1","","","","","","","","","","1"
"","","","","","","","","","","","html-keyboard-response","79","356870","0.0-79.0","null","null","","","","","","","","","","","","","","feedback","Tue Oct 21 2025 15:21:25 GMT-0400 (Eastern Daylight Time)","27782","1","1","","","","","","","","","",""
"","","","","","","","","","","","preload","80","356871","0.0-80.0","","","","","true","","","","","","","","","","","preload","","","1","2","false","[]","[]","[]","","","","","",""
"","","","","","","","","","","","canvas-keyboard-response","81","357174","0.0-81.0","null","null","","","","","","","","","","","","","","fixation","","","1","2","","","","","","","","","",""
"","","","","","","","","","","","canvas-keyboard-response","82","357484","0.0-82.0","null","null","","","","","","","","","","","","","","stimulus","","","1","2","","","","","","","","","",""
"","","","","","","","","","","","canvas-button-response","83","363801","0.0-83.0","6314","house","","","","","","","","","","","","","","perceptual","","","1","2","","","","","7","house","10","","1",""
"","","","","","","","","","","","canvas-button-response","84","365279","0.0-84.0","1476","0","","","","","","","","","","","","","","confidence","","","1","2","","","","","","","","","","2"
"","","","","","","","","","","","html-keyboard-response","85","366285","0.0-85.0","null","null","","","","","","","","","","","","","","feedback","Tue Oct 21 2025 15:21:34 GMT-0400 (Eastern Daylight Time)","27782","1","2","","","","","","","","","",""
"","","","","","","","","","","","preload","86","366286","0.0-86.0","","","","","true","","","","","","","","","","","preload","","","1","3","false","[]","[]","[]","","","","","",""
"","","","","","","","","","","","canvas-keyboard-response","87","366598","0.0-87.0","null","null","","","","","","","","","","","","","","fixation","","","1","3","","","","","","","","","",""
"","","","","","","","","","","","canvas-keyboard-response","88","366910","0.0-88.0","null","null","","","","","","","","","","","","","","stimulus","","","1","3","","","","","","","","","",""
"","","","","","","","","","","","canvas-button-response","89","372298","0.0-89.0","5385","knife","","","","","","","","","","","","","","perceptual","","","1","3","","","","","37","bed","10","","0",""
"","","","","","","","","","","","canvas-button-response","90","373923","0.0-90.0","1623","1","","","","","","","","","","","","","","confidence","","","1","3","","","","","","","","","","2"
"","","","","","","","","","","","html-keyboard-response","91","374938","0.0-91.0","null","null","","","","","","","","","","","","","","feedback","Tue Oct 21 2025 15:21:43 GMT-0400 (Eastern Daylight Time)","27782","1","3","","","","","","","","","",""
"","","","","","","","","","","","preload","92","374939","0.0-92.0","","","","","true","","","","","","","","","","","preload","","","1","4","false","[]","[]","[]","","","","","",""
"","","","","","","","","","","","canvas-keyboard-response","93","375250","0.0-93.0","null","null","","","","","","","","","","","","","","fixation","","","1","4","","","","","","","","","",""
"","","","","","","","","","","","canvas-keyboard-response","94","375561","0.0-94.0","null","null","","","","","","","","","","","","","","stimulus","","","1","4","","","","","","","","","",""
"","","","","","","","","","","","canvas-button-response","95","379845","0.0-95.0","4280","cat","","","","","","","","","","","","","","perceptual","","","1","4","","","","","17","car","10","","0",""
"","","","","","","","","","","","canvas-button-response","96","381410","0.0-96.0","1561","2","","","","","","","","","","","","","","confidence","","","1","4","","","","","","","","","","2"
"","","","","","","","","","","","html-keyboard-response","97","382427","0.0-97.0","null","null","","","","","","","","","","","","","","feedback","Tue Oct 21 2025 15:21:50 GMT-0400 (Eastern Daylight Time)","27782","1","4","","","","","","","","","",""
"","","","","","","","","","","","preload","98","382428","0.0-98.0","","","","","true","","","","","","","","","","","preload","","","1","5","false","[]","[]","[]","","","","","",""
"","","","","","","","","","","","canvas-keyboard-response","99","382745","0.0-99.0","null","null","","","","","","","","","","","","","","fixation","","","1","5","","","","","","","","","",""
"","","","","","","","","","","","canvas-keyboard-response","100","383051","0.0-100.0","null","null","","","","","","","","","","","","","","stimulus","","","1","5","","","","","","","","","",""
"","","","","","","","","","","","canvas-button-response","101","385131","0.0-101.0","2078","knife","","","","","","","","","","","","","","perceptual","","","1","5","","","","","97","knife","10","","1",""
"","","","","","","","","","","","canvas-button-response","102","387158","0.0-102.0","2024","7","","","","","","","","","","","","","","confidence","","","1","5","","","","","","","","","","3"
"","","","","","","","","","","","html-keyboard-response","103","388164","0.0-103.0","null","null","","","","","","","","","","","","","","feedback","Tue Oct 21 2025 15:21:56 GMT-0400 (Eastern Daylight Time)","27782","1","5","","","","","","","","","",""
"","","","","","","","","","","","preload","104","388165","0.0-104.0","","","","","true","","","","","","","","","","","preload","","","1","6","false","[]","[]","[]","","","","","",""
"","","","","","","","","","","","canvas-keyboard-response","105","388475","0.0-105.0","null","null","","","","","","","","","","","","","","fixation","","","1","6","","","","","","","","","",""
"","","","","","","","","","","","canvas-keyboard-response","106","388778","0.0-106.0","null","null","","","","","","","","","","","","","","stimulus","","","1","6","","","","","","","","","",""
"","","","","","","","","","","","canvas-button-response","107","391635","0.0-107.0","2855","flower","","","","","","","","","","","","","","perceptual","","","1","6","","","","","54","flower","6","","1",""
"","","","","","","","","","","","canvas-button-response","108","395388","0.0-108.0","3751","4","","","","","","","","","","","","","","confidence","","","1","6","","","","","","","","","","4"
"","","","","","","","","","","","html-keyboard-response","109","396395","0.0-109.0","null","null","","","","","","","","","","","","","","feedback","Tue Oct 21 2025 15:22:04 GMT-0400 (Eastern Daylight Time)","27782","1","6","","","","","","","","","",""
"","","","","","","","","","","","preload","110","396396","0.0-110.0","","","","","true","","","","","","","","","","","preload","","","1","7","false","[]","[]","[]","","","","","",""
"","","","","","","","","","","","canvas-keyboard-response","111","396706","0.0-111.0","null","null","","","","","","","","","","","","","","fixation","","","1","7","","","","","","","","","",""
"","","","","","","","","","","","canvas-keyboard-response","112","397016","0.0-112.0","null","null","","","","","","","","","","","","","","stimulus","","","1","7","","","","","","","","","",""
"","","","","","","","","","","","canvas-button-response","113","401161","0.0-113.0","4142","phone","","","","","","","","","","","","","","perceptual","","","1","7","","","","","47","bridge","10","","0",""
"","","","","","","","","","","","canvas-button-response","114","402328","0.0-114.0","1164","1","","","","","","","","","","","","","","confidence","","","1","7","","","","","","","","","","4"
"","","","","","","","","","","","html-keyboard-response","115","403339","0.0-115.0","null","null","","","","","","","","","","","","","","feedback","Tue Oct 21 2025 15:22:11 GMT-0400 (Eastern Daylight Time)","27782","1","7","","","","","","","","","",""
"","","","","","","","","","","","preload","116","403340","0.0-116.0","","","","","true","","","","","","","","","","","preload","","","1","8","false","[]","[]","[]","","","","","",""
"","","","","","","","","","","","canvas-keyboard-response","117","403651","0.0-117.0","null","null","","","","","","","","","","","","","","fixation","","","1","8","","","","","","","","","",""
"","","","","","","","","","","","canvas-keyboard-response","118","403956","0.0-118.0","null","null","","","","","","","","","","","","","","stimulus","","","1","8","","","","","","","","","",""
"","","","","","","","","","","","canvas-button-response","119","406002","0.0-119.0","2044","bridge","","","","","","","","","","","","","","perceptual","","","1","8","","","","","44","bridge","6","","1",""
"","","","","","","","","","","","canvas-button-response","120","408394","0.0-120.0","2389","3","","","","","","","","","","","","","","confidence","","","1","8","","","","","","","","","","5"
"","","","","","","","","","","","html-keyboard-response","121","409409","0.0-121.0","null","null","","","","","","","","","","","","","","feedback","Tue Oct 21 2025 15:22:17 GMT-0400 (Eastern Daylight Time)","27782","1","8","","","","","","","","","",""
"","","","","","","","","","","","preload","122","409410","0.0-122.0","","","","","true","","","","","","","","","","","preload","","","1","9","false","[]","[]","[]","","","","","",""
"","","","","","","","","","","","canvas-keyboard-response","123","409714","0.0-123.0","null","null","","","","","","","","","","","","","","fixation","","","1","9","","","","","","","","","",""
"","","","","","","","","","","","canvas-keyboard-response","124","410024","0.0-124.0","null","null","","","","","","","","","","","","","","stimulus","","","1","9","","","","","","","","","",""
"","","","","","","","","","","","canvas-button-response","125","419165","0.0-125.0","9137","elephant","","","","","","","","","","","","","","perceptual","","","1","9","","","","","87","elephant","10","","1",""
"","","","","","","","","","","","canvas-button-response","126","421656","0.0-126.0","2489","1","","","","","","","","","","","","","","confidence","","","1","9","","","","","","","","","","6"
"","","","","","","","","","","","html-keyboard-response","127","422671","0.0-127.0","null","null","","","","","","","","","","","","","","feedback","Tue Oct 21 2025 15:22:30 GMT-0400 (Eastern Daylight Time)","27782","1","9","","","","","","","","","",""
"","","","","","","","","","","","preload","128","422672","0.0-128.0","","","","","true","","","","","","","","","","","preload","","","1","10","false","[]","[]","[]","","","","","",""
"","","","","","","","","","","","canvas-keyboard-response","129","422982","0.0-129.0","null","null","","","","","","","","","","","","","","fixation","","","1","10","","","","","","","","","",""
"","","","","","","","","","","","canvas-keyboard-response","130","423289","0.0-130.0","null","null","","","","","","","","","","","","","","stimulus","","","1","10","","","","","","","","","",""
"","","","","","","","","","","","canvas-button-response","131","424647","0.0-131.0","1356","house","","","","","","","","","","","","","","perceptual","","","1","10","","","","","4","house","6","","1",""
"","","","","","","","","","","","canvas-button-response","132","426232","0.0-132.0","1582","8","","","","","","","","","","","","","","confidence","","","1","10","","","","","","","","","","7"
"","","","","","","","","","","","html-keyboard-response","133","427239","0.0-133.0","null","null","","","","","","","","","","","","","","feedback","Tue Oct 21 2025 15:22:35 GMT-0400 (Eastern Daylight Time)","27782","1","10","","","","","","","","","",""
"","","","","","","","","","","","preload","134","427240","0.0-134.0","","","","","true","","","","","","","","","","","preload","","","1","11","false","[]","[]","[]","","","","","",""
"","","","","","","","","","","","canvas-keyboard-response","135","427544","0.0-135.0","null","null","","","","","","","","","","","","","","fixation","","","1","11","","","","","","","","","",""
"","","","","","","","","","","","canvas-keyboard-response","136","427851","0.0-136.0","null","null","","","","","","","","","","","","","","stimulus","","","1","11","","","","","","","","","",""
"","","","","","","","","","","","canvas-button-response","137","430222","0.0-137.0","2368","train","","","","","","","","","","","","","","perceptual","","","1","11","","","","","67","train","10","","1",""
"","","","","","","","","","","","canvas-button-response","138","433173","0.0-138.0","2949","6","","","","","","","","","","","","","","confidence","","","1","11","","","","","","","","","","8"
"","","","","","","","","","","","html-keyboard-response","139","434181","0.0-139.0","null","null","","","","","","","","","","","","","","feedback","Tue Oct 21 2025 15:22:42 GMT-0400 (Eastern Daylight Time)","27782","1","11","","","","","","","","","",""
"","","","","","","","","","","","preload","140","434182","0.0-140.0","","","","","true","","","","","","","","","","","preload","","","1","12","false","[]","[]","[]","","","","","",""
"","","","","","","","","","","","canvas-keyboard-response","141","434493","0.0-141.0","null","null","","","","","","","","","","","","","","fixation","","","1","12","","","","","","","","","",""
"","","","","","","","","","","","canvas-keyboard-response","142","434804","0.0-142.0","null","null","","","","","","","","","","","","","","stimulus","","","1","12","","","","","","","","","",""
"","","","","","","","","","","","canvas-button-response","143","436379","0.0-143.0","1572","bed","","","","","","","","","","","","","","perceptual","","","1","12","","","","","34","bed","6","","1",""
"","","","","","","","","","","","canvas-button-response","144","437496","0.0-144.0","1114","10","","","","","","","","","","","","","","confidence","","","1","12","","","","","","","","","","9"
"","","","","","","","","","","","html-keyboard-response","145","438513","0.0-145.0","null","null","","","","","","","","","","","","","","feedback","Tue Oct 21 2025 15:22:46 GMT-0400 (Eastern Daylight Time)","27782","1","12","","","","","","","","","",""
"","","","","","","","","","","","preload","146","438514","0.0-146.0","","","","","true","","","","","","","","","","","preload","","","1","13","false","[]","[]","[]","","","","","",""
"","","","","","","","","","","","canvas-keyboard-response","147","438824","0.0-147.0","null","null","","","","","","","","","","","","","","fixation","","","1","13","","","","","","","","","",""
"","","","","","","","","","","","canvas-keyboard-response","148","439136","0.0-148.0","null","null","","","","","","","","","","","","","","stimulus","","","1","13","","","","","","","","","",""
"","","","","","","","","","","","canvas-button-response","149","440651","0.0-149.0","1512","train","","","","","","","","","","","","","","perceptual","","","1","13","","","","","64","train","6","","1",""
"","","","","","","","","","","","canvas-button-response","150","441474","0.0-150.0","820","10","","","","","","","","","","","","","","confidence","","","1","13","","","","","","","","","","10"
"","","","","","","","","","","","html-keyboard-response","151","442479","0.0-151.0","null","null","","","","","","","","","","","","","","feedback","Tue Oct 21 2025 15:22:50 GMT-0400 (Eastern Daylight Time)","27782","1","13","","","","","","","","","",""
"","","","","","","","","","","","preload","152","442480","0.0-152.0","","","","","true","","","","","","","","","","","preload","","","1","14","false","[]","[]","[]","","","","","",""
"","","","","","","","","","","","canvas-keyboard-response","153","442789","0.0-153.0","null","null","","","","","","","","","","","","","","fixation","","","1","14","","","","","","","","","",""
"","","","","","","","","","","","canvas-keyboard-response","154","443102","0.0-154.0","null","null","","","","","","","","","","","","","","stimulus","","","1","14","","","","","","","","","",""
"","","","","","","","","","","","canvas-button-response","155","446119","0.0-155.0","3015","flower","","","","","","","","","","","","","","perceptual","","","1","14","","","","","57","flower","10","","1",""
"","","","","","","","","","","","canvas-button-response","156","449007","0.0-156.0","2885","2","","","","","","","","","","","","","","confidence","","","1","14","","","","","","","","","","11"
"","","","","","","","","","","","html-keyboard-response","157","450015","0.0-157.0","null","null","","","","","","","","","","","","","","feedback","Tue Oct 21 2025 15:22:58 GMT-0400 (Eastern Daylight Time)","27782","1","14","","","","","","","","","",""
"","","","","","","","","","","","preload","158","450016","0.0-158.0","","","","","true","","","","","","","","","","","preload","","","1","15","false","[]","[]","[]","","","","","",""
"","","","","","","","","","","","canvas-keyboard-response","159","450323","0.0-159.0","null","null","","","","","","","","","","","","","","fixation","","","1","15","","","","","","","","","",""
"","","","","","","","","","","","canvas-keyboard-response","160","450634","0.0-160.0","null","null","","","","","","","","","","","","","","stimulus","","","1","15","","","","","","","","","",""
"","","","","","","","","","","","canvas-button-response","161","452099","0.0-161.0","1462","phone","","","","","","","","","","","","","","perceptual","","","1","15","","","","","24","phone","6","","1",""
"","","","","","","","","","","","canvas-button-response","162","453032","0.0-162.0","929","9","","","","","","","","","","","","","","confidence","","","1","15","","","","","","","","","","12"
"","","","","","","","","","","","html-keyboard-response","163","454044","0.0-163.0","null","null","","","","","","","","","","","","","","feedback","Tue Oct 21 2025 15:23:02 GMT-0400 (Eastern Daylight Time)","27782","1","15","","","","","","","","","",""
"","","","","","","","","","","","preload","164","454045","0.0-164.0","","","","","true","","","","","","","","","","","preload","","","1","16","false","[]","[]","[]","","","","","",""
"","","","","","","","","","","","canvas-keyboard-response","165","454354","0.0-165.0","null","null","","","","","","","","","","","","","","fixation","","","1","16","","","","","","","","","",""
"","","","","","","","","","","","canvas-keyboard-response","166","454666","0.0-166.0","null","null","","","","","","","","","","","","","","stimulus","","","1","16","","","","","","","","","",""
"","","","","","","","","","","","canvas-button-response","167","459506","0.0-167.0","4838","house","","","","","","","","","","","","","","perceptual","","","1","16","","","","","94","knife","6","","0",""
"","","","","","","","","","","","canvas-button-response","168","460917","0.0-168.0","1408","2","","","","","","","","","","","","","","confidence","","","1","16","","","","","","","","","","12"
"","","","","","","","","","","","html-keyboard-response","169","461924","0.0-169.0","null","null","","","","","","","","","","","","","","feedback","Tue Oct 21 2025 15:23:10 GMT-0400 (Eastern Daylight Time)","27782","1","16","","","","","","","","","",""
"","","","","","","","","","","","preload","170","461925","0.0-170.0","","","","","true","","","","","","","","","","","preload","","","1","17","false","[]","[]","[]","","","","","",""
"","","","","","","","","","","","canvas-keyboard-response","171","462236","0.0-171.0","null","null","","","","","","","","","","","","","","fixation","","","1","17","","","","","","","","","",""
"","","","","","","","","","","","canvas-keyboard-response","172","462545","0.0-172.0","null","null","","","","","","","","","","","","","","stimulus","","","1","17","","","","","","","","","",""
"","","","","","","","","","","","canvas-button-response","173","469719","0.0-173.0","7171","bridge","","","","","","","","","","","","","","perceptual","","","1","17","","","","","77","cat","10","","0",""
"","","","","","","","","","","","canvas-button-response","174","470886","0.0-174.0","1165","1","","","","","","","","","","","","","","confidence","","","1","17","","","","","","","","","","12"
"","","","","","","","","","","","html-keyboard-response","175","471904","0.0-175.0","null","null","","","","","","","","","","","","","","feedback","Tue Oct 21 2025 15:23:20 GMT-0400 (Eastern Daylight Time)","27782","1","17","","","","","","","","","",""
"","","","","","","","","","","","preload","176","471904","0.0-176.0","","","","","true","","","","","","","","","","","preload","","","1","18","false","[]","[]","[]","","","","","",""
"","","","","","","","","","","","canvas-keyboard-response","177","472210","0.0-177.0","null","null","","","","","","","","","","","","","","fixation","","","1","18","","","","","","","","","",""
"","","","","","","","","","","","canvas-keyboard-response","178","472521","0.0-178.0","null","null","","","","","","","","","","","","","","stimulus","","","1","18","","","","","","","","","",""
"","","","","","","","","","","","canvas-button-response","179","474044","0.0-179.0","1520","cat","","","","","","","","","","","","","","perceptual","","","1","18","","","","","74","cat","6","","1",""
"","","","","","","","","","","","canvas-button-response","180","476307","0.0-180.0","2260","6","","","","","","","","","","","","","","confidence","","","1","18","","","","","","","","","","13"
"","","","","","","","","","","","html-keyboard-response","181","477323","0.0-181.0","null","null","","","","","","","","","","","","","","feedback","Tue Oct 21 2025 15:23:25 GMT-0400 (Eastern Daylight Time)","27782","1","18","","","","","","","","","",""
"","","","","","","","","","","","preload","182","477324","0.0-182.0","","","","","true","","","","","","","","","","","preload","","","1","19","false","[]","[]","[]","","","","","",""
"","","","","","","","","","","","canvas-keyboard-response","183","477634","0.0-183.0","null","null","","","","","","","","","","","","","","fixation","","","1","19","","","","","","","","","",""
"","","","","","","","","","","","canvas-keyboard-response","184","477944","0.0-184.0","null","null","","","","","","","","","","","","","","stimulus","","","1","19","","","","","","","","","",""
"","","","","","","","","","","","canvas-button-response","185","482951","0.0-185.0","5004","train","","","","","","","","","","","","","","perceptual","","","1","19","","","","","27","phone","10","","0",""
"","","","","","","","","","","","canvas-button-response","186","484056","0.0-186.0","1102","1","","","","","","","","","","","","","","confidence","","","1","19","","","","","","","","","","13"
"","","","","","","","","","","","html-keyboard-response","187","485061","0.0-187.0","null","null","","","","","","","","","","","","","","feedback","Tue Oct 21 2025 15:23:33 GMT-0400 (Eastern Daylight Time)","27782","1","19","","","","","","","","","",""
"","","","","","","","","","","","html-button-response","188","538942","0.0-188.0","53878","0","","","","","","","","","","","","","","start experiment","Tue Oct 21 2025 15:23:34 GMT-0400 (Eastern Daylight Time)","27782","1","19","","","","","","","","","",""
"","","","","","","","","","","","preload","189","538946","0.0-189.0","","","","","true","","","","","","","","","","","preload","","","2","0","false","[]","[]","[]","","","","","",""
"","","","","","","","","","","","canvas-keyboard-response","190","539251","0.0-190.0","null","null","","","","","","","","","","","","","","fixation","","","2","0","","","","","","","","","",""
"","","","","","","","","","","","canvas-keyboard-response","191","539557","0.0-191.0","null","null","","","","","","","","","","","","","","stimulus","","","2","0","","","","","","","","","",""
"","","","","","","","","","","","canvas-button-response","192","541337","0.0-192.0","1777","elephant","","","","","","","","","","","","","","perceptual","","","2","0","","","","","344","elephant","10","0","1",""
"","","","","","","","","","","","canvas-button-response","193","543312","0.0-193.0","1972","6","","","","","","","","","","","","","","confidence","","","2","0","","","","","","","","","","1"
"","","","","","","","","","","","preload","194","543313","0.0-194.0","","","","","true","","","","","","","","","","","preload","","","2","1","false","[]","[]","[]","","","","","",""
"","","","","","","","","","","","canvas-keyboard-response","195","543620","0.0-195.0","null","null","","","","","","","","","","","","","","fixation","","","2","1","","","","","","","","","",""
"","","","","","","","","","","","canvas-keyboard-response","196","543924","0.0-196.0","null","null","","","","","","","","","","","","","","stimulus","","","2","1","","","","","","","","","",""
"","","","","","","","","","","","canvas-button-response","197","545374","0.0-197.0","1446","car","","","","","","","","","","","","","","perceptual","","","2","1","","","","","53","car","6","0","1",""
"","","","","","","","","","","","canvas-button-response","198","547842","0.0-198.0","2466","5","","","","","","","","","","","","","","confidence","","","2","1","","","","","","","","","","2"
"","","","","","","","","","","","preload","199","547846","0.0-199.0","","","","","true","","","","","","","","","","","preload","","","2","2","false","[]","[]","[]","","","","","",""
"","","","","","","","","","","","canvas-keyboard-response","200","548161","0.0-200.0","null","null","","","","","","","","","","","","","","fixation","","","2","2","","","","","","","","","",""
"","","","","","","","","","","","canvas-keyboard-response","201","548468","0.0-201.0","null","null","","","","","","","","","","","","","","stimulus","","","2","2","","","","","","","","","",""
"","","","","","","","","","","","canvas-button-response","202","552645","0.0-202.0","4174","cat","","","","","","","","","","","","","","perceptual","","","2","2","","","","","194","bridge","10","0","0",""
"","","","","","","","","","","","canvas-button-response","203","553931","0.0-203.0","1283","1","","","","","","","","","","","","","","confidence","","","2","2","","","","","","","","","","2"
"","","","","","","","","","","","preload","204","553932","0.0-204.0","","","","","true","","","","","","","","","","","preload","","","2","3","false","[]","[]","[]","","","","","",""
"","","","","","","","","","","","canvas-keyboard-response","205","554241","0.0-205.0","null","null","","","","","","","","","","","","","","fixation","","","2","3","","","","","","","","","",""
"","","","","","","","","","","","canvas-keyboard-response","206","554548","0.0-206.0","null","null","","","","","","","","","","","","","","stimulus","","","2","3","","","","","","","","","",""
"","","","","","","","","","","","canvas-button-response","207","558425","0.0-207.0","3874","knife","","","","","","","","","","","","","","perceptual","","","2","3","","","","","286","cat","6","0","0",""
"","","","","","","","","","","","canvas-button-response","208","559745","0.0-208.0","1316","1","","","","","","","","","","","","","","confidence","","","2","3","","","","","","","","","","2"
"","","","","","","","","","","","preload","209","559746","0.0-209.0","","","","","true","","","","","","","","","","","preload","","","2","4","false","[]","[]","[]","","","","","",""
"","","","","","","","","","","","canvas-keyboard-response","210","560051","0.0-210.0","null","null","","","","","","","","","","","","","","fixation","","","2","4","","","","","","","","","",""
"","","","","","","","","","","","canvas-keyboard-response","211","560356","0.0-211.0","null","null","","","","","","","","","","","","","","stimulus","","","2","4","","","","","","","","","",""
"","","","","","","","","","","","canvas-button-response","212","561715","0.0-212.0","1358","elephant","","","","","","","","","","","","","","perceptual","","","2","4","","","","","335","elephant","6","0","1",""
"","","","","","","","","","","","canvas-button-response","213","563081","0.0-213.0","1363","8","","","","","","","","","","","","","","confidence","","","2","4","","","","","","","","","","3"
"","","","","","","","","","","","preload","214","563083","0.0-214.0","","","","","true","","","","","","","","","","","preload","","","2","5","false","[]","[]","[]","","","","","",""
"","","","","","","","","","","","canvas-keyboard-response","215","563389","0.0-215.0","null","null","","","","","","","","","","","","","","fixation","","","2","5","","","","","","","","","",""
"","","","","","","","","","","","canvas-keyboard-response","216","563705","0.0-216.0","null","null","","","","","","","","","","","","","","stimulus","","","2","5","","","","","","","","","",""
"","","","","","","","","","","","canvas-button-response","217","565158","0.0-217.0","1451","bed","","","","","","","","","","","","","","perceptual","","","2","5","","","","","132","bed","6","0","1",""
"","","","","","","","","","","","canvas-button-response","218","566398","0.0-218.0","1235","10","","","","","","","","","","","","","","confidence","","","2","5","","","","","","","","","","4"
"","","","","","","","","","","","preload","219","566400","0.0-219.0","","","","","true","","","","","","","","","","","preload","","","2","6","false","[]","[]","[]","","","","","",""
"","","","","","","","","","","","canvas-keyboard-response","220","566716","0.0-220.0","null","null","","","","","","","","","","","","","","fixation","","","2","6","","","","","","","","","",""
"","","","","","","","","","","","canvas-keyboard-response","221","567021","0.0-221.0","null","null","","","","","","","","","","","","","","stimulus","","","2","6","","","","","","","","","",""
"","","","","","","","","","","","canvas-button-response","222","568353","0.0-222.0","1328","train","","","","","","","","","","","","","","perceptual","","","2","6","","","","","243","train","6","0","1",""
"","","","","","","","","","","","canvas-button-response","223","569256","0.0-223.0","900","10","","","","","","","","","","","","","","confidence","","","2","6","","","","","","","","","","5"
"","","","","","","","","","","","preload","224","569258","0.0-224.0","","","","","true","","","","","","","","","","","preload","","","2","7","false","[]","[]","[]","","","","","",""
"","","","","","","","","","","","canvas-keyboard-response","225","569574","0.0-225.0","null","null","","","","","","","","","","","","","","fixation","","","2","7","","","","","","","","","",""
"","","","","","","","","","","","canvas-keyboard-response","226","569878","0.0-226.0","null","null","","","","","","","","","","","","","","stimulus","","","2","7","","","","","","","","","",""
"","","","","","","","","","","","canvas-button-response","227","572653","0.0-227.0","2772","bridge","","","","","","","","","","","","","","perceptual","","","2","7","","","","","183","bridge","10","0","1",""
"","","","","","","","","","","","canvas-button-response","228","574174","0.0-228.0","1518","2","","","","","","","","","","","","","","confidence","","","2","7","","","","","","","","","","6"
"","","","","","","","","","","","preload","229","574175","0.0-229.0","","","","","true","","","","","","","","","","","preload","","","2","8","false","[]","[]","[]","","","","","",""
"","","","","","","","","","","","canvas-keyboard-response","230","574480","0.0-230.0","null","null","","","","","","","","","","","","","","fixation","","","2","8","","","","","","","","","",""
"","","","","","","","","","","","canvas-keyboard-response","231","574784","0.0-231.0","null","null","","","","","","","","","","","","","","stimulus","","","2","8","","","","","","","","","",""
"","","","","","","","","","","","canvas-button-response","232","576574","0.0-232.0","1789","bed","","","","","","","","","","","","","","perceptual","","","2","8","","","","","123","bed","6","0","1",""
"","","","","","","","","","","","canvas-button-response","233","578570","0.0-233.0","1992","7","","","","","","","","","","","","","","confidence","","","2","8","","","","","","","","","","7"
"","","","","","","","","","","","preload","234","578571","0.0-234.0","","","","","true","","","","","","","","","","","preload","","","2","9","false","[]","[]","[]","","","","","",""
"","","","","","","","","","","","canvas-keyboard-response","235","578874","0.0-235.0","null","null","","","","","","","","","","","","","","fixation","","","2","9","","","","","","","","","",""
"","","","","","","","","","","","canvas-keyboard-response","236","579190","0.0-236.0","null","null","","","","","","","","","","","","","","stimulus","","","2","9","","","","","","","","","",""
"","","","","","","","","","","","canvas-button-response","237","584341","0.0-237.0","5149","bridge","","","","","","","","","","","","","","perceptual","","","2","9","","","","","170","bridge","6","0","1",""
"","","","","","","","","","","","canvas-button-response","238","585980","0.0-238.0","1634","5","","","","","","","","","","","","","","confidence","","","2","9","","","","","","","","","","8"
"","","","","","","","","","","","preload","239","585982","0.0-239.0","","","","","true","","","","","","","","","","","preload","","","2","10","false","[]","[]","[]","","","","","",""
"","","","","","","","","","","","canvas-keyboard-response","240","586286","0.0-240.0","null","null","","","","","","","","","","","","","","fixation","","","2","10","","","","","","","","","",""
"","","","","","","","","","","","canvas-keyboard-response","241","586589","0.0-241.0","null","null","","","","","","","","","","","","","","stimulus","","","2","10","","","","","","","","","",""
"","","","","","","","","","","","canvas-button-response","242","588032","0.0-242.0","1441","flower","","","","","","","","","","","","","","perceptual","","","2","10","","","","","210","flower","6","0","1",""
"","","","","","","","","","","","canvas-button-response","243","589453","0.0-243.0","1418","10","","","","","","","","","","","","","","confidence","","","2","10","","","","","","","","","","9"
"","","","","","","","","","","","preload","244","589454","0.0-244.0","","","","","true","","","","","","","","","","","preload","","","2","11","false","[]","[]","[]","","","","","",""
"","","","","","","","","","","","canvas-keyboard-response","245","589760","0.0-245.0","null","null","","","","","","","","","","","","","","fixation","","","2","11","","","","","","","","","",""
"","","","","","","","","","","","canvas-keyboard-response","246","590064","0.0-246.0","null","null","","","","","","","","","","","","","","stimulus","","","2","11","","","","","","","","","",""
"","","","","","","","","","","","canvas-button-response","247","593474","0.0-247.0","3407","phone","","","","","","","","","","","","","","perceptual","","","2","11","","","","","313","cat","10","0","0",""
"","","","","","","","","","","","canvas-button-response","248","595412","0.0-248.0","1934","1","","","","","","","","","","","","","","confidence","","","2","11","","","","","","","","","","9"
"","","","","","","","","","","","preload","249","595414","0.0-249.0","","","","","true","","","","","","","","","","","preload","","","2","12","false","[]","[]","[]","","","","","",""
"","","","","","","","","","","","canvas-keyboard-response","250","595725","0.0-250.0","null","null","","","","","","","","","","","","","","fixation","","","2","12","","","","","","","","","",""
"","","","","","","","","","","","canvas-keyboard-response","251","596041","0.0-251.0","null","null","","","","","","","","","","","","","","stimulus","","","2","12","","","","","","","","","",""
"","","","","","","","","","","","canvas-button-response","252","599344","0.0-252.0","3298","flower","","","","","","","","","","","","","","perceptual","","","2","12","","","","","233","flower","10","0","1",""
"","","","","","","","","","","","canvas-button-response","253","600707","0.0-253.0","1360","2","","","","","","","","","","","","","","confidence","","","2","12","","","","","","","","","","10"
"","","","","","","","","","","","preload","254","600708","0.0-254.0","","","","","true","","","","","","","","","","","preload","","","2","13","false","[]","[]","[]","","","","","",""
"","","","","","","","","","","","canvas-keyboard-response","255","601013","0.0-255.0","null","null","","","","","","","","","","","","","","fixation","","","2","13","","","","","","","","","",""
"","","","","","","","","","","","canvas-keyboard-response","256","601323","0.0-256.0","null","null","","","","","","","","","","","","","","stimulus","","","2","13","","","","","","","","","",""
"","","","","","","","","","","","canvas-button-response","257","606711","0.0-257.0","5384","train","","","","","","","","","","","","","","perceptual","","","2","13","","","","","199","bridge","10","0","0",""
"","","","","","","","","","","","canvas-button-response","258","608555","0.0-258.0","1842","1","","","","","","","","","","","","","","confidence","","","2","13","","","","","","","","","","10"
"","","","","","","","","","","","preload","259","608556","0.0-259.0","","","","","true","","","","","","","","","","","preload","","","2","14","false","[]","[]","[]","","","","","",""
"","","","","","","","","","","","canvas-keyboard-response","260","608860","0.0-260.0","null","null","","","","","","","","","","","","","","fixation","","","2","14","","","","","","","","","",""
"","","","","","","","","","","","canvas-keyboard-response","261","609169","0.0-261.0","null","null","","","","","","","","","","","","","","stimulus","","","2","14","","","","","","","","","",""
"","","","","","","","","","","","canvas-button-response","262","610808","0.0-262.0","1637","elephant","","","","","","","","","","","","","","perceptual","","","2","14","","","","","338","elephant","6","0","1",""
"","","","","","","","","","","","canvas-button-response","263","612096","0.0-263.0","1282","10","","","","","","","","","","","","","","confidence","","","2","14","","","","","","","","","","11"
"","","","","","","","","","","","preload","264","612098","0.0-264.0","","","","","true","","","","","","","","","","","preload","","","2","15","false","[]","[]","[]","","","","","",""
"","","","","","","","","","","","canvas-keyboard-response","265","612400","0.0-265.0","null","null","","","","","","","","","","","","","","fixation","","","2","15","","","","","","","","","",""
"","","","","","","","","","","","canvas-keyboard-response","266","612710","0.0-266.0","null","null","","","","","","","","","","","","","","stimulus","","","2","15","","","","","","","","","",""
"","","","","","","","","","","","canvas-button-response","267","614725","0.0-267.0","2012","flower","","","","","","","","","","","","","","perceptual","","","2","15","","","","","224","flower","10","0","1",""
"","","","","","","","","","","","canvas-button-response","268","616064","0.0-268.0","1335","8","","","","","","","","","","","","","","confidence","","","2","15","","","","","","","","","","12"
"","","","","","","","","","","","preload","269","616066","0.0-269.0","","","","","true","","","","","","","","","","","preload","","","2","16","false","[]","[]","[]","","","","","",""
"","","","","","","","","","","","canvas-keyboard-response","270","616370","0.0-270.0","null","null","","","","","","","","","","","","","","fixation","","","2","16","","","","","","","","","",""
"","","","","","","","","","","","canvas-keyboard-response","271","616685","0.0-271.0","null","null","","","","","","","","","","","","","","stimulus","","","2","16","","","","","","","","","",""
"","","","","","","","","","","","canvas-button-response","272","617974","0.0-272.0","1286","flower","","","","","","","","","","","","","","perceptual","","","2","16","","","","","221","flower","10","0","1",""
"","","","","","","","","","","","canvas-button-response","273","621232","0.0-273.0","3253","9","","","","","","","","","","","","","","confidence","","","2","16","","","","","","","","","","13"
"","","","","","","","","","","","preload","274","621233","0.0-274.0","","","","","true","","","","","","","","","","","preload","","","2","17","false","[]","[]","[]","","","","","",""
"","","","","","","","","","","","canvas-keyboard-response","275","621537","0.0-275.0","null","null","","","","","","","","","","","","","","fixation","","","2","17","","","","","","","","","",""
"","","","","","","","","","","","canvas-keyboard-response","276","621842","0.0-276.0","null","null","","","","","","","","","","","","","","stimulus","","","2","17","","","","","","","","","",""
"","","","","","","","","","","","canvas-button-response","277","623216","0.0-277.0","1370","bed","","","","","","","","","","","","","","perceptual","","","2","17","","","","","156","bed","10","0","1",""
"","","","","","","","","","","","canvas-button-response","278","625558","0.0-278.0","2339","10","","","","","","","","","","","","","","confidence","","","2","17","","","","","","","","","","14"
"","","","","","","","","","","","preload","279","625560","0.0-279.0","","","","","true","","","","","","","","","","","preload","","","2","18","false","[]","[]","[]","","","","","",""
"","","","","","","","","","","","canvas-keyboard-response","280","625876","0.0-280.0","null","null","","","","","","","","","","","","","","fixation","","","2","18","","","","","","","","","",""
"","","","","","","","","","","","canvas-keyboard-response","281","626188","0.0-281.0","null","null","","","","","","","","","","","","","","stimulus","","","2","18","","","","","","","","","",""
"","","","","","","","","","","","canvas-button-response","282","630420","0.0-282.0","4230","phone","","","","","","","","","","","","","","perceptual","","","2","18","","","","","112","phone","10","0","1",""
"","","","","","","","","","","","canvas-button-response","283","631895","0.0-283.0","1472","1","","","","","","","","","","","","","","confidence","","","2","18","","","","","","","","","","15"
"","","","","","","","","","","","preload","284","631897","0.0-284.0","","","","","true","","","","","","","","","","","preload","","","2","19","false","[]","[]","[]","","","","","",""
"","","","","","","","","","","","canvas-keyboard-response","285","632202","0.0-285.0","null","null","","","","","","","","","","","","","","fixation","","","2","19","","","","","","","","","",""
"","","","","","","","","","","","canvas-keyboard-response","286","632512","0.0-286.0","null","null","","","","","","","","","","","","","","stimulus","","","2","19","","","","","","","","","",""
"","","","","","","","","","","","canvas-button-response","287","635779","0.0-287.0","3265","bridge","","","","","","","","","","","","","","perceptual","","","2","19","","","","","384","knife","10","0","0",""
"","","","","","","","","","","","canvas-button-response","288","636749","0.0-288.0","966","1","","","","","","","","","","","","","","confidence","","","2","19","","","","","","","","","","15"
"","","","","","","","","","","","preload","289","636750","0.0-289.0","","","","","true","","","","","","","","","","","preload","","","2","20","false","[]","[]","[]","","","","","",""
"","","","","","","","","","","","canvas-keyboard-response","290","637066","0.0-290.0","null","null","","","","","","","","","","","","","","fixation","","","2","20","","","","","","","","","",""
"","","","","","","","","","","","canvas-keyboard-response","291","637378","0.0-291.0","null","null","","","","","","","","","","","","","","stimulus","","","2","20","","","","","","","","","",""
"","","","","","","","","","","","canvas-button-response","292","639392","0.0-292.0","2011","train","","","","","","","","","","","","","","perceptual","","","2","20","","","","","186","bridge","10","0","0",""
"","","","","","","","","","","","canvas-button-response","293","640617","0.0-293.0","1219","4","","","","","","","","","","","","","","confidence","","","2","20","","","","","","","","","","15"
"","","","","","","","","","","","preload","294","640618","0.0-294.0","","","","","true","","","","","","","","","","","preload","","","2","21","false","[]","[]","[]","","","","","",""
"","","","","","","","","","","","canvas-keyboard-response","295","640924","0.0-295.0","null","null","","","","","","","","","","","","","","fixation","","","2","21","","","","","","","","","",""
"","","","","","","","","","","","canvas-keyboard-response","296","641229","0.0-296.0","null","null","","","","","","","","","","","","","","stimulus","","","2","21","","","","","","","","","",""
"","","","","","","","","","","","canvas-button-response","297","646142","0.0-297.0","4910","flower","","","","","","","","","","","","","","perceptual","","","2","21","","","","","239","flower","10","0","1",""
"","","","","","","","","","","","canvas-button-response","298","649224","0.0-298.0","3076","4","","","","","","","","","","","","","","confidence","","","2","21","","","","","","","","","","16"
"","","","","","","","","","","","preload","299","649227","0.0-299.0","","","","","true","","","","","","","","","","","preload","","","2","22","false","[]","[]","[]","","","","","",""
"","","","","","","","","","","","canvas-keyboard-response","300","649533","0.0-300.0","null","null","","","","","","","","","","","","","","fixation","","","2","22","","","","","","","","","",""
"","","","","","","","","","","","canvas-keyboard-response","301","649844","0.0-301.0","null","null","","","","","","","","","","","","","","stimulus","","","2","22","","","","","","","","","",""
"","","","","","","","","","","","canvas-button-response","302","652642","0.0-302.0","2795","car","","","","","","","","","","","","","","perceptual","","","2","22","","","","","110","phone","10","0","0",""
"","","","","","","","","","","","canvas-button-response","303","654246","0.0-303.0","1599","5","","","","","","","","","","","","","","confidence","","","2","22","","","","","","","","","","16"
"","","","","","","","","","","","preload","304","654247","0.0-304.0","","","","","true","","","","","","","","","","","preload","","","2","23","false","[]","[]","[]","","","","","",""
"","","","","","","","","","","","canvas-keyboard-response","305","654553","0.0-305.0","null","null","","","","","","","","","","","","","","fixation","","","2","23","","","","","","","","","",""
"","","","","","","","","","","","canvas-keyboard-response","306","654864","0.0-306.0","null","null","","","","","","","","","","","","","","stimulus","","","2","23","","","","","","","","","",""
"","","","","","","","","","","","canvas-button-response","307","656709","0.0-307.0","1843","car","","","","","","","","","","","","","","perceptual","","","2","23","","","","","69","car","10","0","1",""
"","","","","","","","","","","","canvas-button-response","308","657939","0.0-308.0","1227","7","","","","","","","","","","","","","","confidence","","","2","23","","","","","","","","","","17"
"","","","","","","","","","","","preload","309","657941","0.0-309.0","","","","","true","","","","","","","","","","","preload","","","2","24","false","[]","[]","[]","","","","","",""
"","","","","","","","","","","","canvas-keyboard-response","310","658248","0.0-310.0","null","null","","","","","","","","","","","","","","fixation","","","2","24","","","","","","","","","",""
"","","","","","","","","","","","canvas-keyboard-response","311","658556","0.0-311.0","null","null","","","","","","","","","","","","","","stimulus","","","2","24","","","","","","","","","",""
"","","","","","","","","","","","canvas-button-response","312","660636","0.0-312.0","2077","cat","","","","","","","","","","","","","","perceptual","","","2","24","","","","","193","bridge","10","0","0",""
"","","","","","","","","","","","canvas-button-response","313","661922","0.0-313.0","1283","3","","","","","","","","","","","","","","confidence","","","2","24","","","","","","","","","","17"
"","","","","","","","","","","","preload","314","661923","0.0-314.0","","","","","true","","","","","","","","","","","preload","","","2","25","false","[]","[]","[]","","","","","",""
"","","","","","","","","","","","canvas-keyboard-response","315","662237","0.0-315.0","null","null","","","","","","","","","","","","","","fixation","","","2","25","","","","","","","","","",""
"","","","","","","","","","","","canvas-keyboard-response","316","662547","0.0-316.0","null","null","","","","","","","","","","","","","","stimulus","","","2","25","","","","","","","","","",""
"","","","","","","","","","","","canvas-button-response","317","663641","0.0-317.0","1092","car","","","","","","","","","","","","","","perceptual","","","2","25","","","","","51","car","6","0","1",""
"","","","","","","","","","","","canvas-button-response","318","665402","0.0-318.0","1755","10","","","","","","","","","","","","","","confidence","","","2","25","","","","","","","","","","18"
"","","","","","","","","","","","preload","319","665403","0.0-319.0","","","","","true","","","","","","","","","","","preload","","","2","26","false","[]","[]","[]","","","","","",""
"","","","","","","","","","","","canvas-keyboard-response","320","665709","0.0-320.0","null","null","","","","","","","","","","","","","","fixation","","","2","26","","","","","","","","","",""
"","","","","","","","","","","","canvas-keyboard-response","321","666015","0.0-321.0","null","null","","","","","","","","","","","","","","stimulus","","","2","26","","","","","","","","","",""
"","","","","","","","","","","","canvas-button-response","322","667392","0.0-322.0","1374","flower","","","","","","","","","","","","","","perceptual","","","2","26","","","","","213","flower","6","0","1",""
"","","","","","","","","","","","canvas-button-response","323","668581","0.0-323.0","1183","10","","","","","","","","","","","","","","confidence","","","2","26","","","","","","","","","","19"
"","","","","","","","","","","","preload","324","668582","0.0-324.0","","","","","true","","","","","","","","","","","preload","","","2","27","false","[]","[]","[]","","","","","",""
"","","","","","","","","","","","canvas-keyboard-response","325","668884","0.0-325.0","null","null","","","","","","","","","","","","","","fixation","","","2","27","","","","","","","","","",""
"","","","","","","","","","","","canvas-keyboard-response","326","669191","0.0-326.0","null","null","","","","","","","","","","","","","","stimulus","","","2","27","","","","","","","","","",""
"","","","","","","","","","","","canvas-button-response","327","671178","0.0-327.0","1983","train","","","","","","","","","","","","","","perceptual","","","2","27","","","","","244","train","6","0","1",""
"","","","","","","","","","","","canvas-button-response","328","671962","0.0-328.0","779","10","","","","","","","","","","","","","","confidence","","","2","27","","","","","","","","","","20"
"","","","","","","","","","","","preload","329","671963","0.0-329.0","","","","","true","","","","","","","","","","","preload","","","2","28","false","[]","[]","[]","","","","","",""
"","","","","","","","","","","","canvas-keyboard-response","330","672274","0.0-330.0","null","null","","","","","","","","","","","","","","fixation","","","2","28","","","","","","","","","",""
"","","","","","","","","","","","canvas-keyboard-response","331","672592","0.0-331.0","null","null","","","","","","","","","","","","","","stimulus","","","2","28","","","","","","","","","",""
"","","","","","","","","","","","canvas-button-response","332","677798","0.0-332.0","5203","house","","","","","","","","","","","","","","perceptual","","","2","28","","","","","262","train","10","0","0",""
"","","","","","","","","","","","canvas-button-response","333","679301","0.0-333.0","1501","2","","","","","","","","","","","","","","confidence","","","2","28","","","","","","","","","","20"
"","","","","","","","","","","","preload","334","679302","0.0-334.0","","","","","true","","","","","","","","","","","preload","","","2","29","false","[]","[]","[]","","","","","",""
"","","","","","","","","","","","canvas-keyboard-response","335","679614","0.0-335.0","null","null","","","","","","","","","","","","","","fixation","","","2","29","","","","","","","","","",""
"","","","","","","","","","","","canvas-keyboard-response","336","679919","0.0-336.0","null","null","","","","","","","","","","","","","","stimulus","","","2","29","","","","","","","","","",""
"","","","","","","","","","","","canvas-button-response","337","681539","0.0-337.0","1616","knife","","","","","","","","","","","","","","perceptual","","","2","29","","","","","374","knife","6","0","1",""
"","","","","","","","","","","","canvas-button-response","338","682544","0.0-338.0","1002","10","","","","","","","","","","","","","","confidence","","","2","29","","","","","","","","","","21"
"","","","","","","","","","","","preload","339","682546","0.0-339.0","","","","","true","","","","","","","","","","","preload","","","2","30","false","[]","[]","[]","","","","","",""
"","","","","","","","","","","","canvas-keyboard-response","340","682854","0.0-340.0","null","null","","","","","","","","","","","","","","fixation","","","2","30","","","","","","","","","",""
"","","","","","","","","","","","canvas-keyboard-response","341","683160","0.0-341.0","null","null","","","","","","","","","","","","","","stimulus","","","2","30","","","","","","","","","",""
"","","","","","","","","","","","canvas-button-response","342","684477","0.0-342.0","1313","house","","","","","","","","","","","","","","perceptual","","","2","30","","","","","7","house","6","0","1",""
"","","","","","","","","","","","canvas-button-response","343","685680","0.0-343.0","1199","10","","","","","","","","","","","","","","confidence","","","2","30","","","","","","","","","","22"
"","","","","","","","","","","","preload","344","685681","0.0-344.0","","","","","true","","","","","","","","","","","preload","","","2","31","false","[]","[]","[]","","","","","",""
"","","","","","","","","","","","canvas-keyboard-response","345","685998","0.0-345.0","null","null","","","","","","","","","","","","","","fixation","","","2","31","","","","","","","","","",""
"","","","","","","","","","","","canvas-keyboard-response","346","686306","0.0-346.0","null","null","","","","","","","","","","","","","","stimulus","","","2","31","","","","","","","","","",""
"","","","","","","","","","","","canvas-button-response","347","689650","0.0-347.0","3342","house","","","","","","","","","","","","","","perceptual","","","2","31","","","","","35","house","10","0","1",""
"","","","","","","","","","","","canvas-button-response","348","691707","0.0-348.0","2054","6","","","","","","","","","","","","","","confidence","","","2","31","","","","","","","","","","23"
"","","","","","","","","","","","preload","349","691710","0.0-349.0","","","","","true","","","","","","","","","","","preload","","","2","32","false","[]","[]","[]","","","","","",""
"","","","","","","","","","","","canvas-keyboard-response","350","692024","0.0-350.0","null","null","","","","","","","","","","","","","","fixation","","","2","32","","","","","","","","","",""
"","","","","","","","","","","","canvas-keyboard-response","351","692337","0.0-351.0","null","null","","","","","","","","","","","","","","stimulus","","","2","32","","","","","","","","","",""
"","","","","","","","","","","","canvas-button-response","352","694152","0.0-352.0","1812","cat","","","","","","","","","","","","","","perceptual","","","2","32","","","","","306","cat","10","0","1",""
"","","","","","","","","","","","canvas-button-response","353","695783","0.0-353.0","1629","3","","","","","","","","","","","","","","confidence","","","2","32","","","","","","","","","","24"
"","","","","","","","","","","","preload","354","695784","0.0-354.0","","","","","true","","","","","","","","","","","preload","","","2","33","false","[]","[]","[]","","","","","",""
"","","","","","","","","","","","canvas-keyboard-response","355","696096","0.0-355.0","null","null","","","","","","","","","","","","","","fixation","","","2","33","","","","","","","","","",""
"","","","","","","","","","","","canvas-keyboard-response","356","696406","0.0-356.0","null","null","","","","","","","","","","","","","","stimulus","","","2","33","","","","","","","","","",""
"","","","","","","","","","","","canvas-button-response","357","697455","0.0-357.0","1046","flower","","","","","","","","","","","","","","perceptual","","","2","33","","","","","202","flower","6","0","1",""
"","","","","","","","","","","","canvas-button-response","358","698604","0.0-358.0","1145","10","","","","","","","","","","","","","","confidence","","","2","33","","","","","","","","","","25"
"","","","","","","","","","","","preload","359","698605","0.0-359.0","","","","","true","","","","","","","","","","","preload","","","2","34","false","[]","[]","[]","","","","","",""
"","","","","","","","","","","","canvas-keyboard-response","360","698910","0.0-360.0","null","null","","","","","","","","","","","","","","fixation","","","2","34","","","","","","","","","",""
"","","","","","","","","","","","canvas-keyboard-response","361","699221","0.0-361.0","null","null","","","","","","","","","","","","","","stimulus","","","2","34","","","","","","","","","",""
"","","","","","","","","","","","canvas-button-response","362","700305","0.0-362.0","1081","phone","","","","","","","","","","","","","","perceptual","","","2","34","","","","","97","phone","6","0","1",""
"","","","","","","","","","","","canvas-button-response","363","701245","0.0-363.0","938","10","","","","","","","","","","","","","","confidence","","","2","34","","","","","","","","","","26"
"","","","","","","","","","","","preload","364","701246","0.0-364.0","","","","","true","","","","","","","","","","","preload","","","2","35","false","[]","[]","[]","","","","","",""
"","","","","","","","","","","","canvas-keyboard-response","365","701559","0.0-365.0","null","null","","","","","","","","","","","","","","fixation","","","2","35","","","","","","","","","",""
"","","","","","","","","","","","canvas-keyboard-response","366","701865","0.0-366.0","null","null","","","","","","","","","","","","","","stimulus","","","2","35","","","","","","","","","",""
"","","","","","","","","","","","canvas-button-response","367","703266","0.0-367.0","1398","train","","","","","","","","","","","","","","perceptual","","","2","35","","","","","256","train","6","0","1",""
"","","","","","","","","","","","canvas-button-response","368","704041","0.0-368.0","772","10","","","","","","","","","","","","","","confidence","","","2","35","","","","","","","","","","27"
"","","","","","","","","","","","preload","369","704045","0.0-369.0","","","","","true","","","","","","","","","","","preload","","","2","36","false","[]","[]","[]","","","","","",""
"","","","","","","","","","","","canvas-keyboard-response","370","704360","0.0-370.0","null","null","","","","","","","","","","","","","","fixation","","","2","36","","","","","","","","","",""
"","","","","","","","","","","","canvas-keyboard-response","371","704665","0.0-371.0","null","null","","","","","","","","","","","","","","stimulus","","","2","36","","","","","","","","","",""
"","","","","","","","","","","","canvas-button-response","372","710116","0.0-372.0","5449","elephant","","","","","","","","","","","","","","perceptual","","","2","36","","","","","117","phone","10","0","0",""
"","","","","","","","","","","","canvas-button-response","373","714580","0.0-373.0","4461","2","","","","","","","","","","","","","","confidence","","","2","36","","","","","","","","","","27"
"","","","","","","","","","","","preload","374","714581","0.0-374.0","","","","","true","","","","","","","","","","","preload","","","2","37","false","[]","[]","[]","","","","","",""
"","","","","","","","","","","","canvas-keyboard-response","375","714884","0.0-375.0","null","null","","","","","","","","","","","","","","fixation","","","2","37","","","","","","","","","",""
"","","","","","","","","","","","canvas-keyboard-response","376","715189","0.0-376.0","null","null","","","","","","","","","","","","","","stimulus","","","2","37","","","","","","","","","",""
"","","","","","","","","","","","canvas-button-response","377","717242","0.0-377.0","2050","flower","","","","","","","","","","","","","","perceptual","","","2","37","","","","","227","flower","10","0","1",""
"","","","","","","","","","","","canvas-button-response","378","722729","0.0-378.0","5483","5","","","","","","","","","","","","","","confidence","","","2","37","","","","","","","","","","28"
"","","","","","","","","","","","preload","379","722730","0.0-379.0","","","","","true","","","","","","","","","","","preload","","","2","38","false","[]","[]","[]","","","","","",""
"","","","","","","","","","","","canvas-keyboard-response","380","723036","0.0-380.0","null","null","","","","","","","","","","","","","","fixation","","","2","38","","","","","","","","","",""
"","","","","","","","","","","","canvas-keyboard-response","381","723348","0.0-381.0","null","null","","","","","","","","","","","","","","stimulus","","","2","38","","","","","","","","","",""
"","","","","","","","","","","","canvas-button-response","382","727208","0.0-382.0","3857","phone","","","","","","","","","","","","","","perceptual","","","2","38","","","","","81","phone","6","0","1",""
"","","","","","","","","","","","canvas-button-response","383","731646","0.0-383.0","4433","3","","","","","","","","","","","","","","confidence","","","2","38","","","","","","","","","","29"
"","","","","","","","","","","","preload","384","731647","0.0-384.0","","","","","true","","","","","","","","","","","preload","","","2","39","false","[]","[]","[]","","","","","",""
"","","","","","","","","","","","canvas-keyboard-response","385","731953","0.0-385.0","null","null","","","","","","","","","","","","","","fixation","","","2","39","","","","","","","","","",""
"","","","","","","","","","","","canvas-keyboard-response","386","732261","0.0-386.0","null","null","","","","","","","","","","","","","","stimulus","","","2","39","","","","","","","","","",""
"","","","","","","","","","","","canvas-button-response","387","735780","0.0-387.0","3516","elephant","","","","","","","","","","","","","","perceptual","","","2","39","","","","","287","cat","6","0","0",""
"","","","","","","","","","","","canvas-button-response","388","737334","0.0-388.0","1551","8","","","","","","","","","","","","","","confidence","","","2","39","","","","","","","","","","29"
"","","","","","","","","","","","preload","389","737335","0.0-389.0","","","","","true","","","","","","","","","","","preload","","","2","40","false","[]","[]","[]","","","","","",""
"","","","","","","","","","","","canvas-keyboard-response","390","737643","0.0-390.0","null","null","","","","","","","","","","","","","","fixation","","","2","40","","","","","","","","","",""
"","","","","","","","","","","","canvas-keyboard-response","391","737948","0.0-391.0","null","null","","","","","","","","","","","","","","stimulus","","","2","40","","","","","","","","","",""
"","","","","","","","","","","","canvas-button-response","392","739837","0.0-392.0","1887","knife","","","","","","","","","","","","","","perceptual","","","2","40","","","","","398","knife","10","0","1",""
"","","","","","","","","","","","canvas-button-response","393","742533","0.0-393.0","2692","6","","","","","","","","","","","","","","confidence","","","2","40","","","","","","","","","","30"
"","","","","","","","","","","","preload","394","742535","0.0-394.0","","","","","true","","","","","","","","","","","preload","","","2","41","false","[]","[]","[]","","","","","",""
"","","","","","","","","","","","canvas-keyboard-response","395","742839","0.0-395.0","null","null","","","","","","","","","","","","","","fixation","","","2","41","","","","","","","","","",""
"","","","","","","","","","","","canvas-keyboard-response","396","743157","0.0-396.0","null","null","","","","","","","","","","","","","","stimulus","","","2","41","","","","","","","","","",""
"","","","","","","","","","","","canvas-button-response","397","748058","0.0-397.0","4898","house","","","","","","","","","","","","","","perceptual","","","2","41","","","","","197","bridge","10","0","0",""
"","","","","","","","","","","","canvas-button-response","398","748974","0.0-398.0","914","1","","","","","","","","","","","","","","confidence","","","2","41","","","","","","","","","","30"
"","","","","","","","","","","","preload","399","748974","0.0-399.0","","","","","true","","","","","","","","","","","preload","","","2","42","false","[]","[]","[]","","","","","",""
"","","","","","","","","","","","canvas-keyboard-response","400","749282","0.0-400.0","null","null","","","","","","","","","","","","","","fixation","","","2","42","","","","","","","","","",""
"","","","","","","","","","","","canvas-keyboard-response","401","749590","0.0-401.0","null","null","","","","","","","","","","","","","","stimulus","","","2","42","","","","","","","","","",""
"","","","","","","","","","","","canvas-button-response","402","750945","0.0-402.0","1353","train","","","","","","","","","","","","","","perceptual","","","2","42","","","","","265","train","10","0","1",""
"","","","","","","","","","","","canvas-button-response","403","751748","0.0-403.0","802","10","","","","","","","","","","","","","","confidence","","","2","42","","","","","","","","","","31"
"","","","","","","","","","","","preload","404","751749","0.0-404.0","","","","","true","","","","","","","","","","","preload","","","2","43","false","[]","[]","[]","","","","","",""
"","","","","","","","","","","","canvas-keyboard-response","405","752058","0.0-405.0","null","null","","","","","","","","","","","","","","fixation","","","2","43","","","","","","","","","",""
"","","","","","","","","","","","canvas-keyboard-response","406","752375","0.0-406.0","null","null","","","","","","","","","","","","","","stimulus","","","2","43","","","","","","","","","",""
"","","","","","","","","","","","canvas-button-response","407","754324","0.0-407.0","1947","bed","","","","","","","","","","","","","","perceptual","","","2","43","","","","","145","bed","10","0","1",""
"","","","","","","","","","","","canvas-button-response","408","755468","0.0-408.0","1139","10","","","","","","","","","","","","","","confidence","","","2","43","","","","","","","","","","32"
"","","","","","","","","","","","preload","409","755469","0.0-409.0","","","","","true","","","","","","","","","","","preload","","","2","44","false","[]","[]","[]","","","","","",""
"","","","","","","","","","","","canvas-keyboard-response","410","755777","0.0-410.0","null","null","","","","","","","","","","","","","","fixation","","","2","44","","","","","","","","","",""
"","","","","","","","","","","","canvas-keyboard-response","411","756088","0.0-411.0","null","null","","","","","","","","","","","","","","stimulus","","","2","44","","","","","","","","","",""
"","","","","","","","","","","","canvas-button-response","412","758329","0.0-412.0","2239","cat","","","","","","","","","","","","","","perceptual","","","2","44","","","","","308","cat","10","0","1",""
"","","","","","","","","","","","canvas-button-response","413","760897","0.0-413.0","2566","7","","","","","","","","","","","","","","confidence","","","2","44","","","","","","","","","","33"
"","","","","","","","","","","","preload","414","760898","0.0-414.0","","","","","true","","","","","","","","","","","preload","","","2","45","false","[]","[]","[]","","","","","",""
"","","","","","","","","","","","canvas-keyboard-response","415","761204","0.0-415.0","null","null","","","","","","","","","","","","","","fixation","","","2","45","","","","","","","","","",""
"","","","","","","","","","","","canvas-keyboard-response","416","761513","0.0-416.0","null","null","","","","","","","","","","","","","","stimulus","","","2","45","","","","","","","","","",""
"","","","","","","","","","","","canvas-button-response","417","762829","0.0-417.0","1313","cat","","","","","","","","","","","","","","perceptual","","","2","45","","","","","307","cat","10","0","1",""
"","","","","","","","","","","","canvas-button-response","418","764079","0.0-418.0","1247","8","","","","","","","","","","","","","","confidence","","","2","45","","","","","","","","","","34"
"","","","","","","","","","","","preload","419","764081","0.0-419.0","","","","","true","","","","","","","","","","","preload","","","2","46","false","[]","[]","[]","","","","","",""
"","","","","","","","","","","","canvas-keyboard-response","420","764387","0.0-420.0","null","null","","","","","","","","","","","","","","fixation","","","2","46","","","","","","","","","",""
"","","","","","","","","","","","canvas-keyboard-response","421","764695","0.0-421.0","null","null","","","","","","","","","","","","","","stimulus","","","2","46","","","","","","","","","",""
"","","","","","","","","","","","canvas-button-response","422","765831","0.0-422.0","1133","bed","","","","","","","","","","","","","","perceptual","","","2","46","","","","","120","bed","6","0","1",""
"","","","","","","","","","","","canvas-button-response","423","766980","0.0-423.0","1146","10","","","","","","","","","","","","","","confidence","","","2","46","","","","","","","","","","35"
"","","","","","","","","","","","preload","424","766982","0.0-424.0","","","","","true","","","","","","","","","","","preload","","","2","47","false","[]","[]","[]","","","","","",""
"","","","","","","","","","","","canvas-keyboard-response","425","767290","0.0-425.0","null","null","","","","","","","","","","","","","","fixation","","","2","47","","","","","","","","","",""
"","","","","","","","","","","","canvas-keyboard-response","426","767604","0.0-426.0","null","null","","","","","","","","","","","","","","stimulus","","","2","47","","","","","","","","","",""
"","","","","","","","","","","","canvas-button-response","427","769174","0.0-427.0","1567","bridge","","","","","","","","","","","","","","perceptual","","","2","47","","","","","164","bridge","6","0","1",""
"","","","","","","","","","","","canvas-button-response","428","771464","0.0-428.0","2286","6","","","","","","","","","","","","","","confidence","","","2","47","","","","","","","","","","36"
"","","","","","","","","","","","preload","429","771465","0.0-429.0","","","","","true","","","","","","","","","","","preload","","","2","48","false","[]","[]","[]","","","","","",""
"","","","","","","","","","","","canvas-keyboard-response","430","771772","0.0-430.0","null","null","","","","","","","","","","","","","","fixation","","","2","48","","","","","","","","","",""
"","","","","","","","","","","","canvas-keyboard-response","431","772083","0.0-431.0","null","null","","","","","","","","","","","","","","stimulus","","","2","48","","","","","","","","","",""
"","","","","","","","","","","","canvas-button-response","432","775491","0.0-432.0","3405","phone","","","","","","","","","","","","","","perceptual","","","2","48","","","","","149","bed","10","0","0",""
"","","","","","","","","","","","canvas-button-response","433","776713","0.0-433.0","1218","1","","","","","","","","","","","","","","confidence","","","2","48","","","","","","","","","","36"
"","","","","","","","","","","","preload","434","776715","0.0-434.0","","","","","true","","","","","","","","","","","preload","","","2","49","false","[]","[]","[]","","","","","",""
"","","","","","","","","","","","canvas-keyboard-response","435","777020","0.0-435.0","null","null","","","","","","","","","","","","","","fixation","","","2","49","","","","","","","","","",""
"","","","","","","","","","","","canvas-keyboard-response","436","777333","0.0-436.0","null","null","","","","","","","","","","","","","","stimulus","","","2","49","","","","","","","","","",""
"","","","","","","","","","","","canvas-button-response","437","780950","0.0-437.0","3614","elephant","","","","","","","","","","","","","","perceptual","","","2","49","","","","","325","elephant","6","0","1",""
"","","","","","","","","","","","canvas-button-response","438","782719","0.0-438.0","1765","1","","","","","","","","","","","","","","confidence","","","2","49","","","","","","","","","","37"
"","","","","","","","","","","","html-button-response","439","843185","0.0-439.0","60463","0","","","","","","","","","","","","","","<p style=""font-size:20px;color:#000000"">You got 37 out of 50 trials correct in this block.<br><br>You have completed 6% of the experiment.<br><br>Take a short break.<br><br>When you are ready, click Continue to proceed.","","","2","49","","","","","","","","","",""
"","","","","","","","","","","","html-keyboard-response","440","844194","0.0-440.0","null","null","","","","","","","","","","","","","","<p style=""font-size:32px;color:#000000""><br><br> RUN: &nbsp 1/4 <br><br> BLOCK: 2/4 ","","","2","49","","","","","","","","","",""
"","","","","","","","","","","","preload","441","844196","0.0-441.0","","","","","true","","","","","","","","","","","preload","","","2","50","false","[]","[]","[]","","","","","",""
"","","","","","","","","","","","canvas-keyboard-response","442","844508","0.0-442.0","null","null","","","","","","","","","","","","","","fixation","","","2","50","","","","","","","","","",""
"","","","","","","","","","","","canvas-keyboard-response","443","844817","0.0-443.0","null","null","","","","","","","","","","","","","","stimulus","","","2","50","","","","","","","","","",""
"","","","","","","","","","","","canvas-button-response","444","846872","0.0-444.0","2052","car","","","","","","","","","","","","","","perceptual","","","2","50","","","","","66","car","10","0","1",""
"","","","","","","","","","","","canvas-button-response","445","849498","0.0-445.0","2623","4","","","","","","","","","","","","","","confidence","","","2","50","","","","","","","","","","1"
"","","","","","","","","","","","preload","446","849499","0.0-446.0","","","","","true","","","","","","","","","","","preload","","","2","51","false","[]","[]","[]","","","","","",""
"","","","","","","","","","","","canvas-keyboard-response","447","849808","0.0-447.0","null","null","","","","","","","","","","","","","","fixation","","","2","51","","","","","","","","","",""
"","","","","","","","","","","","canvas-keyboard-response","448","850116","0.0-448.0","null","null","","","","","","","","","","","","","","stimulus","","","2","51","","","","","","","","","",""
"","","","","","","","","","","","canvas-button-response","449","853656","0.0-449.0","3537","phone","","","","","","","","","","","","","","perceptual","","","2","51","","","","","365","knife","6","0","0",""
"","","","","","","","","","","","canvas-button-response","450","854950","0.0-450.0","1291","3","","","","","","","","","","","","","","confidence","","","2","51","","","","","","","","","","1"
"","","","","","","","","","","","preload","451","854952","0.0-451.0","","","","","true","","","","","","","","","","","preload","","","2","52","false","[]","[]","[]","","","","","",""
"","","","","","","","","","","","canvas-keyboard-response","452","855260","0.0-452.0","null","null","","","","","","","","","","","","","","fixation","","","2","52","","","","","","","","","",""
"","","","","","","","","","","","canvas-keyboard-response","453","855567","0.0-453.0","null","null","","","","","","","","","","","","","","stimulus","","","2","52","","","","","","","","","",""
"","","","","","","","","","","","canvas-button-response","454","856921","0.0-454.0","1352","car","","","","","","","","","","","","","","perceptual","","","2","52","","","","","76","car","10","0","1",""
"","","","","","","","","","","","canvas-button-response","455","858664","0.0-455.0","1740","4","","","","","","","","","","","","","","confidence","","","2","52","","","","","","","","","","2"
"","","","","","","","","","","","preload","456","858666","0.0-456.0","","","","","true","","","","","","","","","","","preload","","","2","53","false","[]","[]","[]","","","","","",""
"","","","","","","","","","","","canvas-keyboard-response","457","858971","0.0-457.0","null","null","","","","","","","","","","","","","","fixation","","","2","53","","","","","","","","","",""
"","","","","","","","","","","","canvas-keyboard-response","458","859289","0.0-458.0","null","null","","","","","","","","","","","","","","stimulus","","","2","53","","","","","","","","","",""
"","","","","","","","","","","","canvas-button-response","459","860327","0.0-459.0","1034","flower","","","","","","","","","","","","","","perceptual","","","2","53","","","","","220","flower","10","0","1",""
"","","","","","","","","","","","canvas-button-response","460","861450","0.0-460.0","1119","10","","","","","","","","","","","","","","confidence","","","2","53","","","","","","","","","","3"
"","","","","","","","","","","","preload","461","861452","0.0-461.0","","","","","true","","","","","","","","","","","preload","","","2","54","false","[]","[]","[]","","","","","",""
"","","","","","","","","","","","canvas-keyboard-response","462","861766","0.0-462.0","null","null","","","","","","","","","","","","","","fixation","","","2","54","","","","","","","","","",""
"","","","","","","","","","","","canvas-keyboard-response","463","862072","0.0-463.0","null","null","","","","","","","","","","","","","","stimulus","","","2","54","","","","","","","","","",""
"","","","","","","","","","","","canvas-button-response","464","863349","0.0-464.0","1275","train","","","","","","","","","","","","","","perceptual","","","2","54","","","","","278","train","10","0","1",""
"","","","","","","","","","","","canvas-button-response","465","864868","0.0-465.0","1516","7","","","","","","","","","","","","","","confidence","","","2","54","","","","","","","","","","4"
"","","","","","","","","","","","preload","466","864870","0.0-466.0","","","","","true","","","","","","","","","","","preload","","","2","55","false","[]","[]","[]","","","","","",""
"","","","","","","","","","","","canvas-keyboard-response","467","865177","0.0-467.0","null","null","","","","","","","","","","","","","","fixation","","","2","55","","","","","","","","","",""
"","","","","","","","","","","","canvas-keyboard-response","468","865482","0.0-468.0","null","null","","","","","","","","","","","","","","stimulus","","","2","55","","","","","","","","","",""
"","","","","","","","","","","","canvas-button-response","469","866560","0.0-469.0","1075","train","","","","","","","","","","","","","","perceptual","","","2","55","","","","","253","train","6","0","1",""
"","","","","","","","","","","","canvas-button-response","470","867371","0.0-470.0","808","10","","","","","","","","","","","","","","confidence","","","2","55","","","","","","","","","","5"
"","","","","","","","","","","","preload","471","867372","0.0-471.0","","","","","true","","","","","","","","","","","preload","","","2","56","false","[]","[]","[]","","","","","",""
"","","","","","","","","","","","canvas-keyboard-response","472","867676","0.0-472.0","null","null","","","","","","","","","","","","","","fixation","","","2","56","","","","","","","","","",""
"","","","","","","","","","","","canvas-keyboard-response","473","867986","0.0-473.0","null","null","","","","","","","","","","","","","","stimulus","","","2","56","","","","","","","","","",""
"","","","","","","","","","","","canvas-button-response","474","871269","0.0-474.0","3280","knife","","","","","","","","","","","","","","perceptual","","","2","56","","","","","396","knife","10","0","1",""
"","","","","","","","","","","","canvas-button-response","475","872319","0.0-475.0","1046","8","","","","","","","","","","","","","","confidence","","","2","56","","","","","","","","","","6"
"","","","","","","","","","","","preload","476","872320","0.0-476.0","","","","","true","","","","","","","","","","","preload","","","2","57","false","[]","[]","[]","","","","","",""
"","","","","","","","","","","","canvas-keyboard-response","477","872637","0.0-477.0","null","null","","","","","","","","","","","","","","fixation","","","2","57","","","","","","","","","",""
"","","","","","","","","","","","canvas-keyboard-response","478","872948","0.0-478.0","null","null","","","","","","","","","","","","","","stimulus","","","2","57","","","","","","","","","",""
"","","","","","","","","","","","canvas-button-response","479","876003","0.0-479.0","3052","bridge","","","","","","","","","","","","","","perceptual","","","2","57","","","","","182","bridge","10","0","1",""
"","","","","","","","","","","","canvas-button-response","480","878513","0.0-480.0","2508","4","","","","","","","","","","","","","","confidence","","","2","57","","","","","","","","","","7"
"","","","","","","","","","","","preload","481","878515","0.0-481.0","","","","","true","","","","","","","","","","","preload","","","2","58","false","[]","[]","[]","","","","","",""
"","","","","","","","","","","","canvas-keyboard-response","482","878819","0.0-482.0","null","null","","","","","","","","","","","","","","fixation","","","2","58","","","","","","","","","",""
"","","","","","","","","","","","canvas-keyboard-response","483","879129","0.0-483.0","null","null","","","","","","","","","","","","","","stimulus","","","2","58","","","","","","","","","",""
"","","","","","","","","","","","canvas-button-response","484","880363","0.0-484.0","1232","car","","","","","","","","","","","","","","perceptual","","","2","58","","","","","55","car","6","0","1",""
"","","","","","","","","","","","canvas-button-response","485","881390","0.0-485.0","1023","10","","","","","","","","","","","","","","confidence","","","2","58","","","","","","","","","","8"
"","","","","","","","","","","","preload","486","881391","0.0-486.0","","","","","true","","","","","","","","","","","preload","","","2","59","false","[]","[]","[]","","","","","",""
"","","","","","","","","","","","canvas-keyboard-response","487","881699","0.0-487.0","null","null","","","","","","","","","","","","","","fixation","","","2","59","","","","","","","","","",""
"","","","","","","","","","","","canvas-keyboard-response","488","882007","0.0-488.0","null","null","","","","","","","","","","","","","","stimulus","","","2","59","","","","","","","","","",""
"","","","","","","","","","","","canvas-button-response","489","883528","0.0-489.0","1517","knife","","","","","","","","","","","","","","perceptual","","","2","59","","","","","378","knife","6","0","1",""
"","","","","","","","","","","","canvas-button-response","490","885503","0.0-490.0","1973","4","","","","","","","","","","","","","","confidence","","","2","59","","","","","","","","","","9"
"","","","","","","","","","","","preload","491","885505","0.0-491.0","","","","","true","","","","","","","","","","","preload","","","2","60","false","[]","[]","[]","","","","","",""
