"width","height","webaudio","browser","browser_version","mobile","os","fullscreen","vsync_rate","webcam","microphone","trial_type","trial_index","time_elapsed","internal_node_id","rt","response","accuracy","view_history","success","item_width_mm","item_height_mm","item_width_px","px2mm","view_dist_mm","item_width_deg","px2deg","scale_factor","win_width_deg","win_height_deg","stimulus","datetime","subjectID","curr_triallist","trial_no","timeout","failed_images","failed_audio","failed_video","image_index","category","blur","reps","correct","running_score"
"1470","735","true","chrome","140.0.0","false","Mac OS","true","61.05","true","true","browser-check","0","989","0.0-0.0","","","","","","","","","","","","","","","","","","","","","","","","","","","","","",""
"","","","","","","","","","","","survey","1","28383","0.0-1.0","27354","{""P0_Q0"":""903828974"",""P0_Q1"":""22"",""P1_Q0"":""Female"",""P1_Q1"":""Not Hispanic or Latino"",""P1_Q2"":""White"",""P1_Q3"":""Corrected-to-Normal (using glasses/contacts)"",""P1_Q4"":""Right-Handed""}","[]","","","","","","","","","","","","","","","","","","","","","","","","","","",""
"","","","","","","","","","","","instructions","2","39789","0.0-2.0","11404","","","[{""page_index"":0,""viewing_time"":4150},{""page_index"":1,""viewing_time"":3173},{""page_index"":2,""viewing_time"":2666},{""page_index"":3,""viewing_time"":1416}]","","","","","","","","","","","","","","","","","","","","","","","","","",""
"","","","","","","","","","","","fullscreen","3","79437","0.0-3.0","38646","","","","true","","","","","","","","","","","","","","","","","","","","","","","","",""
"","","","","","","","","","","","virtual-chinrest","4","109200","0.0-4.0","29759","","","","","85.6","53.98","247.00212321858854","2.8878357689735474","594.66","8.233404107286285","30","1.6275163741983043","49","30.666666666666668","","","","","","","","","","","","","","",""
"","","","","","","","","","","","instructions","5","148768","0.0-5.0","39566","","","[{""page_index"":0,""viewing_time"":1528},{""page_index"":1,""viewing_time"":3722},{""page_index"":2,""viewing_time"":5036},{""page_index"":3,""viewing_time"":1661},{""page_index"":4,""viewing_time"":8000},{""page_index"":5,""viewing_time"":17930},{""page_index"":6,""viewing_time"":1688}]","","","","","","","","","","","","","","","","","","","","","","","","","",""
"","","","","","","","","","","","html-button-response","6","150059","0.0-6.0","1286","0","","","","","","","","","","","","","","start_practice","Thu Oct 16 2025 13:20:27 GMT-0400 (Eastern Daylight Time)","20321","","","","","","","","","","","",""
"","","","","","","","","","","","preload","7","150061","0.0-7.0","","","","","true","","","","","","","","","","","preload","","","0","0","false","[]","[]","[]","","","","","",""
"","","","","","","","","","","","canvas-keyboard-response","8","150365","0.0-8.0","null","null","","","","","","","","","","","","","","fixation","","","0","0","","","","","","","","","",""
"","","","","","","","","","","","canvas-keyboard-response","9","150669","0.0-9.0","null","null","","","","","","","","","","","","","","stimulus","","","0","0","","","","","","","","","",""
"","","","","","","","","","","","canvas-button-response","10","157092","0.0-10.0","6419","knife","","","","","","","","","","","","","","perceptual","","","0","0","","","","","92","knife","1","","1",""
"","","","","","","","","","","","canvas-button-response","11","158178","0.0-11.0","1083","5","","","","","","","","","","","","","","confidence","","","0","0","","","","","","","","","","1"
"","","","","","","","","","","","html-keyboard-response","12","159182","0.0-12.0","null","null","","","","","","","","","","","","","","feedback","Thu Oct 16 2025 13:20:36 GMT-0400 (Eastern Daylight Time)","20321","0","0","","","","","","","","","",""
"","","","","","","","","","","","preload","13","159182","0.0-13.0","","","","","true","","","","","","","","","","","preload","","","0","1","false","[]","[]","[]","","","","","",""
"","","","","","","","","","","","canvas-keyboard-response","14","159485","0.0-14.0","null","null","","","","","","","","","","","","","","fixation","","","0","1","","","","","","","","","",""
"","","","","","","","","","","","canvas-keyboard-response","15","159788","0.0-15.0","null","null","","","","","","","","","","","","","","stimulus","","","0","1","","","","","","","","","",""
"","","","","","","","","","","","canvas-button-response","16","160906","0.0-16.0","1115","car","","","","","","","","","","","","","","perceptual","","","0","1","","","","","12","car","1","","1",""
"","","","","","","","","","","","canvas-button-response","17","162164","0.0-17.0","1256","10","","","","","","","","","","","","","","confidence","","","0","1","","","","","","","","","","2"
"","","","","","","","","","","","html-keyboard-response","18","163167","0.0-18.0","null","null","","","","","","","","","","","","","","feedback","Thu Oct 16 2025 13:20:40 GMT-0400 (Eastern Daylight Time)","20321","0","1","","","","","","","","","",""
"","","","","","","","","","","","preload","19","163168","0.0-19.0","","","","","true","","","","","","","","","","","preload","","","0","2","false","[]","[]","[]","","","","","",""
"","","","","","","","","","","","canvas-keyboard-response","20","163471","0.0-20.0","null","null","","","","","","","","","","","","","","fixation","","","0","2","","","","","","","","","",""
"","","","","","","","","","","","canvas-keyboard-response","21","163774","0.0-21.0","null","null","","","","","","","","","","","","","","stimulus","","","0","2","","","","","","","","","",""
"","","","","","","","","","","","canvas-button-response","22","165562","0.0-22.0","1786","house","","","","","","","","","","","","","","perceptual","","","0","2","","","","","2","house","1","","1",""
"","","","","","","","","","","","canvas-button-response","23","166783","0.0-23.0","1220","10","","","","","","","","","","","","","","confidence","","","0","2","","","","","","","","","","3"
"","","","","","","","","","","","html-keyboard-response","24","167786","0.0-24.0","null","null","","","","","","","","","","","","","","feedback","Thu Oct 16 2025 13:20:45 GMT-0400 (Eastern Daylight Time)","20321","0","2","","","","","","","","","",""
"","","","","","","","","","","","preload","25","167787","0.0-25.0","","","","","true","","","","","","","","","","","preload","","","0","3","false","[]","[]","[]","","","","","",""
"","","","","","","","","","","","canvas-keyboard-response","26","168089","0.0-26.0","null","null","","","","","","","","","","","","","","fixation","","","0","3","","","","","","","","","",""
"","","","","","","","","","","","canvas-keyboard-response","27","168392","0.0-27.0","null","null","","","","","","","","","","","","","","stimulus","","","0","3","","","","","","","","","",""
"","","","","","","","","","","","canvas-button-response","28","170444","0.0-28.0","2050","flower","","","","","","","","","","","","","","perceptual","","","0","3","","","","","52","flower","1","","1",""
"","","","","","","","","","","","canvas-button-response","29","171410","0.0-29.0","965","4","","","","","","","","","","","","","","confidence","","","0","3","","","","","","","","","","4"
"","","","","","","","","","","","html-keyboard-response","30","172413","0.0-30.0","null","null","","","","","","","","","","","","","","feedback","Thu Oct 16 2025 13:20:50 GMT-0400 (Eastern Daylight Time)","20321","0","3","","","","","","","","","",""
"","","","","","","","","","","","preload","31","172414","0.0-31.0","","","","","true","","","","","","","","","","","preload","","","0","4","false","[]","[]","[]","","","","","",""
"","","","","","","","","","","","canvas-keyboard-response","32","172716","0.0-32.0","null","null","","","","","","","","","","","","","","fixation","","","0","4","","","","","","","","","",""
"","","","","","","","","","","","canvas-keyboard-response","33","173019","0.0-33.0","null","null","","","","","","","","","","","","","","stimulus","","","0","4","","","","","","","","","",""
"","","","","","","","","","","","canvas-button-response","34","173821","0.0-34.0","799","cat","","","","","","","","","","","","","","perceptual","","","0","4","","","","","72","cat","1","","1",""
"","","","","","","","","","","","canvas-button-response","35","174575","0.0-35.0","753","10","","","","","","","","","","","","","","confidence","","","0","4","","","","","","","","","","5"
"","","","","","","","","","","","html-keyboard-response","36","175578","0.0-36.0","null","null","","","","","","","","","","","","","","feedback","Thu Oct 16 2025 13:20:53 GMT-0400 (Eastern Daylight Time)","20321","0","4","","","","","","","","","",""
"","","","","","","","","","","","preload","37","175579","0.0-37.0","","","","","true","","","","","","","","","","","preload","","","0","5","false","[]","[]","[]","","","","","",""
"","","","","","","","","","","","canvas-keyboard-response","38","175882","0.0-38.0","null","null","","","","","","","","","","","","","","fixation","","","0","5","","","","","","","","","",""
"","","","","","","","","","","","canvas-keyboard-response","39","176184","0.0-39.0","null","null","","","","","","","","","","","","","","stimulus","","","0","5","","","","","","","","","",""
"","","","","","","","","","","","canvas-button-response","40","178950","0.0-40.0","2763","train","","","","","","","","","","","","","","perceptual","","","0","5","","","","","62","train","1","","1",""
"","","","","","","","","","","","canvas-button-response","41","179503","0.0-41.0","551","10","","","","","","","","","","","","","","confidence","","","0","5","","","","","","","","","","6"
"","","","","","","","","","","","html-keyboard-response","42","180506","0.0-42.0","null","null","","","","","","","","","","","","","","feedback","Thu Oct 16 2025 13:20:58 GMT-0400 (Eastern Daylight Time)","20321","0","5","","","","","","","","","",""
"","","","","","","","","","","","preload","43","180507","0.0-43.0","","","","","true","","","","","","","","","","","preload","","","0","6","false","[]","[]","[]","","","","","",""
"","","","","","","","","","","","canvas-keyboard-response","44","180810","0.0-44.0","null","null","","","","","","","","","","","","","","fixation","","","0","6","","","","","","","","","",""
"","","","","","","","","","","","canvas-keyboard-response","45","181113","0.0-45.0","null","null","","","","","","","","","","","","","","stimulus","","","0","6","","","","","","","","","",""
"","","","","","","","","","","","canvas-button-response","46","182188","0.0-46.0","1073","bridge","","","","","","","","","","","","","","perceptual","","","0","6","","","","","42","bridge","1","","1",""
"","","","","","","","","","","","canvas-button-response","47","182976","0.0-47.0","786","10","","","","","","","","","","","","","","confidence","","","0","6","","","","","","","","","","7"
"","","","","","","","","","","","html-keyboard-response","48","183979","0.0-48.0","null","null","","","","","","","","","","","","","","feedback","Thu Oct 16 2025 13:21:01 GMT-0400 (Eastern Daylight Time)","20321","0","6","","","","","","","","","",""
"","","","","","","","","","","","preload","49","183981","0.0-49.0","","","","","true","","","","","","","","","","","preload","","","0","7","false","[]","[]","[]","","","","","",""
"","","","","","","","","","","","canvas-keyboard-response","50","184284","0.0-50.0","null","null","","","","","","","","","","","","","","fixation","","","0","7","","","","","","","","","",""
"","","","","","","","","","","","canvas-keyboard-response","51","184588","0.0-51.0","null","null","","","","","","","","","","","","","","stimulus","","","0","7","","","","","","","","","",""
"","","","","","","","","","","","canvas-button-response","52","193076","0.0-52.0","8486","house","","","","","","","","","","","","","","perceptual","","","0","7","","","","","82","elephant","1","","0",""
"","","","","","","","","","","","canvas-button-response","53","194479","0.0-53.0","1402","1","","","","","","","","","","","","","","confidence","","","0","7","","","","","","","","","","7"
"","","","","","","","","","","","html-keyboard-response","54","195482","0.0-54.0","null","null","","","","","","","","","","","","","","feedback","Thu Oct 16 2025 13:21:13 GMT-0400 (Eastern Daylight Time)","20321","0","7","","","","","","","","","",""
"","","","","","","","","","","","preload","55","195484","0.0-55.0","","","","","true","","","","","","","","","","","preload","","","0","8","false","[]","[]","[]","","","","","",""
"","","","","","","","","","","","canvas-keyboard-response","56","195787","0.0-56.0","null","null","","","","","","","","","","","","","","fixation","","","0","8","","","","","","","","","",""
"","","","","","","","","","","","canvas-keyboard-response","57","196089","0.0-57.0","null","null","","","","","","","","","","","","","","stimulus","","","0","8","","","","","","","","","",""
"","","","","","","","","","","","canvas-button-response","58","197002","0.0-58.0","911","bed","","","","","","","","","","","","","","perceptual","","","0","8","","","","","32","bed","1","","1",""
"","","","","","","","","","","","canvas-button-response","59","198530","0.0-59.0","1527","9","","","","","","","","","","","","","","confidence","","","0","8","","","","","","","","","","8"
"","","","","","","","","","","","html-keyboard-response","60","199533","0.0-60.0","null","null","","","","","","","","","","","","","","feedback","Thu Oct 16 2025 13:21:17 GMT-0400 (Eastern Daylight Time)","20321","0","8","","","","","","","","","",""
"","","","","","","","","","","","preload","61","199535","0.0-61.0","","","","","true","","","","","","","","","","","preload","","","0","9","false","[]","[]","[]","","","","","",""
"","","","","","","","","","","","canvas-keyboard-response","62","199838","0.0-62.0","null","null","","","","","","","","","","","","","","fixation","","","0","9","","","","","","","","","",""
"","","","","","","","","","","","canvas-keyboard-response","63","200140","0.0-63.0","null","null","","","","","","","","","","","","","","stimulus","","","0","9","","","","","","","","","",""
"","","","","","","","","","","","canvas-button-response","64","201632","0.0-64.0","1489","phone","","","","","","","","","","","","","","perceptual","","","0","9","","","","","22","phone","1","","1",""
"","","","","","","","","","","","canvas-button-response","65","202216","0.0-65.0","582","10","","","","","","","","","","","","","","confidence","","","0","9","","","","","","","","","","9"
"","","","","","","","","","","","html-keyboard-response","66","203218","0.0-66.0","null","null","","","","","","","","","","","","","","feedback","Thu Oct 16 2025 13:21:20 GMT-0400 (Eastern Daylight Time)","20321","0","9","","","","","","","","","",""
"","","","","","","","","","","","html-button-response","67","218733","0.0-67.0","15512","0","","","","","","","","","","","","","","start_practice","Thu Oct 16 2025 13:21:21 GMT-0400 (Eastern Daylight Time)","20321","0","9","","","","","","","","","",""
"","","","","","","","","","","","preload","68","218734","0.0-68.0","","","","","true","","","","","","","","","","","preload","","","1","0","false","[]","[]","[]","","","","","",""
"","","","","","","","","","","","canvas-keyboard-response","69","219036","0.0-69.0","null","null","","","","","","","","","","","","","","fixation","","","1","0","","","","","","","","","",""
"","","","","","","","","","","","canvas-keyboard-response","70","219340","0.0-70.0","null","null","","","","","","","","","","","","","","stimulus","","","1","0","","","","","","","","","",""
"","","","","","","","","","","","canvas-button-response","71","221597","0.0-71.0","2255","house","","","","","","","","","","","","","","perceptual","","","1","0","","","","","84","elephant","6","","0",""
"","","","","","","","","","","","canvas-button-response","72","222271","0.0-72.0","672","4","","","","","","","","","","","","","","confidence","","","1","0","","","","","","","","","","0"
"","","","","","","","","","","","html-keyboard-response","73","223274","0.0-73.0","null","null","","","","","","","","","","","","","","feedback","Thu Oct 16 2025 13:21:40 GMT-0400 (Eastern Daylight Time)","20321","1","0","","","","","","","","","",""
"","","","","","","","","","","","preload","74","223275","0.0-74.0","","","","","true","","","","","","","","","","","preload","","","1","1","false","[]","[]","[]","","","","","",""
"","","","","","","","","","","","canvas-keyboard-response","75","223577","0.0-75.0","null","null","","","","","","","","","","","","","","fixation","","","1","1","","","","","","","","","",""
"","","","","","","","","","","","canvas-keyboard-response","76","223880","0.0-76.0","null","null","","","","","","","","","","","","","","stimulus","","","1","1","","","","","","","","","",""
"","","","","","","","","","","","canvas-button-response","77","229098","0.0-77.0","5215","phone","","","","","","","","","","","","","","perceptual","","","1","1","","","","","94","knife","6","","0",""
"","","","","","","","","","","","canvas-button-response","78","230296","0.0-78.0","1196","3","","","","","","","","","","","","","","confidence","","","1","1","","","","","","","","","","0"
"","","","","","","","","","","","html-keyboard-response","79","231298","0.0-79.0","null","null","","","","","","","","","","","","","","feedback","Thu Oct 16 2025 13:21:48 GMT-0400 (Eastern Daylight Time)","20321","1","1","","","","","","","","","",""
"","","","","","","","","","","","preload","80","231300","0.0-80.0","","","","","true","","","","","","","","","","","preload","","","1","2","false","[]","[]","[]","","","","","",""
"","","","","","","","","","","","canvas-keyboard-response","81","231603","0.0-81.0","null","null","","","","","","","","","","","","","","fixation","","","1","2","","","","","","","","","",""
"","","","","","","","","","","","canvas-keyboard-response","82","231906","0.0-82.0","null","null","","","","","","","","","","","","","","stimulus","","","1","2","","","","","","","","","",""
"","","","","","","","","","","","canvas-button-response","83","234029","0.0-83.0","2121","house","","","","","","","","","","","","","","perceptual","","","1","2","","","","","17","car","10","","0",""
"","","","","","","","","","","","canvas-button-response","84","234921","0.0-84.0","891","3","","","","","","","","","","","","","","confidence","","","1","2","","","","","","","","","","0"
"","","","","","","","","","","","html-keyboard-response","85","235924","0.0-85.0","null","null","","","","","","","","","","","","","","feedback","Thu Oct 16 2025 13:21:53 GMT-0400 (Eastern Daylight Time)","20321","1","2","","","","","","","","","",""
"","","","","","","","","","","","preload","86","235925","0.0-86.0","","","","","true","","","","","","","","","","","preload","","","1","3","false","[]","[]","[]","","","","","",""
"","","","","","","","","","","","canvas-keyboard-response","87","236228","0.0-87.0","null","null","","","","","","","","","","","","","","fixation","","","1","3","","","","","","","","","",""
"","","","","","","","","","","","canvas-keyboard-response","88","236531","0.0-88.0","null","null","","","","","","","","","","","","","","stimulus","","","1","3","","","","","","","","","",""
"","","","","","","","","","","","canvas-button-response","89","240824","0.0-89.0","4291","train","","","","","","","","","","","","","","perceptual","","","1","3","","","","","27","phone","10","","0",""
"","","","","","","","","","","","canvas-button-response","90","241596","0.0-90.0","769","3","","","","","","","","","","","","","","confidence","","","1","3","","","","","","","","","","0"
"","","","","","","","","","","","html-keyboard-response","91","242598","0.0-91.0","null","null","","","","","","","","","","","","","","feedback","Thu Oct 16 2025 13:22:00 GMT-0400 (Eastern Daylight Time)","20321","1","3","","","","","","","","","",""
"","","","","","","","","","","","preload","92","242599","0.0-92.0","","","","","true","","","","","","","","","","","preload","","","1","4","false","[]","[]","[]","","","","","",""
"","","","","","","","","","","","canvas-keyboard-response","93","242903","0.0-93.0","null","null","","","","","","","","","","","","","","fixation","","","1","4","","","","","","","","","",""
"","","","","","","","","","","","canvas-keyboard-response","94","243206","0.0-94.0","null","null","","","","","","","","","","","","","","stimulus","","","1","4","","","","","","","","","",""
"","","","","","","","","","","","canvas-button-response","95","247301","0.0-95.0","4093","house","","","","","","","","","","","","","","perceptual","","","1","4","","","","","4","house","6","","1",""
"","","","","","","","","","","","canvas-button-response","96","248153","0.0-96.0","850","8","","","","","","","","","","","","","","confidence","","","1","4","","","","","","","","","","1"
"","","","","","","","","","","","html-keyboard-response","97","249156","0.0-97.0","null","null","","","","","","","","","","","","","","feedback","Thu Oct 16 2025 13:22:06 GMT-0400 (Eastern Daylight Time)","20321","1","4","","","","","","","","","",""
"","","","","","","","","","","","preload","98","249157","0.0-98.0","","","","","true","","","","","","","","","","","preload","","","1","5","false","[]","[]","[]","","","","","",""
"","","","","","","","","","","","canvas-keyboard-response","99","249460","0.0-99.0","null","null","","","","","","","","","","","","","","fixation","","","1","5","","","","","","","","","",""
"","","","","","","","","","","","canvas-keyboard-response","100","249763","0.0-100.0","null","null","","","","","","","","","","","","","","stimulus","","","1","5","","","","","","","","","",""
"","","","","","","","","","","","canvas-button-response","101","251010","0.0-101.0","1244","flower","","","","","","","","","","","","","","perceptual","","","1","5","","","","","54","flower","6","","1",""
"","","","","","","","","","","","canvas-button-response","102","251918","0.0-102.0","907","8","","","","","","","","","","","","","","confidence","","","1","5","","","","","","","","","","2"
"","","","","","","","","","","","html-keyboard-response","103","252920","0.0-103.0","null","null","","","","","","","","","","","","","","feedback","Thu Oct 16 2025 13:22:10 GMT-0400 (Eastern Daylight Time)","20321","1","5","","","","","","","","","",""
"","","","","","","","","","","","preload","104","252921","0.0-104.0","","","","","true","","","","","","","","","","","preload","","","1","6","false","[]","[]","[]","","","","","",""
"","","","","","","","","","","","canvas-keyboard-response","105","253223","0.0-105.0","null","null","","","","","","","","","","","","","","fixation","","","1","6","","","","","","","","","",""
"","","","","","","","","","","","canvas-keyboard-response","106","253526","0.0-106.0","null","null","","","","","","","","","","","","","","stimulus","","","1","6","","","","","","","","","",""
"","","","","","","","","","","","canvas-button-response","107","254630","0.0-107.0","1102","train","","","","","","","","","","","","","","perceptual","","","1","6","","","","","37","bed","10","","0",""
"","","","","","","","","","","","canvas-button-response","108","255449","0.0-108.0","817","3","","","","","","","","","","","","","","confidence","","","1","6","","","","","","","","","","2"
"","","","","","","","","","","","html-keyboard-response","109","256451","0.0-109.0","null","null","","","","","","","","","","","","","","feedback","Thu Oct 16 2025 13:22:14 GMT-0400 (Eastern Daylight Time)","20321","1","6","","","","","","","","","",""
"","","","","","","","","","","","preload","110","256453","0.0-110.0","","","","","true","","","","","","","","","","","preload","","","1","7","false","[]","[]","[]","","","","","",""
"","","","","","","","","","","","canvas-keyboard-response","111","256756","0.0-111.0","null","null","","","","","","","","","","","","","","fixation","","","1","7","","","","","","","","","",""
"","","","","","","","","","","","canvas-keyboard-response","112","257059","0.0-112.0","null","null","","","","","","","","","","","","","","stimulus","","","1","7","","","","","","","","","",""
"","","","","","","","","","","","canvas-button-response","113","259095","0.0-113.0","2033","house","","","","","","","","","","","","","","perceptual","","","1","7","","","","","7","house","10","","1",""
"","","","","","","","","","","","canvas-button-response","114","259484","0.0-114.0","387","3","","","","","","","","","","","","","","confidence","","","1","7","","","","","","","","","","3"
"","","","","","","","","","","","html-keyboard-response","115","260488","0.0-115.0","null","null","","","","","","","","","","","","","","feedback","Thu Oct 16 2025 13:22:18 GMT-0400 (Eastern Daylight Time)","20321","1","7","","","","","","","","","",""
"","","","","","","","","","","","preload","116","260489","0.0-116.0","","","","","true","","","","","","","","","","","preload","","","1","8","false","[]","[]","[]","","","","","",""
"","","","","","","","","","","","canvas-keyboard-response","117","260791","0.0-117.0","null","null","","","","","","","","","","","","","","fixation","","","1","8","","","","","","","","","",""
"","","","","","","","","","","","canvas-keyboard-response","118","261093","0.0-118.0","null","null","","","","","","","","","","","","","","stimulus","","","1","8","","","","","","","","","",""
"","","","","","","","","","","","canvas-button-response","119","261960","0.0-119.0","864","knife","","","","","","","","","","","","","","perceptual","","","1","8","","","","","97","knife","10","","1",""
"","","","","","","","","","","","canvas-button-response","120","262675","0.0-120.0","714","8","","","","","","","","","","","","","","confidence","","","1","8","","","","","","","","","","4"
"","","","","","","","","","","","html-keyboard-response","121","263677","0.0-121.0","null","null","","","","","","","","","","","","","","feedback","Thu Oct 16 2025 13:22:21 GMT-0400 (Eastern Daylight Time)","20321","1","8","","","","","","","","","",""
"","","","","","","","","","","","preload","122","263678","0.0-122.0","","","","","true","","","","","","","","","","","preload","","","1","9","false","[]","[]","[]","","","","","",""
"","","","","","","","","","","","canvas-keyboard-response","123","263981","0.0-123.0","null","null","","","","","","","","","","","","","","fixation","","","1","9","","","","","","","","","",""
"","","","","","","","","","","","canvas-keyboard-response","124","264284","0.0-124.0","null","null","","","","","","","","","","","","","","stimulus","","","1","9","","","","","","","","","",""
"","","","","","","","","","","","canvas-button-response","125","265598","0.0-125.0","1311","phone","","","","","","","","","","","","","","perceptual","","","1","9","","","","","24","phone","6","","1",""
"","","","","","","","","","","","canvas-button-response","126","266368","0.0-126.0","769","9","","","","","","","","","","","","","","confidence","","","1","9","","","","","","","","","","5"
"","","","","","","","","","","","html-keyboard-response","127","267371","0.0-127.0","null","null","","","","","","","","","","","","","","feedback","Thu Oct 16 2025 13:22:25 GMT-0400 (Eastern Daylight Time)","20321","1","9","","","","","","","","","",""
"","","","","","","","","","","","preload","128","267372","0.0-128.0","","","","","true","","","","","","","","","","","preload","","","1","10","false","[]","[]","[]","","","","","",""
"","","","","","","","","","","","canvas-keyboard-response","129","267675","0.0-129.0","null","null","","","","","","","","","","","","","","fixation","","","1","10","","","","","","","","","",""
"","","","","","","","","","","","canvas-keyboard-response","130","267979","0.0-130.0","null","null","","","","","","","","","","","","","","stimulus","","","1","10","","","","","","","","","",""
"","","","","","","","","","","","canvas-button-response","131","272057","0.0-131.0","4076","bed","","","","","","","","","","","","","","perceptual","","","1","10","","","","","67","train","10","","0",""
"","","","","","","","","","","","canvas-button-response","132","272885","0.0-132.0","826","4","","","","","","","","","","","","","","confidence","","","1","10","","","","","","","","","","5"
"","","","","","","","","","","","html-keyboard-response","133","273888","0.0-133.0","null","null","","","","","","","","","","","","","","feedback","Thu Oct 16 2025 13:22:31 GMT-0400 (Eastern Daylight Time)","20321","1","10","","","","","","","","","",""
"","","","","","","","","","","","preload","134","273889","0.0-134.0","","","","","true","","","","","","","","","","","preload","","","1","11","false","[]","[]","[]","","","","","",""
"","","","","","","","","","","","canvas-keyboard-response","135","274192","0.0-135.0","null","null","","","","","","","","","","","","","","fixation","","","1","11","","","","","","","","","",""
"","","","","","","","","","","","canvas-keyboard-response","136","274495","0.0-136.0","null","null","","","","","","","","","","","","","","stimulus","","","1","11","","","","","","","","","",""
"","","","","","","","","","","","canvas-button-response","137","277336","0.0-137.0","2839","elephant","","","","","","","","","","","","","","perceptual","","","1","11","","","","","14","car","6","","0",""
"","","","","","","","","","","","canvas-button-response","138","278700","0.0-138.0","1362","1","","","","","","","","","","","","","","confidence","","","1","11","","","","","","","","","","5"
"","","","","","","","","","","","html-keyboard-response","139","279703","0.0-139.0","null","null","","","","","","","","","","","","","","feedback","Thu Oct 16 2025 13:22:37 GMT-0400 (Eastern Daylight Time)","20321","1","11","","","","","","","","","",""
"","","","","","","","","","","","preload","140","279704","0.0-140.0","","","","","true","","","","","","","","","","","preload","","","1","12","false","[]","[]","[]","","","","","",""
"","","","","","","","","","","","canvas-keyboard-response","141","280007","0.0-141.0","null","null","","","","","","","","","","","","","","fixation","","","1","12","","","","","","","","","",""
"","","","","","","","","","","","canvas-keyboard-response","142","280311","0.0-142.0","null","null","","","","","","","","","","","","","","stimulus","","","1","12","","","","","","","","","",""
"","","","","","","","","","","","canvas-button-response","143","281451","0.0-143.0","1138","train","","","","","","","","","","","","","","perceptual","","","1","12","","","","","64","train","6","","1",""
"","","","","","","","","","","","canvas-button-response","144","281961","0.0-144.0","509","9","","","","","","","","","","","","","","confidence","","","1","12","","","","","","","","","","6"
"","","","","","","","","","","","html-keyboard-response","145","282964","0.0-145.0","null","null","","","","","","","","","","","","","","feedback","Thu Oct 16 2025 13:22:40 GMT-0400 (Eastern Daylight Time)","20321","1","12","","","","","","","","","",""
"","","","","","","","","","","","preload","146","282965","0.0-146.0","","","","","true","","","","","","","","","","","preload","","","1","13","false","[]","[]","[]","","","","","",""
"","","","","","","","","","","","canvas-keyboard-response","147","283267","0.0-147.0","null","null","","","","","","","","","","","","","","fixation","","","1","13","","","","","","","","","",""
"","","","","","","","","","","","canvas-keyboard-response","148","283570","0.0-148.0","null","null","","","","","","","","","","","","","","stimulus","","","1","13","","","","","","","","","",""
"","","","","","","","","","","","canvas-button-response","149","285135","0.0-149.0","1563","bridge","","","","","","","","","","","","","","perceptual","","","1","13","","","","","44","bridge","6","","1",""
"","","","","","","","","","","","canvas-button-response","150","285663","0.0-150.0","527","4","","","","","","","","","","","","","","confidence","","","1","13","","","","","","","","","","7"
"","","","","","","","","","","","html-keyboard-response","151","286665","0.0-151.0","null","null","","","","","","","","","","","","","","feedback","Thu Oct 16 2025 13:22:44 GMT-0400 (Eastern Daylight Time)","20321","1","13","","","","","","","","","",""
"","","","","","","","","","","","preload","152","286666","0.0-152.0","","","","","true","","","","","","","","","","","preload","","","1","14","false","[]","[]","[]","","","","","",""
"","","","","","","","","","","","canvas-keyboard-response","153","286969","0.0-153.0","null","null","","","","","","","","","","","","","","fixation","","","1","14","","","","","","","","","",""
"","","","","","","","","","","","canvas-keyboard-response","154","287271","0.0-154.0","null","null","","","","","","","","","","","","","","stimulus","","","1","14","","","","","","","","","",""
"","","","","","","","","","","","canvas-button-response","155","288195","0.0-155.0","922","flower","","","","","","","","","","","","","","perceptual","","","1","14","","","","","57","flower","10","","1",""
"","","","","","","","","","","","canvas-button-response","156","288804","0.0-156.0","607","6","","","","","","","","","","","","","","confidence","","","1","14","","","","","","","","","","8"
"","","","","","","","","","","","html-keyboard-response","157","289807","0.0-157.0","null","null","","","","","","","","","","","","","","feedback","Thu Oct 16 2025 13:22:47 GMT-0400 (Eastern Daylight Time)","20321","1","14","","","","","","","","","",""
"","","","","","","","","","","","preload","158","289808","0.0-158.0","","","","","true","","","","","","","","","","","preload","","","1","15","false","[]","[]","[]","","","","","",""
"","","","","","","","","","","","canvas-keyboard-response","159","290111","0.0-159.0","null","null","","","","","","","","","","","","","","fixation","","","1","15","","","","","","","","","",""
"","","","","","","","","","","","canvas-keyboard-response","160","290413","0.0-160.0","null","null","","","","","","","","","","","","","","stimulus","","","1","15","","","","","","","","","",""
"","","","","","","","","","","","canvas-button-response","161","293120","0.0-161.0","2705","bed","","","","","","","","","","","","","","perceptual","","","1","15","","","","","77","cat","10","","0",""
"","","","","","","","","","","","canvas-button-response","162","293732","0.0-162.0","610","4","","","","","","","","","","","","","","confidence","","","1","15","","","","","","","","","","8"
"","","","","","","","","","","","html-keyboard-response","163","294735","0.0-163.0","null","null","","","","","","","","","","","","","","feedback","Thu Oct 16 2025 13:22:52 GMT-0400 (Eastern Daylight Time)","20321","1","15","","","","","","","","","",""
"","","","","","","","","","","","preload","164","294736","0.0-164.0","","","","","true","","","","","","","","","","","preload","","","1","16","false","[]","[]","[]","","","","","",""
"","","","","","","","","","","","canvas-keyboard-response","165","295039","0.0-165.0","null","null","","","","","","","","","","","","","","fixation","","","1","16","","","","","","","","","",""
"","","","","","","","","","","","canvas-keyboard-response","166","295341","0.0-166.0","null","null","","","","","","","","","","","","","","stimulus","","","1","16","","","","","","","","","",""
"","","","","","","","","","","","canvas-button-response","167","297763","0.0-167.0","2419","flower","","","","","","","","","","","","","","perceptual","","","1","16","","","","","47","bridge","10","","0",""
"","","","","","","","","","","","canvas-button-response","168","298365","0.0-168.0","599","3","","","","","","","","","","","","","","confidence","","","1","16","","","","","","","","","","8"
"","","","","","","","","","","","html-keyboard-response","169","299368","0.0-169.0","null","null","","","","","","","","","","","","","","feedback","Thu Oct 16 2025 13:22:57 GMT-0400 (Eastern Daylight Time)","20321","1","16","","","","","","","","","",""
"","","","","","","","","","","","preload","170","299369","0.0-170.0","","","","","true","","","","","","","","","","","preload","","","1","17","false","[]","[]","[]","","","","","",""
"","","","","","","","","","","","canvas-keyboard-response","171","299672","0.0-171.0","null","null","","","","","","","","","","","","","","fixation","","","1","17","","","","","","","","","",""
"","","","","","","","","","","","canvas-keyboard-response","172","299975","0.0-172.0","null","null","","","","","","","","","","","","","","stimulus","","","1","17","","","","","","","","","",""
"","","","","","","","","","","","canvas-button-response","173","301528","0.0-173.0","1551","flower","","","","","","","","","","","","","","perceptual","","","1","17","","","","","87","elephant","10","","0",""
"","","","","","","","","","","","canvas-button-response","174","302186","0.0-174.0","657","2","","","","","","","","","","","","","","confidence","","","1","17","","","","","","","","","","8"
"","","","","","","","","","","","html-keyboard-response","175","303189","0.0-175.0","null","null","","","","","","","","","","","","","","feedback","Thu Oct 16 2025 13:23:00 GMT-0400 (Eastern Daylight Time)","20321","1","17","","","","","","","","","",""
"","","","","","","","","","","","preload","176","303190","0.0-176.0","","","","","true","","","","","","","","","","","preload","","","1","18","false","[]","[]","[]","","","","","",""
"","","","","","","","","","","","canvas-keyboard-response","177","303493","0.0-177.0","null","null","","","","","","","","","","","","","","fixation","","","1","18","","","","","","","","","",""
"","","","","","","","","","","","canvas-keyboard-response","178","303796","0.0-178.0","null","null","","","","","","","","","","","","","","stimulus","","","1","18","","","","","","","","","",""
"","","","","","","","","","","","canvas-button-response","179","304621","0.0-179.0","823","cat","","","","","","","","","","","","","","perceptual","","","1","18","","","","","74","cat","6","","1",""
"","","","","","","","","","","","canvas-button-response","180","305271","0.0-180.0","647","8","","","","","","","","","","","","","","confidence","","","1","18","","","","","","","","","","9"
"","","","","","","","","","","","html-keyboard-response","181","306274","0.0-181.0","null","null","","","","","","","","","","","","","","feedback","Thu Oct 16 2025 13:23:03 GMT-0400 (Eastern Daylight Time)","20321","1","18","","","","","","","","","",""
"","","","","","","","","","","","preload","182","306275","0.0-182.0","","","","","true","","","","","","","","","","","preload","","","1","19","false","[]","[]","[]","","","","","",""
"","","","","","","","","","","","canvas-keyboard-response","183","306577","0.0-183.0","null","null","","","","","","","","","","","","","","fixation","","","1","19","","","","","","","","","",""
"","","","","","","","","","","","canvas-keyboard-response","184","306880","0.0-184.0","null","null","","","","","","","","","","","","","","stimulus","","","1","19","","","","","","","","","",""
"","","","","","","","","","","","canvas-button-response","185","307723","0.0-185.0","841","bed","","","","","","","","","","","","","","perceptual","","","1","19","","","","","34","bed","6","","1",""
"","","","","","","","","","","","canvas-button-response","186","308671","0.0-186.0","946","7","","","","","","","","","","","","","","confidence","","","1","19","","","","","","","","","","10"
"","","","","","","","","","","","html-keyboard-response","187","309674","0.0-187.0","null","null","","","","","","","","","","","","","","feedback","Thu Oct 16 2025 13:23:07 GMT-0400 (Eastern Daylight Time)","20321","1","19","","","","","","","","","",""
"","","","","","","","","","","","html-button-response","188","311847","0.0-188.0","2170","0","","","","","","","","","","","","","","start experiment","Thu Oct 16 2025 13:23:08 GMT-0400 (Eastern Daylight Time)","20321","1","19","","","","","","","","","",""
"","","","","","","","","","","","preload","189","311848","0.0-189.0","","","","","true","","","","","","","","","","","preload","","","2","0","false","[]","[]","[]","","","","","",""
"","","","","","","","","","","","canvas-keyboard-response","190","312150","0.0-190.0","null","null","","","","","","","","","","","","","","fixation","","","2","0","","","","","","","","","",""
"","","","","","","","","","","","canvas-keyboard-response","191","312453","0.0-191.0","null","null","","","","","","","","","","","","","","stimulus","","","2","0","","","","","","","","","",""
"","","","","","","","","","","","canvas-button-response","192","313828","0.0-192.0","1372","bed","","","","","","","","","","","","","","perceptual","","","2","0","","","","","126","bed","6","0","1",""
"","","","","","","","","","","","canvas-button-response","193","314859","0.0-193.0","1028","6","","","","","","","","","","","","","","confidence","","","2","0","","","","","","","","","","1"
"","","","","","","","","","","","preload","194","314860","0.0-194.0","","","","","true","","","","","","","","","","","preload","","","2","1","false","[]","[]","[]","","","","","",""
"","","","","","","","","","","","canvas-keyboard-response","195","315162","0.0-195.0","null","null","","","","","","","","","","","","","","fixation","","","2","1","","","","","","","","","",""
"","","","","","","","","","","","canvas-keyboard-response","196","315465","0.0-196.0","null","null","","","","","","","","","","","","","","stimulus","","","2","1","","","","","","","","","",""
"","","","","","","","","","","","canvas-button-response","197","318632","0.0-197.0","3164","car","","","","","","","","","","","","","","perceptual","","","2","1","","","","","308","cat","10","0","0",""
"","","","","","","","","","","","canvas-button-response","198","319687","0.0-198.0","1053","2","","","","","","","","","","","","","","confidence","","","2","1","","","","","","","","","","1"
"","","","","","","","","","","","preload","199","319687","0.0-199.0","","","","","true","","","","","","","","","","","preload","","","2","2","false","[]","[]","[]","","","","","",""
"","","","","","","","","","","","canvas-keyboard-response","200","319989","0.0-200.0","null","null","","","","","","","","","","","","","","fixation","","","2","2","","","","","","","","","",""
"","","","","","","","","","","","canvas-keyboard-response","201","320291","0.0-201.0","null","null","","","","","","","","","","","","","","stimulus","","","2","2","","","","","","","","","",""
"","","","","","","","","","","","canvas-button-response","202","321132","0.0-202.0","839","flower","","","","","","","","","","","","","","perceptual","","","2","2","","","","","260","train","10","0","0",""
"","","","","","","","","","","","canvas-button-response","203","321733","0.0-203.0","599","2","","","","","","","","","","","","","","confidence","","","2","2","","","","","","","","","","1"
"","","","","","","","","","","","preload","204","321734","0.0-204.0","","","","","true","","","","","","","","","","","preload","","","2","3","false","[]","[]","[]","","","","","",""
"","","","","","","","","","","","canvas-keyboard-response","205","322036","0.0-205.0","null","null","","","","","","","","","","","","","","fixation","","","2","3","","","","","","","","","",""
"","","","","","","","","","","","canvas-keyboard-response","206","322340","0.0-206.0","null","null","","","","","","","","","","","","","","stimulus","","","2","3","","","","","","","","","",""
"","","","","","","","","","","","canvas-button-response","207","323752","0.0-207.0","1410","bridge","","","","","","","","","","","","","","perceptual","","","2","3","","","","","193","bridge","10","0","1",""
"","","","","","","","","","","","canvas-button-response","208","324368","0.0-208.0","615","1","","","","","","","","","","","","","","confidence","","","2","3","","","","","","","","","","2"
"","","","","","","","","","","","preload","209","324368","0.0-209.0","","","","","true","","","","","","","","","","","preload","","","2","4","false","[]","[]","[]","","","","","",""
"","","","","","","","","","","","canvas-keyboard-response","210","324670","0.0-210.0","null","null","","","","","","","","","","","","","","fixation","","","2","4","","","","","","","","","",""
"","","","","","","","","","","","canvas-keyboard-response","211","324971","0.0-211.0","null","null","","","","","","","","","","","","","","stimulus","","","2","4","","","","","","","","","",""
"","","","","","","","","","","","canvas-button-response","212","327690","0.0-212.0","2716","phone","","","","","","","","","","","","","","perceptual","","","2","4","","","","","115","phone","10","0","1",""
"","","","","","","","","","","","canvas-button-response","213","328407","0.0-213.0","714","2","","","","","","","","","","","","","","confidence","","","2","4","","","","","","","","","","3"
"","","","","","","","","","","","preload","214","328408","0.0-214.0","","","","","true","","","","","","","","","","","preload","","","2","5","false","[]","[]","[]","","","","","",""
"","","","","","","","","","","","canvas-keyboard-response","215","328711","0.0-215.0","null","null","","","","","","","","","","","","","","fixation","","","2","5","","","","","","","","","",""
"","","","","","","","","","","","canvas-keyboard-response","216","329013","0.0-216.0","null","null","","","","","","","","","","","","","","stimulus","","","2","5","","","","","","","","","",""
"","","","","","","","","","","","canvas-button-response","217","330045","0.0-217.0","1029","car","","","","","","","","","","","","","","perceptual","","","2","5","","","","","64","car","10","0","1",""
"","","","","","","","","","","","canvas-button-response","218","330751","0.0-218.0","703","6","","","","","","","","","","","","","","confidence","","","2","5","","","","","","","","","","4"
"","","","","","","","","","","","preload","219","330752","0.0-219.0","","","","","true","","","","","","","","","","","preload","","","2","6","false","[]","[]","[]","","","","","",""
"","","","","","","","","","","","canvas-keyboard-response","220","331054","0.0-220.0","null","null","","","","","","","","","","","","","","fixation","","","2","6","","","","","","","","","",""
"","","","","","","","","","","","canvas-keyboard-response","221","331356","0.0-221.0","null","null","","","","","","","","","","","","","","stimulus","","","2","6","","","","","","","","","",""
"","","","","","","","","","","","canvas-button-response","222","333931","0.0-222.0","2572","house","","","","","","","","","","","","","","perceptual","","","2","6","","","","","79","car","10","0","0",""
"","","","","","","","","","","","canvas-button-response","223","334457","0.0-223.0","525","3","","","","","","","","","","","","","","confidence","","","2","6","","","","","","","","","","4"
"","","","","","","","","","","","preload","224","334458","0.0-224.0","","","","","true","","","","","","","","","","","preload","","","2","7","false","[]","[]","[]","","","","","",""
"","","","","","","","","","","","canvas-keyboard-response","225","334761","0.0-225.0","null","null","","","","","","","","","","","","","","fixation","","","2","7","","","","","","","","","",""
"","","","","","","","","","","","canvas-keyboard-response","226","335064","0.0-226.0","null","null","","","","","","","","","","","","","","stimulus","","","2","7","","","","","","","","","",""
"","","","","","","","","","","","canvas-button-response","227","336015","0.0-227.0","950","train","","","","","","","","","","","","","","perceptual","","","2","7","","","","","243","train","6","0","1",""
"","","","","","","","","","","","canvas-button-response","228","336617","0.0-228.0","600","9","","","","","","","","","","","","","","confidence","","","2","7","","","","","","","","","","5"
"","","","","","","","","","","","preload","229","336617","0.0-229.0","","","","","true","","","","","","","","","","","preload","","","2","8","false","[]","[]","[]","","","","","",""
"","","","","","","","","","","","canvas-keyboard-response","230","336919","0.0-230.0","null","null","","","","","","","","","","","","","","fixation","","","2","8","","","","","","","","","",""
"","","","","","","","","","","","canvas-keyboard-response","231","337221","0.0-231.0","null","null","","","","","","","","","","","","","","stimulus","","","2","8","","","","","","","","","",""
"","","","","","","","","","","","canvas-button-response","232","340163","0.0-232.0","2939","cat","","","","","","","","","","","","","","perceptual","","","2","8","","","","","325","elephant","6","0","0",""
"","","","","","","","","","","","canvas-button-response","233","341598","0.0-233.0","1434","1","","","","","","","","","","","","","","confidence","","","2","8","","","","","","","","","","5"
"","","","","","","","","","","","preload","234","341599","0.0-234.0","","","","","true","","","","","","","","","","","preload","","","2","9","false","[]","[]","[]","","","","","",""
"","","","","","","","","","","","canvas-keyboard-response","235","341901","0.0-235.0","null","null","","","","","","","","","","","","","","fixation","","","2","9","","","","","","","","","",""
"","","","","","","","","","","","canvas-keyboard-response","236","342203","0.0-236.0","null","null","","","","","","","","","","","","","","stimulus","","","2","9","","","","","","","","","",""
"","","","","","","","","","","","canvas-button-response","237","345007","0.0-237.0","2802","phone","","","","","","","","","","","","","","perceptual","","","2","9","","","","","365","knife","6","0","0",""
"","","","","","","","","","","","canvas-button-response","238","345723","0.0-238.0","714","2","","","","","","","","","","","","","","confidence","","","2","9","","","","","","","","","","5"
"","","","","","","","","","","","preload","239","345724","0.0-239.0","","","","","true","","","","","","","","","","","preload","","","2","10","false","[]","[]","[]","","","","","",""
"","","","","","","","","","","","canvas-keyboard-response","240","346027","0.0-240.0","null","null","","","","","","","","","","","","","","fixation","","","2","10","","","","","","","","","",""
"","","","","","","","","","","","canvas-keyboard-response","241","346328","0.0-241.0","null","null","","","","","","","","","","","","","","stimulus","","","2","10","","","","","","","","","",""
"","","","","","","","","","","","canvas-button-response","242","348401","0.0-242.0","2070","bridge","","","","","","","","","","","","","","perceptual","","","2","10","","","","","5","house","6","0","0",""
"","","","","","","","","","","","canvas-button-response","243","349212","0.0-243.0","808","3","","","","","","","","","","","","","","confidence","","","2","10","","","","","","","","","","5"
"","","","","","","","","","","","preload","244","349213","0.0-244.0","","","","","true","","","","","","","","","","","preload","","","2","11","false","[]","[]","[]","","","","","",""
"","","","","","","","","","","","canvas-keyboard-response","245","349516","0.0-245.0","null","null","","","","","","","","","","","","","","fixation","","","2","11","","","","","","","","","",""
"","","","","","","","","","","","canvas-keyboard-response","246","349818","0.0-246.0","null","null","","","","","","","","","","","","","","stimulus","","","2","11","","","","","","","","","",""
"","","","","","","","","","","","canvas-button-response","247","351322","0.0-247.0","1502","flower","","","","","","","","","","","","","","perceptual","","","2","11","","","","","358","elephant","10","0","0",""
"","","","","","","","","","","","canvas-button-response","248","352044","0.0-248.0","720","1","","","","","","","","","","","","","","confidence","","","2","11","","","","","","","","","","5"
"","","","","","","","","","","","preload","249","352046","0.0-249.0","","","","","true","","","","","","","","","","","preload","","","2","12","false","[]","[]","[]","","","","","",""
"","","","","","","","","","","","canvas-keyboard-response","250","352348","0.0-250.0","null","null","","","","","","","","","","","","","","fixation","","","2","12","","","","","","","","","",""
"","","","","","","","","","","","canvas-keyboard-response","251","352651","0.0-251.0","null","null","","","","","","","","","","","","","","stimulus","","","2","12","","","","","","","","","",""
"","","","","","","","","","","","canvas-button-response","252","353861","0.0-252.0","1209","cat","","","","","","","","","","","","","","perceptual","","","2","12","","","","","348","elephant","10","0","0",""
"","","","","","","","","","","","canvas-button-response","253","354641","0.0-253.0","778","5","","","","","","","","","","","","","","confidence","","","2","12","","","","","","","","","","5"
"","","","","","","","","","","","preload","254","354642","0.0-254.0","","","","","true","","","","","","","","","","","preload","","","2","13","false","[]","[]","[]","","","","","",""
"","","","","","","","","","","","canvas-keyboard-response","255","354944","0.0-255.0","null","null","","","","","","","","","","","","","","fixation","","","2","13","","","","","","","","","",""
"","","","","","","","","","","","canvas-keyboard-response","256","355246","0.0-256.0","null","null","","","","","","","","","","","","","","stimulus","","","2","13","","","","","","","","","",""
"","","","","","","","","","","","canvas-button-response","257","356363","0.0-257.0","1114","train","","","","","","","","","","","","","","perceptual","","","2","13","","","","","259","train","6","0","1",""
"","","","","","","","","","","","canvas-button-response","258","357011","0.0-258.0","646","5","","","","","","","","","","","","","","confidence","","","2","13","","","","","","","","","","6"
"","","","","","","","","","","","preload","259","357012","0.0-259.0","","","","","true","","","","","","","","","","","preload","","","2","14","false","[]","[]","[]","","","","","",""
"","","","","","","","","","","","canvas-keyboard-response","260","357314","0.0-260.0","null","null","","","","","","","","","","","","","","fixation","","","2","14","","","","","","","","","",""
"","","","","","","","","","","","canvas-keyboard-response","261","357617","0.0-261.0","null","null","","","","","","","","","","","","","","stimulus","","","2","14","","","","","","","","","",""
"","","","","","","","","","","","canvas-button-response","262","358691","0.0-262.0","1072","phone","","","","","","","","","","","","","","perceptual","","","2","14","","","","","85","phone","6","0","1",""
"","","","","","","","","","","","canvas-button-response","263","359560","0.0-263.0","867","6","","","","","","","","","","","","","","confidence","","","2","14","","","","","","","","","","7"
"","","","","","","","","","","","preload","264","359561","0.0-264.0","","","","","true","","","","","","","","","","","preload","","","2","15","false","[]","[]","[]","","","","","",""
"","","","","","","","","","","","canvas-keyboard-response","265","359863","0.0-265.0","null","null","","","","","","","","","","","","","","fixation","","","2","15","","","","","","","","","",""
"","","","","","","","","","","","canvas-keyboard-response","266","360166","0.0-266.0","null","null","","","","","","","","","","","","","","stimulus","","","2","15","","","","","","","","","",""
"","","","","","","","","","","","canvas-button-response","267","361312","0.0-267.0","1144","house","","","","","","","","","","","","","","perceptual","","","2","15","","","","","3","house","6","0","1",""
"","","","","","","","","","","","canvas-button-response","268","362053","0.0-268.0","739","8","","","","","","","","","","","","","","confidence","","","2","15","","","","","","","","","","8"
"","","","","","","","","","","","preload","269","362054","0.0-269.0","","","","","true","","","","","","","","","","","preload","","","2","16","false","[]","[]","[]","","","","","",""
"","","","","","","","","","","","canvas-keyboard-response","270","362357","0.0-270.0","null","null","","","","","","","","","","","","","","fixation","","","2","16","","","","","","","","","",""
"","","","","","","","","","","","canvas-keyboard-response","271","362660","0.0-271.0","null","null","","","","","","","","","","","","","","stimulus","","","2","16","","","","","","","","","",""
"","","","","","","","","","","","canvas-button-response","272","364779","0.0-272.0","2118","car","","","","","","","","","","","","","","perceptual","","","2","16","","","","","67","car","10","0","1",""
"","","","","","","","","","","","canvas-button-response","273","365390","0.0-273.0","608","7","","","","","","","","","","","","","","confidence","","","2","16","","","","","","","","","","9"
"","","","","","","","","","","","preload","274","365391","0.0-274.0","","","","","true","","","","","","","","","","","preload","","","2","17","false","[]","[]","[]","","","","","",""
"","","","","","","","","","","","canvas-keyboard-response","275","365694","0.0-275.0","null","null","","","","","","","","","","","","","","fixation","","","2","17","","","","","","","","","",""
"","","","","","","","","","","","canvas-keyboard-response","276","365996","0.0-276.0","null","null","","","","","","","","","","","","","","stimulus","","","2","17","","","","","","","","","",""
"","","","","","","","","","","","canvas-button-response","277","369357","0.0-277.0","3358","car","","","","","","","","","","","","","","perceptual","","","2","17","","","","","249","train","6","0","0",""
"","","","","","","","","","","","canvas-button-response","278","370233","0.0-278.0","875","1","","","","","","","","","","","","","","confidence","","","2","17","","","","","","","","","","9"
"","","","","","","","","","","","preload","279","370234","0.0-279.0","","","","","true","","","","","","","","","","","preload","","","2","18","false","[]","[]","[]","","","","","",""
"","","","","","","","","","","","canvas-keyboard-response","280","370536","0.0-280.0","null","null","","","","","","","","","","","","","","fixation","","","2","18","","","","","","","","","",""
"","","","","","","","","","","","canvas-keyboard-response","281","370838","0.0-281.0","null","null","","","","","","","","","","","","","","stimulus","","","2","18","","","","","","","","","",""
"","","","","","","","","","","","canvas-button-response","282","373017","0.0-282.0","2177","knife","","","","","","","","","","","","","","perceptual","","","2","18","","","","","90","phone","6","0","0",""
"","","","","","","","","","","","canvas-button-response","283","373529","0.0-283.0","510","6","","","","","","","","","","","","","","confidence","","","2","18","","","","","","","","","","9"
"","","","","","","","","","","","preload","284","373530","0.0-284.0","","","","","true","","","","","","","","","","","preload","","","2","19","false","[]","[]","[]","","","","","",""
"","","","","","","","","","","","canvas-keyboard-response","285","373833","0.0-285.0","null","null","","","","","","","","","","","","","","fixation","","","2","19","","","","","","","","","",""
"","","","","","","","","","","","canvas-keyboard-response","286","374135","0.0-286.0","null","null","","","","","","","","","","","","","","stimulus","","","2","19","","","","","","","","","",""
"","","","","","","","","","","","canvas-button-response","287","380283","0.0-287.0","6145","cat","","","","","","","","","","","","","","perceptual","","","2","19","","","","","286","cat","6","0","1",""
"","","","","","","","","","","","canvas-button-response","288","381602","0.0-288.0","1316","1","","","","","","","","","","","","","","confidence","","","2","19","","","","","","","","","","10"
"","","","","","","","","","","","preload","289","381603","0.0-289.0","","","","","true","","","","","","","","","","","preload","","","2","20","false","[]","[]","[]","","","","","",""
"","","","","","","","","","","","canvas-keyboard-response","290","381905","0.0-290.0","null","null","","","","","","","","","","","","","","fixation","","","2","20","","","","","","","","","",""
"","","","","","","","","","","","canvas-keyboard-response","291","382207","0.0-291.0","null","null","","","","","","","","","","","","","","stimulus","","","2","20","","","","","","","","","",""
"","","","","","","","","","","","canvas-button-response","292","383238","0.0-292.0","1029","knife","","","","","","","","","","","","","","perceptual","","","2","20","","","","","399","knife","10","0","1",""
"","","","","","","","","","","","canvas-button-response","293","383900","0.0-293.0","661","4","","","","","","","","","","","","","","confidence","","","2","20","","","","","","","","","","11"
"","","","","","","","","","","","preload","294","383901","0.0-294.0","","","","","true","","","","","","","","","","","preload","","","2","21","false","[]","[]","[]","","","","","",""
"","","","","","","","","","","","canvas-keyboard-response","295","384203","0.0-295.0","null","null","","","","","","","","","","","","","","fixation","","","2","21","","","","","","","","","",""
"","","","","","","","","","","","canvas-keyboard-response","296","384505","0.0-296.0","null","null","","","","","","","","","","","","","","stimulus","","","2","21","","","","","","","","","",""
"","","","","","","","","","","","canvas-button-response","297","385442","0.0-297.0","935","train","","","","","","","","","","","","","","perceptual","","","2","21","","","","","246","train","6","0","1",""
"","","","","","","","","","","","canvas-button-response","298","385881","0.0-298.0","436","8","","","","","","","","","","","","","","confidence","","","2","21","","","","","","","","","","12"
"","","","","","","","","","","","preload","299","385881","0.0-299.0","","","","","true","","","","","","","","","","","preload","","","2","22","false","[]","[]","[]","","","","","",""
"","","","","","","","","","","","canvas-keyboard-response","300","386184","0.0-300.0","null","null","","","","","","","","","","","","","","fixation","","","2","22","","","","","","","","","",""
"","","","","","","","","","","","canvas-keyboard-response","301","386486","0.0-301.0","null","null","","","","","","","","","","","","","","stimulus","","","2","22","","","","","","","","","",""
"","","","","","","","","","","","canvas-button-response","302","387559","0.0-302.0","1071","elephant","","","","","","","","","","","","","","perceptual","","","2","22","","","","","349","elephant","10","0","1",""
"","","","","","","","","","","","canvas-button-response","303","388217","0.0-303.0","655","9","","","","","","","","","","","","","","confidence","","","2","22","","","","","","","","","","13"
"","","","","","","","","","","","preload","304","388218","0.0-304.0","","","","","true","","","","","","","","","","","preload","","","2","23","false","[]","[]","[]","","","","","",""
"","","","","","","","","","","","canvas-keyboard-response","305","388520","0.0-305.0","null","null","","","","","","","","","","","","","","fixation","","","2","23","","","","","","","","","",""
"","","","","","","","","","","","canvas-keyboard-response","306","388822","0.0-306.0","null","null","","","","","","","","","","","","","","stimulus","","","2","23","","","","","","","","","",""
"","","","","","","","","","","","canvas-button-response","307","389589","0.0-307.0","764","cat","","","","","","","","","","","","","","perceptual","","","2","23","","","","","306","cat","10","0","1",""
"","","","","","","","","","","","canvas-button-response","308","390205","0.0-308.0","614","9","","","","","","","","","","","","","","confidence","","","2","23","","","","","","","","","","14"
"","","","","","","","","","","","preload","309","390206","0.0-309.0","","","","","true","","","","","","","","","","","preload","","","2","24","false","[]","[]","[]","","","","","",""
"","","","","","","","","","","","canvas-keyboard-response","310","390509","0.0-310.0","null","null","","","","","","","","","","","","","","fixation","","","2","24","","","","","","","","","",""
"","","","","","","","","","","","canvas-keyboard-response","311","390811","0.0-311.0","null","null","","","","","","","","","","","","","","stimulus","","","2","24","","","","","","","","","",""
"","","","","","","","","","","","canvas-button-response","312","391617","0.0-312.0","804","phone","","","","","","","","","","","","","","perceptual","","","2","24","","","","","98","phone","6","0","1",""
"","","","","","","","","","","","canvas-button-response","313","392502","0.0-313.0","883","10","","","","","","","","","","","","","","confidence","","","2","24","","","","","","","","","","15"
"","","","","","","","","","","","preload","314","392503","0.0-314.0","","","","","true","","","","","","","","","","","preload","","","2","25","false","[]","[]","[]","","","","","",""
"","","","","","","","","","","","canvas-keyboard-response","315","392805","0.0-315.0","null","null","","","","","","","","","","","","","","fixation","","","2","25","","","","","","","","","",""
"","","","","","","","","","","","canvas-keyboard-response","316","393108","0.0-316.0","null","null","","","","","","","","","","","","","","stimulus","","","2","25","","","","","","","","","",""
"","","","","","","","","","","","canvas-button-response","317","394141","0.0-317.0","1031","car","","","","","","","","","","","","","","perceptual","","","2","25","","","","","45","car","6","0","1",""
"","","","","","","","","","","","canvas-button-response","318","395018","0.0-318.0","875","10","","","","","","","","","","","","","","confidence","","","2","25","","","","","","","","","","16"
"","","","","","","","","","","","preload","319","395019","0.0-319.0","","","","","true","","","","","","","","","","","preload","","","2","26","false","[]","[]","[]","","","","","",""
"","","","","","","","","","","","canvas-keyboard-response","320","395321","0.0-320.0","null","null","","","","","","","","","","","","","","fixation","","","2","26","","","","","","","","","",""
"","","","","","","","","","","","canvas-keyboard-response","321","395623","0.0-321.0","null","null","","","","","","","","","","","","","","stimulus","","","2","26","","","","","","","","","",""
"","","","","","","","","","","","canvas-button-response","322","396965","0.0-322.0","1340","car","","","","","","","","","","","","","","perceptual","","","2","26","","","","","65","car","10","0","1",""
"","","","","","","","","","","","canvas-button-response","323","398011","0.0-323.0","1044","4","","","","","","","","","","","","","","confidence","","","2","26","","","","","","","","","","17"
"","","","","","","","","","","","preload","324","398012","0.0-324.0","","","","","true","","","","","","","","","","","preload","","","2","27","false","[]","[]","[]","","","","","",""
"","","","","","","","","","","","canvas-keyboard-response","325","398313","0.0-325.0","null","null","","","","","","","","","","","","","","fixation","","","2","27","","","","","","","","","",""
"","","","","","","","","","","","canvas-keyboard-response","326","398617","0.0-326.0","null","null","","","","","","","","","","","","","","stimulus","","","2","27","","","","","","","","","",""
"","","","","","","","","","","","canvas-button-response","327","399335","0.0-327.0","716","phone","","","","","","","","","","","","","","perceptual","","","2","27","","","","","96","phone","6","0","1",""
"","","","","","","","","","","","canvas-button-response","328","399944","0.0-328.0","606","5","","","","","","","","","","","","","","confidence","","","2","27","","","","","","","","","","18"
"","","","","","","","","","","","preload","329","399945","0.0-329.0","","","","","true","","","","","","","","","","","preload","","","2","28","false","[]","[]","[]","","","","","",""
"","","","","","","","","","","","canvas-keyboard-response","330","400248","0.0-330.0","null","null","","","","","","","","","","","","","","fixation","","","2","28","","","","","","","","","",""
"","","","","","","","","","","","canvas-keyboard-response","331","400551","0.0-331.0","null","null","","","","","","","","","","","","","","stimulus","","","2","28","","","","","","","","","",""
"","","","","","","","","","","","canvas-button-response","332","401551","0.0-332.0","997","knife","","","","","","","","","","","","","","perceptual","","","2","28","","","","","372","knife","6","0","1",""
"","","","","","","","","","","","canvas-button-response","333","402444","0.0-333.0","891","5","","","","","","","","","","","","","","confidence","","","2","28","","","","","","","","","","19"
"","","","","","","","","","","","preload","334","402445","0.0-334.0","","","","","true","","","","","","","","","","","preload","","","2","29","false","[]","[]","[]","","","","","",""
"","","","","","","","","","","","canvas-keyboard-response","335","402747","0.0-335.0","null","null","","","","","","","","","","","","","","fixation","","","2","29","","","","","","","","","",""
"","","","","","","","","","","","canvas-keyboard-response","336","403050","0.0-336.0","null","null","","","","","","","","","","","","","","stimulus","","","2","29","","","","","","","","","",""
"","","","","","","","","","","","canvas-button-response","337","404050","0.0-337.0","998","house","","","","","","","","","","","","","","perceptual","","","2","29","","","","","111","phone","10","0","0",""
"","","","","","","","","","","","canvas-button-response","338","405007","0.0-338.0","955","1","","","","","","","","","","","","","","confidence","","","2","29","","","","","","","","","","19"
"","","","","","","","","","","","preload","339","405008","0.0-339.0","","","","","true","","","","","","","","","","","preload","","","2","30","false","[]","[]","[]","","","","","",""
"","","","","","","","","","","","canvas-keyboard-response","340","405310","0.0-340.0","null","null","","","","","","","","","","","","","","fixation","","","2","30","","","","","","","","","",""
"","","","","","","","","","","","canvas-keyboard-response","341","405612","0.0-341.0","null","null","","","","","","","","","","","","","","stimulus","","","2","30","","","","","","","","","",""
"","","","","","","","","","","","canvas-button-response","342","406550","0.0-342.0","937","knife","","","","","","","","","","","","","","perceptual","","","2","30","","","","","376","knife","6","0","1",""
"","","","","","","","","","","","canvas-button-response","343","407767","0.0-343.0","1215","4","","","","","","","","","","","","","","confidence","","","2","30","","","","","","","","","","20"
"","","","","","","","","","","","preload","344","407768","0.0-344.0","","","","","true","","","","","","","","","","","preload","","","2","31","false","[]","[]","[]","","","","","",""
"","","","","","","","","","","","canvas-keyboard-response","345","408069","0.0-345.0","null","null","","","","","","","","","","","","","","fixation","","","2","31","","","","","","","","","",""
"","","","","","","","","","","","canvas-keyboard-response","346","408371","0.0-346.0","null","null","","","","","","","","","","","","","","stimulus","","","2","31","","","","","","","","","",""
"","","","","","","","","","","","canvas-button-response","347","409587","0.0-347.0","1213","train","","","","","","","","","","","","","","perceptual","","","2","31","","","","","178","bridge","6","0","0",""
"","","","","","","","","","","","canvas-button-response","348","410464","0.0-348.0","874","5","","","","","","","","","","","","","","confidence","","","2","31","","","","","","","","","","20"
"","","","","","","","","","","","preload","349","410465","0.0-349.0","","","","","true","","","","","","","","","","","preload","","","2","32","false","[]","[]","[]","","","","","",""
"","","","","","","","","","","","canvas-keyboard-response","350","410767","0.0-350.0","null","null","","","","","","","","","","","","","","fixation","","","2","32","","","","","","","","","",""
"","","","","","","","","","","","canvas-keyboard-response","351","411070","0.0-351.0","null","null","","","","","","","","","","","","","","stimulus","","","2","32","","","","","","","","","",""
"","","","","","","","","","","","canvas-button-response","352","412547","0.0-352.0","1475","car","","","","","","","","","","","","","","perceptual","","","2","32","","","","","74","car","10","0","1",""
"","","","","","","","","","","","canvas-button-response","353","413790","0.0-353.0","1241","7","","","","","","","","","","","","","","confidence","","","2","32","","","","","","","","","","21"
"","","","","","","","","","","","preload","354","413791","0.0-354.0","","","","","true","","","","","","","","","","","preload","","","2","33","false","[]","[]","[]","","","","","",""
"","","","","","","","","","","","canvas-keyboard-response","355","414094","0.0-355.0","null","null","","","","","","","","","","","","","","fixation","","","2","33","","","","","","","","","",""
"","","","","","","","","","","","canvas-keyboard-response","356","414397","0.0-356.0","null","null","","","","","","","","","","","","","","stimulus","","","2","33","","","","","","","","","",""
"","","","","","","","","","","","canvas-button-response","357","416372","0.0-357.0","1972","knife","","","","","","","","","","","","","","perceptual","","","2","33","","","","","319","cat","10","0","0",""
"","","","","","","","","","","","canvas-button-response","358","417076","0.0-358.0","702","4","","","","","","","","","","","","","","confidence","","","2","33","","","","","","","","","","21"
"","","","","","","","","","","","preload","359","417078","0.0-359.0","","","","","true","","","","","","","","","","","preload","","","2","34","false","[]","[]","[]","","","","","",""
"","","","","","","","","","","","canvas-keyboard-response","360","417380","0.0-360.0","null","null","","","","","","","","","","","","","","fixation","","","2","34","","","","","","","","","",""
"","","","","","","","","","","","canvas-keyboard-response","361","417683","0.0-361.0","null","null","","","","","","","","","","","","","","stimulus","","","2","34","","","","","","","","","",""
"","","","","","","","","","","","canvas-button-response","362","420095","0.0-362.0","2409","phone","","","","","","","","","","","","","","perceptual","","","2","34","","","","","100","phone","10","0","1",""
"","","","","","","","","","","","canvas-button-response","363","420908","0.0-363.0","810","3","","","","","","","","","","","","","","confidence","","","2","34","","","","","","","","","","22"
"","","","","","","","","","","","preload","364","420909","0.0-364.0","","","","","true","","","","","","","","","","","preload","","","2","35","false","[]","[]","[]","","","","","",""
"","","","","","","","","","","","canvas-keyboard-response","365","421212","0.0-365.0","null","null","","","","","","","","","","","","","","fixation","","","2","35","","","","","","","","","",""
"","","","","","","","","","","","canvas-keyboard-response","366","421515","0.0-366.0","null","null","","","","","","","","","","","","","","stimulus","","","2","35","","","","","","","","","",""
"","","","","","","","","","","","canvas-button-response","367","422417","0.0-367.0","900","knife","","","","","","","","","","","","","","perceptual","","","2","35","","","","","143","bed","10","0","0",""
"","","","","","","","","","","","canvas-button-response","368","422946","0.0-368.0","528","2","","","","","","","","","","","","","","confidence","","","2","35","","","","","","","","","","22"
"","","","","","","","","","","","preload","369","422947","0.0-369.0","","","","","true","","","","","","","","","","","preload","","","2","36","false","[]","[]","[]","","","","","",""
"","","","","","","","","","","","canvas-keyboard-response","370","423249","0.0-370.0","null","null","","","","","","","","","","","","","","fixation","","","2","36","","","","","","","","","",""
"","","","","","","","","","","","canvas-keyboard-response","371","423552","0.0-371.0","null","null","","","","","","","","","","","","","","stimulus","","","2","36","","","","","","","","","",""
"","","","","","","","","","","","canvas-button-response","372","424520","0.0-372.0","966","car","","","","","","","","","","","","","","perceptual","","","2","36","","","","","46","car","6","0","1",""
"","","","","","","","","","","","canvas-button-response","373","425153","0.0-373.0","631","10","","","","","","","","","","","","","","confidence","","","2","36","","","","","","","","","","23"
"","","","","","","","","","","","preload","374","425154","0.0-374.0","","","","","true","","","","","","","","","","","preload","","","2","37","false","[]","[]","[]","","","","","",""
"","","","","","","","","","","","canvas-keyboard-response","375","425456","0.0-375.0","null","null","","","","","","","","","","","","","","fixation","","","2","37","","","","","","","","","",""
"","","","","","","","","","","","canvas-keyboard-response","376","425759","0.0-376.0","null","null","","","","","","","","","","","","","","stimulus","","","2","37","","","","","","","","","",""
"","","","","","","","","","","","canvas-button-response","377","428547","0.0-377.0","2786","train","","","","","","","","","","","","","","perceptual","","","2","37","","","","","277","train","10","0","1",""
"","","","","","","","","","","","canvas-button-response","378","429660","0.0-378.0","1111","3","","","","","","","","","","","","","","confidence","","","2","37","","","","","","","","","","24"
"","","","","","","","","","","","preload","379","429661","0.0-379.0","","","","","true","","","","","","","","","","","preload","","","2","38","false","[]","[]","[]","","","","","",""
"","","","","","","","","","","","canvas-keyboard-response","380","429962","0.0-380.0","null","null","","","","","","","","","","","","","","fixation","","","2","38","","","","","","","","","",""
"","","","","","","","","","","","canvas-keyboard-response","381","430265","0.0-381.0","null","null","","","","","","","","","","","","","","stimulus","","","2","38","","","","","","","","","",""
"","","","","","","","","","","","canvas-button-response","382","432298","0.0-382.0","2031","train","","","","","","","","","","","","","","perceptual","","","2","38","","","","","355","elephant","10","0","0",""
"","","","","","","","","","","","canvas-button-response","383","433345","0.0-383.0","1045","1","","","","","","","","","","","","","","confidence","","","2","38","","","","","","","","","","24"
"","","","","","","","","","","","preload","384","433346","0.0-384.0","","","","","true","","","","","","","","","","","preload","","","2","39","false","[]","[]","[]","","","","","",""
"","","","","","","","","","","","canvas-keyboard-response","385","433649","0.0-385.0","null","null","","","","","","","","","","","","","","fixation","","","2","39","","","","","","","","","",""
"","","","","","","","","","","","canvas-keyboard-response","386","433951","0.0-386.0","null","null","","","","","","","","","","","","","","stimulus","","","2","39","","","","","","","","","",""
"","","","","","","","","","","","canvas-button-response","387","434958","0.0-387.0","1006","elephant","","","","","","","","","","","","","","perceptual","","","2","39","","","","","324","elephant","6","0","1",""
"","","","","","","","","","","","canvas-button-response","388","436201","0.0-388.0","1241","7","","","","","","","","","","","","","","confidence","","","2","39","","","","","","","","","","25"
"","","","","","","","","","","","preload","389","436203","0.0-389.0","","","","","true","","","","","","","","","","","preload","","","2","40","false","[]","[]","[]","","","","","",""
"","","","","","","","","","","","canvas-keyboard-response","390","436505","0.0-390.0","null","null","","","","","","","","","","","","","","fixation","","","2","40","","","","","","","","","",""
"","","","","","","","","","","","canvas-keyboard-response","391","436807","0.0-391.0","null","null","","","","","","","","","","","","","","stimulus","","","2","40","","","","","","","","","",""
"","","","","","","","","","","","canvas-button-response","392","437849","0.0-392.0","1040","knife","","","","","","","","","","","","","","perceptual","","","2","40","","","","","321","elephant","6","0","0",""
"","","","","","","","","","","","canvas-button-response","393","438903","0.0-393.0","1053","1","","","","","","","","","","","","","","confidence","","","2","40","","","","","","","","","","25"
"","","","","","","","","","","","preload","394","438903","0.0-394.0","","","","","true","","","","","","","","","","","preload","","","2","41","false","[]","[]","[]","","","","","",""
"","","","","","","","","","","","canvas-keyboard-response","395","439205","0.0-395.0","null","null","","","","","","","","","","","","","","fixation","","","2","41","","","","","","","","","",""
"","","","","","","","","","","","canvas-keyboard-response","396","439507","0.0-396.0","null","null","","","","","","","","","","","","","","stimulus","","","2","41","","","","","","","","","",""
"","","","","","","","","","","","canvas-button-response","397","440430","0.0-397.0","920","cat","","","","","","","","","","","","","","perceptual","","","2","41","","","","","92","phone","6","0","0",""
"","","","","","","","","","","","canvas-button-response","398","440667","0.0-398.0","235","6","","","","","","","","","","","","","","confidence","","","2","41","","","","","","","","","","25"
"","","","","","","","","","","","preload","399","440668","0.0-399.0","","","","","true","","","","","","","","","","","preload","","","2","42","false","[]","[]","[]","","","","","",""
"","","","","","","","","","","","canvas-keyboard-response","400","440969","0.0-400.0","null","null","","","","","","","","","","","","","","fixation","","","2","42","","","","","","","","","",""
"","","","","","","","","","","","canvas-keyboard-response","401","441271","0.0-401.0","null","null","","","","","","","","","","","","","","stimulus","","","2","42","","","","","","","","","",""
"","","","","","","","","","","","canvas-button-response","402","442897","0.0-402.0","1624","car","","","","","","","","","","","","","","perceptual","","","2","42","","","","","266","train","10","0","0",""
"","","","","","","","","","","","canvas-button-response","403","443556","0.0-403.0","657","2","","","","","","","","","","","","","","confidence","","","2","42","","","","","","","","","","25"
"","","","","","","","","","","","preload","404","443557","0.0-404.0","","","","","true","","","","","","","","","","","preload","","","2","43","false","[]","[]","[]","","","","","",""
"","","","","","","","","","","","canvas-keyboard-response","405","443860","0.0-405.0","null","null","","","","","","","","","","","","","","fixation","","","2","43","","","","","","","","","",""
"","","","","","","","","","","","canvas-keyboard-response","406","444162","0.0-406.0","null","null","","","","","","","","","","","","","","stimulus","","","2","43","","","","","","","","","",""
"","","","","","","","","","","","canvas-button-response","407","445276","0.0-407.0","1110","knife","","","","","","","","","","","","","","perceptual","","","2","43","","","","","218","flower","6","0","0",""
"","","","","","","","","","","","canvas-button-response","408","445964","0.0-408.0","686","1","","","","","","","","","","","","","","confidence","","","2","43","","","","","","","","","","25"
"","","","","","","","","","","","preload","409","445964","0.0-409.0","","","","","true","","","","","","","","","","","preload","","","2","44","false","[]","[]","[]","","","","","",""
"","","","","","","","","","","","canvas-keyboard-response","410","446266","0.0-410.0","null","null","","","","","","","","","","","","","","fixation","","","2","44","","","","","","","","","",""
"","","","","","","","","","","","canvas-keyboard-response","411","446569","0.0-411.0","null","null","","","","","","","","","","","","","","stimulus","","","2","44","","","","","","","","","",""
"","","","","","","","","","","","canvas-button-response","412","447548","0.0-412.0","977","train","","","","","","","","","","","","","","perceptual","","","2","44","","","","","255","train","6","0","1",""
"","","","","","","","","","","","canvas-button-response","413","448076","0.0-413.0","526","10","","","","","","","","","","","","","","confidence","","","2","44","","","","","","","","","","26"
"","","","","","","","","","","","preload","414","448077","0.0-414.0","","","","","true","","","","","","","","","","","preload","","","2","45","false","[]","[]","[]","","","","","",""
"","","","","","","","","","","","canvas-keyboard-response","415","448379","0.0-415.0","null","null","","","","","","","","","","","","","","fixation","","","2","45","","","","","","","","","",""
"","","","","","","","","","","","canvas-keyboard-response","416","448682","0.0-416.0","null","null","","","","","","","","","","","","","","stimulus","","","2","45","","","","","","","","","",""
"","","","","","","","","","","","canvas-button-response","417","450300","0.0-417.0","1615","train","","","","","","","","","","","","","","perceptual","","","2","45","","","","","77","car","10","0","0",""
"","","","","","","","","","","","canvas-button-response","418","451274","0.0-418.0","972","2","","","","","","","","","","","","","","confidence","","","2","45","","","","","","","","","","26"
"","","","","","","","","","","","preload","419","451275","0.0-419.0","","","","","true","","","","","","","","","","","preload","","","2","46","false","[]","[]","[]","","","","","",""
"","","","","","","","","","","","canvas-keyboard-response","420","451577","0.0-420.0","null","null","","","","","","","","","","","","","","fixation","","","2","46","","","","","","","","","",""
"","","","","","","","","","","","canvas-keyboard-response","421","451880","0.0-421.0","null","null","","","","","","","","","","","","","","stimulus","","","2","46","","","","","","","","","",""
"","","","","","","","","","","","canvas-button-response","422","453399","0.0-422.0","1518","phone","","","","","","","","","","","","","","perceptual","","","2","46","","","","","144","bed","10","0","0",""
"","","","","","","","","","","","canvas-button-response","423","454195","0.0-423.0","794","4","","","","","","","","","","","","","","confidence","","","2","46","","","","","","","","","","26"
"","","","","","","","","","","","preload","424","454196","0.0-424.0","","","","","true","","","","","","","","","","","preload","","","2","47","false","[]","[]","[]","","","","","",""
"","","","","","","","","","","","canvas-keyboard-response","425","454499","0.0-425.0","null","null","","","","","","","","","","","","","","fixation","","","2","47","","","","","","","","","",""
"","","","","","","","","","","","canvas-keyboard-response","426","454802","0.0-426.0","null","null","","","","","","","","","","","","","","stimulus","","","2","47","","","","","","","","","",""
"","","","","","","","","","","","canvas-button-response","427","455745","0.0-427.0","941","train","","","","","","","","","","","","","","perceptual","","","2","47","","","","","274","train","10","0","1",""
"","","","","","","","","","","","canvas-button-response","428","456216","0.0-428.0","469","9","","","","","","","","","","","","","","confidence","","","2","47","","","","","","","","","","27"
"","","","","","","","","","","","preload","429","456217","0.0-429.0","","","","","true","","","","","","","","","","","preload","","","2","48","false","[]","[]","[]","","","","","",""
"","","","","","","","","","","","canvas-keyboard-response","430","456520","0.0-430.0","null","null","","","","","","","","","","","","","","fixation","","","2","48","","","","","","","","","",""
"","","","","","","","","","","","canvas-keyboard-response","431","456822","0.0-431.0","null","null","","","","","","","","","","","","","","stimulus","","","2","48","","","","","","","","","",""
"","","","","","","","","","","","canvas-button-response","432","457798","0.0-432.0","974","bridge","","","","","","","","","","","","","","perceptual","","","2","48","","","","","163","bridge","6","0","1",""
"","","","","","","","","","","","canvas-button-response","433","459233","0.0-433.0","1434","8","","","","","","","","","","","","","","confidence","","","2","48","","","","","","","","","","28"
"","","","","","","","","","","","preload","434","459234","0.0-434.0","","","","","true","","","","","","","","","","","preload","","","2","49","false","[]","[]","[]","","","","","",""
"","","","","","","","","","","","canvas-keyboard-response","435","459537","0.0-435.0","null","null","","","","","","","","","","","","","","fixation","","","2","49","","","","","","","","","",""
"","","","","","","","","","","","canvas-keyboard-response","436","459839","0.0-436.0","null","null","","","","","","","","","","","","","","stimulus","","","2","49","","","","","","","","","",""
"","","","","","","","","","","","canvas-button-response","437","461330","0.0-437.0","1489","house","","","","","","","","","","","","","","perceptual","","","2","49","","","","","318","cat","10","0","0",""
"","","","","","","","","","","","canvas-button-response","438","461889","0.0-438.0","556","2","","","","","","","","","","","","","","confidence","","","2","49","","","","","","","","","","28"
"","","","","","","","","","","","html-button-response","439","635854","0.0-439.0","173961","0","","","","","","","","","","","","","","<p style=""font-size:20px;color:#000000"">You got 28 out of 50 trials correct in this block.<br><br>You have completed 6% of the experiment.<br><br>Take a short break.<br><br>When you are ready, click Continue to proceed.","","","2","49","","","","","","","","","",""
"","","","","","","","","","","","html-keyboard-response","440","636859","0.0-440.0","null","null","","","","","","","","","","","","","","<p style=""font-size:32px;color:#000000""><br><br> RUN: &nbsp 1/4 <br><br> BLOCK: 2/4 ","","","2","49","","","","","","","","","",""
"","","","","","","","","","","","preload","441","636861","0.0-441.0","","","","","true","","","","","","","","","","","preload","","","2","50","false","[]","[]","[]","","","","","",""
"","","","","","","","","","","","canvas-keyboard-response","442","637165","0.0-442.0","null","null","","","","","","","","","","","","","","fixation","","","2","50","","","","","","","","","",""
"","","","","","","","","","","","canvas-keyboard-response","443","637468","0.0-443.0","null","null","","","","","","","","","","","","","","stimulus","","","2","50","","","","","","","","","",""
"","","","","","","","","","","","canvas-button-response","444","638984","0.0-444.0","1512","train","","","","","","","","","","","","","","perceptual","","","2","50","","","","","273","train","10","0","1",""
"","","","","","","","","","","","canvas-button-response","445","639592","0.0-445.0","606","5","","","","","","","","","","","","","","confidence","","","2","50","","","","","","","","","","1"
"","","","","","","","","","","","preload","446","639594","0.0-446.0","","","","","true","","","","","","","","","","","preload","","","2","51","false","[]","[]","[]","","","","","",""
"","","","","","","","","","","","canvas-keyboard-response","447","639897","0.0-447.0","null","null","","","","","","","","","","","","","","fixation","","","2","51","","","","","","","","","",""
"","","","","","","","","","","","canvas-keyboard-response","448","640199","0.0-448.0","null","null","","","","","","","","","","","","","","stimulus","","","2","51","","","","","","","","","",""
"","","","","","","","","","","","canvas-button-response","449","641126","0.0-449.0","925","knife","","","","","","","","","","","","","","perceptual","","","2","51","","","","","386","knife","10","0","1",""
"","","","","","","","","","","","canvas-button-response","450","642197","0.0-450.0","1069","1","","","","","","","","","","","","","","confidence","","","2","51","","","","","","","","","","2"
"","","","","","","","","","","","preload","451","642198","0.0-451.0","","","","","true","","","","","","","","","","","preload","","","2","52","false","[]","[]","[]","","","","","",""
"","","","","","","","","","","","canvas-keyboard-response","452","642501","0.0-452.0","null","null","","","","","","","","","","","","","","fixation","","","2","52","","","","","","","","","",""
"","","","","","","","","","","","canvas-keyboard-response","453","642803","0.0-453.0","null","null","","","","","","","","","","","","","","stimulus","","","2","52","","","","","","","","","",""
"","","","","","","","","","","","canvas-button-response","454","643992","0.0-454.0","1186","knife","","","","","","","","","","","","","","perceptual","","","2","52","","","","","134","bed","6","0","0",""
"","","","","","","","","","","","canvas-button-response","455","644601","0.0-455.0","607","1","","","","","","","","","","","","","","confidence","","","2","52","","","","","","","","","","2"
"","","","","","","","","","","","preload","456","644602","0.0-456.0","","","","","true","","","","","","","","","","","preload","","","2","53","false","[]","[]","[]","","","","","",""
"","","","","","","","","","","","canvas-keyboard-response","457","644904","0.0-457.0","null","null","","","","","","","","","","","","","","fixation","","","2","53","","","","","","","","","",""
"","","","","","","","","","","","canvas-keyboard-response","458","645207","0.0-458.0","null","null","","","","","","","","","","","","","","stimulus","","","2","53","","","","","","","","","",""
"","","","","","","","","","","","canvas-button-response","459","646174","0.0-459.0","965","train","","","","","","","","","","","","","","perceptual","","","2","53","","","","","242","train","6","0","1",""
"","","","","","","","","","","","canvas-button-response","460","647270","0.0-460.0","1094","3","","","","","","","","","","","","","","confidence","","","2","53","","","","","","","","","","3"
"","","","","","","","","","","","preload","461","647271","0.0-461.0","","","","","true","","","","","","","","","","","preload","","","2","54","false","[]","[]","[]","","","","","",""
"","","","","","","","","","","","canvas-keyboard-response","462","647573","0.0-462.0","null","null","","","","","","","","","","","","","","fixation","","","2","54","","","","","","","","","",""
"","","","","","","","","","","","canvas-keyboard-response","463","647875","0.0-463.0","null","null","","","","","","","","","","","","","","stimulus","","","2","54","","","","","","","","","",""
"","","","","","","","","","","","canvas-button-response","464","649330","0.0-464.0","1453","train","","","","","","","","","","","","","","perceptual","","","2","54","","","","","278","train","10","0","1",""
"","","","","","","","","","","","canvas-button-response","465","650362","0.0-465.0","1031","2","","","","","","","","","","","","","","confidence","","","2","54","","","","","","","","","","4"
"","","","","","","","","","","","preload","466","650364","0.0-466.0","","","","","true","","","","","","","","","","","preload","","","2","55","false","[]","[]","[]","","","","","",""
"","","","","","","","","","","","canvas-keyboard-response","467","650666","0.0-467.0","null","null","","","","","","","","","","","","","","fixation","","","2","55","","","","","","","","","",""
"","","","","","","","","","","","canvas-keyboard-response","468","650969","0.0-468.0","null","null","","","","","","","","","","","","","","stimulus","","","2","55","","","","","","","","","",""
"","","","","","","","","","","","canvas-button-response","469","652480","0.0-469.0","1509","flower","","","","","","","","","","","","","","perceptual","","","2","55","","","","","211","flower","6","0","1",""
"","","","","","","","","","","","canvas-button-response","470","653356","0.0-470.0","874","8","","","","","","","","","","","","","","confidence","","","2","55","","","","","","","","","","5"
"","","","","","","","","","","","preload","471","653357","0.0-471.0","","","","","true","","","","","","","","","","","preload","","","2","56","false","[]","[]","[]","","","","","",""
"","","","","","","","","","","","canvas-keyboard-response","472","653660","0.0-472.0","null","null","","","","","","","","","","","","","","fixation","","","2","56","","","","","","","","","",""
"","","","","","","","","","","","canvas-keyboard-response","473","653963","0.0-473.0","null","null","","","","","","","","","","","","","","stimulus","","","2","56","","","","","","","","","",""
"","","","","","","","","","","","canvas-button-response","474","655133","0.0-474.0","1168","cat","","","","","","","","","","","","","","perceptual","","","2","56","","","","","332","elephant","6","0","0",""
"","","","","","","","","","","","canvas-button-response","475","655919","0.0-475.0","785","3","","","","","","","","","","","","","","confidence","","","2","56","","","","","","","","","","5"
"","","","","","","","","","","","preload","476","655920","0.0-476.0","","","","","true","","","","","","","","","","","preload","","","2","57","false","[]","[]","[]","","","","","",""
"","","","","","","","","","","","canvas-keyboard-response","477","656222","0.0-477.0","null","null","","","","","","","","","","","","","","fixation","","","2","57","","","","","","","","","",""
"","","","","","","","","","","","canvas-keyboard-response","478","656525","0.0-478.0","null","null","","","","","","","","","","","","","","stimulus","","","2","57","","","","","","","","","",""
"","","","","","","","","","","","canvas-button-response","479","657163","0.0-479.0","636","cat","","","","","","","","","","","","","","perceptual","","","2","57","","","","","298","cat","6","0","1",""
"","","","","","","","","","","","canvas-button-response","480","657869","0.0-480.0","704","9","","","","","","","","","","","","","","confidence","","","2","57","","","","","","","","","","6"
"","","","","","","","","","","","preload","481","657870","0.0-481.0","","","","","true","","","","","","","","","","","preload","","","2","58","false","[]","[]","[]","","","","","",""
"","","","","","","","","","","","canvas-keyboard-response","482","658173","0.0-482.0","null","null","","","","","","","","","","","","","","fixation","","","2","58","","","","","","","","","",""
"","","","","","","","","","","","canvas-keyboard-response","483","658475","0.0-483.0","null","null","","","","","","","","","","","","","","stimulus","","","2","58","","","","","","","","","",""
"","","","","","","","","","","","canvas-button-response","484","660351","0.0-484.0","1876","phone","","","","","","","","","","","","","","perceptual","","","2","58","","","","","364","knife","6","0","0",""
"","","","","","","","","","","","canvas-button-response","485","660912","0.0-485.0","560","3","","","","","","","","","","","","","","confidence","","","2","58","","","","","","","","","","6"
"","","","","","","","","","","","preload","486","660913","0.0-486.0","","","","","true","","","","","","","","","","","preload","","","2","59","false","[]","[]","[]","","","","","",""
"","","","","","","","","","","","canvas-keyboard-response","487","661215","0.0-487.0","null","null","","","","","","","","","","","","","","fixation","","","2","59","","","","","","","","","",""
"","","","","","","","","","","","canvas-keyboard-response","488","661518","0.0-488.0","null","null","","","","","","","","","","","","","","stimulus","","","2","59","","","","","","","","","",""
"","","","","","","","","","","","canvas-button-response","489","684033","0.0-489.0","22513","car","","","","","","","","","","","","","","perceptual","","","2","59","","","","","135","bed","6","0","0",""
"","","","","","","","","","","","canvas-button-response","490","685477","0.0-490.0","1442","2","","","","","","","","","","","","","","confidence","","","2","59","","","","","","","","","","6"
"","","","","","","","","","","","preload","491","685478","0.0-491.0","","","","","true","","","","","","","","","","","preload","","","2","60","false","[]","[]","[]","","","","","",""
"","","","","","","","","","","","canvas-keyboard-response","492","685781","0.0-492.0","null","null","","","","","","","","","","","","","","fixation","","","2","60","","","","","","","","","",""
