"width","height","webaudio","browser","browser_version","mobile","os","fullscreen","vsync_rate","webcam","microphone","trial_type","trial_index","time_elapsed","internal_node_id","rt","response","accuracy","view_history","success","item_width_mm","item_height_mm","item_width_px","px2mm","view_dist_mm","item_width_deg","px2deg","scale_factor","win_width_deg","win_height_deg","stimulus","datetime","subjectID","curr_triallist","trial_no","timeout","failed_images","failed_audio","failed_video","image_index","category","blur","reps","correct","running_score"
"1710","947","true","chrome","138.0.0","false","Mac OS","true","60.06","true","true","browser-check","0","1004","0.0-0.0","","","","","","","","","","","","","","","","","","","","","","","","","","","","","",""
"","","","","","","","","","","","survey","1","19222","0.0-1.0","18183","{""P0_Q0"":""903960151"",""P0_Q1"":""19"",""P1_Q0"":""Male"",""P1_Q1"":""Not Hispanic or Latino"",""P1_Q2"":""White"",""P1_Q3"":""Normal"",""P1_Q4"":""Right-Handed""}","[]","","","","","","","","","","","","","","","","","","","","","","","","","","",""
"","","","","","","","","","","","instructions","2","22245","0.0-2.0","3022","","","[{""page_index"":0,""viewing_time"":1084},{""page_index"":1,""viewing_time"":703},{""page_index"":2,""viewing_time"":606},{""page_index"":3,""viewing_time"":629}]","","","","","","","","","","","","","","","","","","","","","","","","","",""
"","","","","","","","","","","","fullscreen","3","24085","0.0-3.0","836","","","","true","","","","","","","","","","","","","","","","","","","","","","","","",""
"","","","","","","","","","","","virtual-chinrest","4","100266","0.0-4.0","76170","","","","","85.6","53.98","324.4749572928549","3.7879554166107843","452.11","10.815831909761831","29.999999999999996","1.3806920686198212","57.00000000000001","35.63333333333334","","","","","","","","","","","","","","",""
"","","","","","","","","","","","instructions","5","131577","0.0-5.0","31308","","","[{""page_index"":0,""viewing_time"":5448},{""page_index"":1,""viewing_time"":2113},{""page_index"":2,""viewing_time"":6364},{""page_index"":3,""viewing_time"":3285},{""page_index"":4,""viewing_time"":3262},{""page_index"":5,""viewing_time"":8341},{""page_index"":6,""viewing_time"":2496}]","","","","","","","","","","","","","","","","","","","","","","","","","",""
"","","","","","","","","","","","html-button-response","6","134242","0.0-6.0","2661","0","","","","","","","","","","","","","","start_practice","Tue Oct 14 2025 16:07:55 GMT-0400 (Eastern Daylight Time)","25504","","","","","","","","","","","",""
"","","","","","","","","","","","preload","7","134244","0.0-7.0","","","","","true","","","","","","","","","","","preload","","","0","0","false","[]","[]","[]","","","","","",""
"","","","","","","","","","","","canvas-keyboard-response","8","134549","0.0-8.0","null","null","","","","","","","","","","","","","","fixation","","","0","0","","","","","","","","","",""
"","","","","","","","","","","","canvas-keyboard-response","9","134851","0.0-9.0","null","null","","","","","","","","","","","","","","stimulus","","","0","0","","","","","","","","","",""
"","","","","","","","","","","","canvas-button-response","10","137735","0.0-10.0","2881","train","","","","","","","","","","","","","","perceptual","","","0","0","","","","","62","train","1","","1",""
"","","","","","","","","","","","canvas-button-response","11","139011","0.0-11.0","1274","10","","","","","","","","","","","","","","confidence","","","0","0","","","","","","","","","","1"
"","","","","","","","","","","","html-keyboard-response","12","140015","0.0-12.0","null","null","","","","","","","","","","","","","","feedback","Tue Oct 14 2025 16:08:02 GMT-0400 (Eastern Daylight Time)","25504","0","0","","","","","","","","","",""
"","","","","","","","","","","","preload","13","140016","0.0-13.0","","","","","true","","","","","","","","","","","preload","","","0","1","false","[]","[]","[]","","","","","",""
"","","","","","","","","","","","canvas-keyboard-response","14","140318","0.0-14.0","null","null","","","","","","","","","","","","","","fixation","","","0","1","","","","","","","","","",""
"","","","","","","","","","","","canvas-keyboard-response","15","140622","0.0-15.0","null","null","","","","","","","","","","","","","","stimulus","","","0","1","","","","","","","","","",""
"","","","","","","","","","","","canvas-button-response","16","143429","0.0-16.0","2804","flower","","","","","","","","","","","","","","perceptual","","","0","1","","","","","52","flower","1","","1",""
"","","","","","","","","","","","canvas-button-response","17","144401","0.0-17.0","970","7","","","","","","","","","","","","","","confidence","","","0","1","","","","","","","","","","2"
"","","","","","","","","","","","html-keyboard-response","18","145404","0.0-18.0","null","null","","","","","","","","","","","","","","feedback","Tue Oct 14 2025 16:08:07 GMT-0400 (Eastern Daylight Time)","25504","0","1","","","","","","","","","",""
"","","","","","","","","","","","preload","19","145404","0.0-19.0","","","","","true","","","","","","","","","","","preload","","","0","2","false","[]","[]","[]","","","","","",""
"","","","","","","","","","","","canvas-keyboard-response","20","145707","0.0-20.0","null","null","","","","","","","","","","","","","","fixation","","","0","2","","","","","","","","","",""
"","","","","","","","","","","","canvas-keyboard-response","21","146010","0.0-21.0","null","null","","","","","","","","","","","","","","stimulus","","","0","2","","","","","","","","","",""
"","","","","","","","","","","","canvas-button-response","22","147725","0.0-22.0","1713","phone","","","","","","","","","","","","","","perceptual","","","0","2","","","","","22","phone","1","","1",""
"","","","","","","","","","","","canvas-button-response","23","148443","0.0-23.0","717","10","","","","","","","","","","","","","","confidence","","","0","2","","","","","","","","","","3"
"","","","","","","","","","","","html-keyboard-response","24","149446","0.0-24.0","null","null","","","","","","","","","","","","","","feedback","Tue Oct 14 2025 16:08:11 GMT-0400 (Eastern Daylight Time)","25504","0","2","","","","","","","","","",""
"","","","","","","","","","","","preload","25","149447","0.0-25.0","","","","","true","","","","","","","","","","","preload","","","0","3","false","[]","[]","[]","","","","","",""
"","","","","","","","","","","","canvas-keyboard-response","26","149750","0.0-26.0","null","null","","","","","","","","","","","","","","fixation","","","0","3","","","","","","","","","",""
"","","","","","","","","","","","canvas-keyboard-response","27","150053","0.0-27.0","null","null","","","","","","","","","","","","","","stimulus","","","0","3","","","","","","","","","",""
"","","","","","","","","","","","canvas-button-response","28","151251","0.0-28.0","1195","house","","","","","","","","","","","","","","perceptual","","","0","3","","","","","2","house","1","","1",""
"","","","","","","","","","","","canvas-button-response","29","152254","0.0-29.0","1002","10","","","","","","","","","","","","","","confidence","","","0","3","","","","","","","","","","4"
"","","","","","","","","","","","html-keyboard-response","30","153257","0.0-30.0","null","null","","","","","","","","","","","","","","feedback","Tue Oct 14 2025 16:08:15 GMT-0400 (Eastern Daylight Time)","25504","0","3","","","","","","","","","",""
"","","","","","","","","","","","preload","31","153257","0.0-31.0","","","","","true","","","","","","","","","","","preload","","","0","4","false","[]","[]","[]","","","","","",""
"","","","","","","","","","","","canvas-keyboard-response","32","153560","0.0-32.0","null","null","","","","","","","","","","","","","","fixation","","","0","4","","","","","","","","","",""
"","","","","","","","","","","","canvas-keyboard-response","33","153863","0.0-33.0","null","null","","","","","","","","","","","","","","stimulus","","","0","4","","","","","","","","","",""
"","","","","","","","","","","","canvas-button-response","34","155326","0.0-34.0","1461","bed","","","","","","","","","","","","","","perceptual","","","0","4","","","","","32","bed","1","","1",""
"","","","","","","","","","","","canvas-button-response","35","156124","0.0-35.0","795","10","","","","","","","","","","","","","","confidence","","","0","4","","","","","","","","","","5"
"","","","","","","","","","","","html-keyboard-response","36","157127","0.0-36.0","null","null","","","","","","","","","","","","","","feedback","Tue Oct 14 2025 16:08:19 GMT-0400 (Eastern Daylight Time)","25504","0","4","","","","","","","","","",""
"","","","","","","","","","","","preload","37","157128","0.0-37.0","","","","","true","","","","","","","","","","","preload","","","0","5","false","[]","[]","[]","","","","","",""
"","","","","","","","","","","","canvas-keyboard-response","38","157431","0.0-38.0","null","null","","","","","","","","","","","","","","fixation","","","0","5","","","","","","","","","",""
"","","","","","","","","","","","canvas-keyboard-response","39","157733","0.0-39.0","null","null","","","","","","","","","","","","","","stimulus","","","0","5","","","","","","","","","",""
"","","","","","","","","","","","canvas-button-response","40","161163","0.0-40.0","3427","knife","","","","","","","","","","","","","","perceptual","","","0","5","","","","","92","knife","1","","1",""
"","","","","","","","","","","","canvas-button-response","41","162025","0.0-41.0","859","10","","","","","","","","","","","","","","confidence","","","0","5","","","","","","","","","","6"
"","","","","","","","","","","","html-keyboard-response","42","163028","0.0-42.0","null","null","","","","","","","","","","","","","","feedback","Tue Oct 14 2025 16:08:25 GMT-0400 (Eastern Daylight Time)","25504","0","5","","","","","","","","","",""
"","","","","","","","","","","","preload","43","163029","0.0-43.0","","","","","true","","","","","","","","","","","preload","","","0","6","false","[]","[]","[]","","","","","",""
"","","","","","","","","","","","canvas-keyboard-response","44","163332","0.0-44.0","null","null","","","","","","","","","","","","","","fixation","","","0","6","","","","","","","","","",""
"","","","","","","","","","","","canvas-keyboard-response","45","163635","0.0-45.0","null","null","","","","","","","","","","","","","","stimulus","","","0","6","","","","","","","","","",""
"","","","","","","","","","","","canvas-button-response","46","175784","0.0-46.0","12147","car","","","","","","","","","","","","","","perceptual","","","0","6","","","","","82","elephant","1","","0",""
"","","","","","","","","","","","canvas-button-response","47","177132","0.0-47.0","1346","1","","","","","","","","","","","","","","confidence","","","0","6","","","","","","","","","","6"
"","","","","","","","","","","","html-keyboard-response","48","178135","0.0-48.0","null","null","","","","","","","","","","","","","","feedback","Tue Oct 14 2025 16:08:40 GMT-0400 (Eastern Daylight Time)","25504","0","6","","","","","","","","","",""
"","","","","","","","","","","","preload","49","178136","0.0-49.0","","","","","true","","","","","","","","","","","preload","","","0","7","false","[]","[]","[]","","","","","",""
"","","","","","","","","","","","canvas-keyboard-response","50","178439","0.0-50.0","null","null","","","","","","","","","","","","","","fixation","","","0","7","","","","","","","","","",""
"","","","","","","","","","","","canvas-keyboard-response","51","178741","0.0-51.0","null","null","","","","","","","","","","","","","","stimulus","","","0","7","","","","","","","","","",""
"","","","","","","","","","","","canvas-button-response","52","182721","0.0-52.0","3977","house","","","","","","","","","","","","","","perceptual","","","0","7","","","","","12","car","1","","0",""
"","","","","","","","","","","","canvas-button-response","53","183645","0.0-53.0","922","0","","","","","","","","","","","","","","confidence","","","0","7","","","","","","","","","","6"
"","","","","","","","","","","","html-keyboard-response","54","184649","0.0-54.0","null","null","","","","","","","","","","","","","","feedback","Tue Oct 14 2025 16:08:47 GMT-0400 (Eastern Daylight Time)","25504","0","7","","","","","","","","","",""
"","","","","","","","","","","","preload","55","184650","0.0-55.0","","","","","true","","","","","","","","","","","preload","","","0","8","false","[]","[]","[]","","","","","",""
"","","","","","","","","","","","canvas-keyboard-response","56","184952","0.0-56.0","null","null","","","","","","","","","","","","","","fixation","","","0","8","","","","","","","","","",""
"","","","","","","","","","","","canvas-keyboard-response","57","185255","0.0-57.0","null","null","","","","","","","","","","","","","","stimulus","","","0","8","","","","","","","","","",""
"","","","","","","","","","","","canvas-button-response","58","186141","0.0-58.0","884","cat","","","","","","","","","","","","","","perceptual","","","0","8","","","","","72","cat","1","","1",""
"","","","","","","","","","","","canvas-button-response","59","186916","0.0-59.0","772","10","","","","","","","","","","","","","","confidence","","","0","8","","","","","","","","","","7"
"","","","","","","","","","","","html-keyboard-response","60","187918","0.0-60.0","null","null","","","","","","","","","","","","","","feedback","Tue Oct 14 2025 16:08:50 GMT-0400 (Eastern Daylight Time)","25504","0","8","","","","","","","","","",""
"","","","","","","","","","","","preload","61","187919","0.0-61.0","","","","","true","","","","","","","","","","","preload","","","0","9","false","[]","[]","[]","","","","","",""
"","","","","","","","","","","","canvas-keyboard-response","62","188222","0.0-62.0","null","null","","","","","","","","","","","","","","fixation","","","0","9","","","","","","","","","",""
"","","","","","","","","","","","canvas-keyboard-response","63","188526","0.0-63.0","null","null","","","","","","","","","","","","","","stimulus","","","0","9","","","","","","","","","",""
"","","","","","","","","","","","canvas-button-response","64","191676","0.0-64.0","3148","car","","","","","","","","","","","","","","perceptual","","","0","9","","","","","42","bridge","1","","0",""
"","","","","","","","","","","","canvas-button-response","65","193063","0.0-65.0","1385","1","","","","","","","","","","","","","","confidence","","","0","9","","","","","","","","","","7"
"","","","","","","","","","","","html-keyboard-response","66","194066","0.0-66.0","null","null","","","","","","","","","","","","","","feedback","Tue Oct 14 2025 16:08:56 GMT-0400 (Eastern Daylight Time)","25504","0","9","","","","","","","","","",""
"","","","","","","","","","","","html-button-response","67","199459","0.0-67.0","5391","0","","","","","","","","","","","","","","start_practice","Tue Oct 14 2025 16:08:57 GMT-0400 (Eastern Daylight Time)","25504","0","9","","","","","","","","","",""
"","","","","","","","","","","","preload","68","199460","0.0-68.0","","","","","true","","","","","","","","","","","preload","","","1","0","false","[]","[]","[]","","","","","",""
"","","","","","","","","","","","canvas-keyboard-response","69","199763","0.0-69.0","null","null","","","","","","","","","","","","","","fixation","","","1","0","","","","","","","","","",""
"","","","","","","","","","","","canvas-keyboard-response","70","200066","0.0-70.0","null","null","","","","","","","","","","","","","","stimulus","","","1","0","","","","","","","","","",""
"","","","","","","","","","","","canvas-button-response","71","203136","0.0-71.0","3068","cat","","","","","","","","","","","","","","perceptual","","","1","0","","","","","77","cat","10","","1",""
"","","","","","","","","","","","canvas-button-response","72","204077","0.0-72.0","939","1","","","","","","","","","","","","","","confidence","","","1","0","","","","","","","","","","1"
"","","","","","","","","","","","html-keyboard-response","73","205080","0.0-73.0","null","null","","","","","","","","","","","","","","feedback","Tue Oct 14 2025 16:09:07 GMT-0400 (Eastern Daylight Time)","25504","1","0","","","","","","","","","",""
"","","","","","","","","","","","preload","74","205081","0.0-74.0","","","","","true","","","","","","","","","","","preload","","","1","1","false","[]","[]","[]","","","","","",""
"","","","","","","","","","","","canvas-keyboard-response","75","205382","0.0-75.0","null","null","","","","","","","","","","","","","","fixation","","","1","1","","","","","","","","","",""
"","","","","","","","","","","","canvas-keyboard-response","76","205685","0.0-76.0","null","null","","","","","","","","","","","","","","stimulus","","","1","1","","","","","","","","","",""
"","","","","","","","","","","","canvas-button-response","77","207028","0.0-77.0","1340","cat","","","","","","","","","","","","","","perceptual","","","1","1","","","","","74","cat","6","","1",""
"","","","","","","","","","","","canvas-button-response","78","207610","0.0-78.0","580","5","","","","","","","","","","","","","","confidence","","","1","1","","","","","","","","","","2"
"","","","","","","","","","","","html-keyboard-response","79","208613","0.0-79.0","null","null","","","","","","","","","","","","","","feedback","Tue Oct 14 2025 16:09:11 GMT-0400 (Eastern Daylight Time)","25504","1","1","","","","","","","","","",""
"","","","","","","","","","","","preload","80","208614","0.0-80.0","","","","","true","","","","","","","","","","","preload","","","1","2","false","[]","[]","[]","","","","","",""
"","","","","","","","","","","","canvas-keyboard-response","81","208917","0.0-81.0","null","null","","","","","","","","","","","","","","fixation","","","1","2","","","","","","","","","",""
"","","","","","","","","","","","canvas-keyboard-response","82","209219","0.0-82.0","null","null","","","","","","","","","","","","","","stimulus","","","1","2","","","","","","","","","",""
"","","","","","","","","","","","canvas-button-response","83","211996","0.0-83.0","2774","train","","","","","","","","","","","","","","perceptual","","","1","2","","","","","14","car","6","","0",""
"","","","","","","","","","","","canvas-button-response","84","212650","0.0-84.0","652","5","","","","","","","","","","","","","","confidence","","","1","2","","","","","","","","","","2"
"","","","","","","","","","","","html-keyboard-response","85","213653","0.0-85.0","null","null","","","","","","","","","","","","","","feedback","Tue Oct 14 2025 16:09:16 GMT-0400 (Eastern Daylight Time)","25504","1","2","","","","","","","","","",""
"","","","","","","","","","","","preload","86","213654","0.0-86.0","","","","","true","","","","","","","","","","","preload","","","1","3","false","[]","[]","[]","","","","","",""
"","","","","","","","","","","","canvas-keyboard-response","87","213957","0.0-87.0","null","null","","","","","","","","","","","","","","fixation","","","1","3","","","","","","","","","",""
"","","","","","","","","","","","canvas-keyboard-response","88","214260","0.0-88.0","null","null","","","","","","","","","","","","","","stimulus","","","1","3","","","","","","","","","",""
"","","","","","","","","","","","canvas-button-response","89","216119","0.0-89.0","1857","elephant","","","","","","","","","","","","","","perceptual","","","1","3","","","","","27","phone","10","","0",""
"","","","","","","","","","","","canvas-button-response","90","216653","0.0-90.0","533","5","","","","","","","","","","","","","","confidence","","","1","3","","","","","","","","","","2"
"","","","","","","","","","","","html-keyboard-response","91","217657","0.0-91.0","null","null","","","","","","","","","","","","","","feedback","Tue Oct 14 2025 16:09:20 GMT-0400 (Eastern Daylight Time)","25504","1","3","","","","","","","","","",""
"","","","","","","","","","","","preload","92","217658","0.0-92.0","","","","","true","","","","","","","","","","","preload","","","1","4","false","[]","[]","[]","","","","","",""
"","","","","","","","","","","","canvas-keyboard-response","93","217961","0.0-93.0","null","null","","","","","","","","","","","","","","fixation","","","1","4","","","","","","","","","",""
"","","","","","","","","","","","canvas-keyboard-response","94","218263","0.0-94.0","null","null","","","","","","","","","","","","","","stimulus","","","1","4","","","","","","","","","",""
"","","","","","","","","","","","canvas-button-response","95","219591","0.0-95.0","1326","bridge","","","","","","","","","","","","","","perceptual","","","1","4","","","","","17","car","10","","0",""
"","","","","","","","","","","","canvas-button-response","96","220605","0.0-96.0","1011","4","","","","","","","","","","","","","","confidence","","","1","4","","","","","","","","","","2"
"","","","","","","","","","","","html-keyboard-response","97","221607","0.0-97.0","null","null","","","","","","","","","","","","","","feedback","Tue Oct 14 2025 16:09:24 GMT-0400 (Eastern Daylight Time)","25504","1","4","","","","","","","","","",""
"","","","","","","","","","","","preload","98","221607","0.0-98.0","","","","","true","","","","","","","","","","","preload","","","1","5","false","[]","[]","[]","","","","","",""
"","","","","","","","","","","","canvas-keyboard-response","99","221909","0.0-99.0","null","null","","","","","","","","","","","","","","fixation","","","1","5","","","","","","","","","",""
"","","","","","","","","","","","canvas-keyboard-response","100","222211","0.0-100.0","null","null","","","","","","","","","","","","","","stimulus","","","1","5","","","","","","","","","",""
"","","","","","","","","","","","canvas-button-response","101","223500","0.0-101.0","1287","bed","","","","","","","","","","","","","","perceptual","","","1","5","","","","","37","bed","10","","1",""
"","","","","","","","","","","","canvas-button-response","102","224106","0.0-102.0","604","2","","","","","","","","","","","","","","confidence","","","1","5","","","","","","","","","","3"
"","","","","","","","","","","","html-keyboard-response","103","225108","0.0-103.0","null","null","","","","","","","","","","","","","","feedback","Tue Oct 14 2025 16:09:27 GMT-0400 (Eastern Daylight Time)","25504","1","5","","","","","","","","","",""
"","","","","","","","","","","","preload","104","225109","0.0-104.0","","","","","true","","","","","","","","","","","preload","","","1","6","false","[]","[]","[]","","","","","",""
"","","","","","","","","","","","canvas-keyboard-response","105","225412","0.0-105.0","null","null","","","","","","","","","","","","","","fixation","","","1","6","","","","","","","","","",""
"","","","","","","","","","","","canvas-keyboard-response","106","225713","0.0-106.0","null","null","","","","","","","","","","","","","","stimulus","","","1","6","","","","","","","","","",""
"","","","","","","","","","","","canvas-button-response","107","226450","0.0-107.0","734","knife","","","","","","","","","","","","","","perceptual","","","1","6","","","","","7","house","10","","0",""
"","","","","","","","","","","","canvas-button-response","108","226985","0.0-108.0","533","4","","","","","","","","","","","","","","confidence","","","1","6","","","","","","","","","","3"
"","","","","","","","","","","","html-keyboard-response","109","227987","0.0-109.0","null","null","","","","","","","","","","","","","","feedback","Tue Oct 14 2025 16:09:30 GMT-0400 (Eastern Daylight Time)","25504","1","6","","","","","","","","","",""
"","","","","","","","","","","","preload","110","227988","0.0-110.0","","","","","true","","","","","","","","","","","preload","","","1","7","false","[]","[]","[]","","","","","",""
"","","","","","","","","","","","canvas-keyboard-response","111","228291","0.0-111.0","null","null","","","","","","","","","","","","","","fixation","","","1","7","","","","","","","","","",""
"","","","","","","","","","","","canvas-keyboard-response","112","228594","0.0-112.0","null","null","","","","","","","","","","","","","","stimulus","","","1","7","","","","","","","","","",""
"","","","","","","","","","","","canvas-button-response","113","229194","0.0-113.0","598","cat","","","","","","","","","","","","","","perceptual","","","1","7","","","","","67","train","10","","0",""
"","","","","","","","","","","","canvas-button-response","114","229704","0.0-114.0","507","7","","","","","","","","","","","","","","confidence","","","1","7","","","","","","","","","","3"
"","","","","","","","","","","","html-keyboard-response","115","230707","0.0-115.0","null","null","","","","","","","","","","","","","","feedback","Tue Oct 14 2025 16:09:33 GMT-0400 (Eastern Daylight Time)","25504","1","7","","","","","","","","","",""
"","","","","","","","","","","","preload","116","230708","0.0-116.0","","","","","true","","","","","","","","","","","preload","","","1","8","false","[]","[]","[]","","","","","",""
"","","","","","","","","","","","canvas-keyboard-response","117","231011","0.0-117.0","null","null","","","","","","","","","","","","","","fixation","","","1","8","","","","","","","","","",""
"","","","","","","","","","","","canvas-keyboard-response","118","231313","0.0-118.0","null","null","","","","","","","","","","","","","","stimulus","","","1","8","","","","","","","","","",""
"","","","","","","","","","","","canvas-button-response","119","232200","0.0-119.0","884","house","","","","","","","","","","","","","","perceptual","","","1","8","","","","","4","house","6","","1",""
"","","","","","","","","","","","canvas-button-response","120","233261","0.0-120.0","1059","10","","","","","","","","","","","","","","confidence","","","1","8","","","","","","","","","","4"
"","","","","","","","","","","","html-keyboard-response","121","234265","0.0-121.0","null","null","","","","","","","","","","","","","","feedback","Tue Oct 14 2025 16:09:36 GMT-0400 (Eastern Daylight Time)","25504","1","8","","","","","","","","","",""
"","","","","","","","","","","","preload","122","234266","0.0-122.0","","","","","true","","","","","","","","","","","preload","","","1","9","false","[]","[]","[]","","","","","",""
"","","","","","","","","","","","canvas-keyboard-response","123","234568","0.0-123.0","null","null","","","","","","","","","","","","","","fixation","","","1","9","","","","","","","","","",""
"","","","","","","","","","","","canvas-keyboard-response","124","234871","0.0-124.0","null","null","","","","","","","","","","","","","","stimulus","","","1","9","","","","","","","","","",""
"","","","","","","","","","","","canvas-button-response","125","235646","0.0-125.0","772","phone","","","","","","","","","","","","","","perceptual","","","1","9","","","","","24","phone","6","","1",""
"","","","","","","","","","","","canvas-button-response","126","236203","0.0-126.0","555","10","","","","","","","","","","","","","","confidence","","","1","9","","","","","","","","","","5"
"","","","","","","","","","","","html-keyboard-response","127","237205","0.0-127.0","null","null","","","","","","","","","","","","","","feedback","Tue Oct 14 2025 16:09:39 GMT-0400 (Eastern Daylight Time)","25504","1","9","","","","","","","","","",""
"","","","","","","","","","","","preload","128","237206","0.0-128.0","","","","","true","","","","","","","","","","","preload","","","1","10","false","[]","[]","[]","","","","","",""
"","","","","","","","","","","","canvas-keyboard-response","129","237509","0.0-129.0","null","null","","","","","","","","","","","","","","fixation","","","1","10","","","","","","","","","",""
"","","","","","","","","","","","canvas-keyboard-response","130","237811","0.0-130.0","null","null","","","","","","","","","","","","","","stimulus","","","1","10","","","","","","","","","",""
"","","","","","","","","","","","canvas-button-response","131","240239","0.0-131.0","2425","phone","","","","","","","","","","","","","","perceptual","","","1","10","","","","","94","knife","6","","0",""
"","","","","","","","","","","","canvas-button-response","132","241108","0.0-132.0","867","3","","","","","","","","","","","","","","confidence","","","1","10","","","","","","","","","","5"
"","","","","","","","","","","","html-keyboard-response","133","242111","0.0-133.0","null","null","","","","","","","","","","","","","","feedback","Tue Oct 14 2025 16:09:44 GMT-0400 (Eastern Daylight Time)","25504","1","10","","","","","","","","","",""
"","","","","","","","","","","","preload","134","242112","0.0-134.0","","","","","true","","","","","","","","","","","preload","","","1","11","false","[]","[]","[]","","","","","",""
"","","","","","","","","","","","canvas-keyboard-response","135","242415","0.0-135.0","null","null","","","","","","","","","","","","","","fixation","","","1","11","","","","","","","","","",""
"","","","","","","","","","","","canvas-keyboard-response","136","242718","0.0-136.0","null","null","","","","","","","","","","","","","","stimulus","","","1","11","","","","","","","","","",""
"","","","","","","","","","","","canvas-button-response","137","243395","0.0-137.0","676","car","","","","","","","","","","","","","","perceptual","","","1","11","","","","","44","bridge","6","","0",""
"","","","","","","","","","","","canvas-button-response","138","244537","0.0-138.0","1141","2","","","","","","","","","","","","","","confidence","","","1","11","","","","","","","","","","5"
"","","","","","","","","","","","html-keyboard-response","139","245540","0.0-139.0","null","null","","","","","","","","","","","","","","feedback","Tue Oct 14 2025 16:09:48 GMT-0400 (Eastern Daylight Time)","25504","1","11","","","","","","","","","",""
"","","","","","","","","","","","preload","140","245541","0.0-140.0","","","","","true","","","","","","","","","","","preload","","","1","12","false","[]","[]","[]","","","","","",""
"","","","","","","","","","","","canvas-keyboard-response","141","245844","0.0-141.0","null","null","","","","","","","","","","","","","","fixation","","","1","12","","","","","","","","","",""
"","","","","","","","","","","","canvas-keyboard-response","142","246147","0.0-142.0","null","null","","","","","","","","","","","","","","stimulus","","","1","12","","","","","","","","","",""
"","","","","","","","","","","","canvas-button-response","143","246826","0.0-143.0","677","house","","","","","","","","","","","","","","perceptual","","","1","12","","","","","54","flower","6","","0",""
"","","","","","","","","","","","canvas-button-response","144","247288","0.0-144.0","460","3","","","","","","","","","","","","","","confidence","","","1","12","","","","","","","","","","5"
"","","","","","","","","","","","html-keyboard-response","145","248292","0.0-145.0","null","null","","","","","","","","","","","","","","feedback","Tue Oct 14 2025 16:09:50 GMT-0400 (Eastern Daylight Time)","25504","1","12","","","","","","","","","",""
"","","","","","","","","","","","preload","146","248293","0.0-146.0","","","","","true","","","","","","","","","","","preload","","","1","13","false","[]","[]","[]","","","","","",""
"","","","","","","","","","","","canvas-keyboard-response","147","248596","0.0-147.0","null","null","","","","","","","","","","","","","","fixation","","","1","13","","","","","","","","","",""
"","","","","","","","","","","","canvas-keyboard-response","148","248898","0.0-148.0","null","null","","","","","","","","","","","","","","stimulus","","","1","13","","","","","","","","","",""
"","","","","","","","","","","","canvas-button-response","149","249417","0.0-149.0","518","bridge","","","","","","","","","","","","","","perceptual","","","1","13","","","","","47","bridge","10","","1",""
"","","","","","","","","","","","canvas-button-response","150","249975","0.0-150.0","555","2","","","","","","","","","","","","","","confidence","","","1","13","","","","","","","","","","6"
"","","","","","","","","","","","html-keyboard-response","151","250977","0.0-151.0","null","null","","","","","","","","","","","","","","feedback","Tue Oct 14 2025 16:09:53 GMT-0400 (Eastern Daylight Time)","25504","1","13","","","","","","","","","",""
"","","","","","","","","","","","preload","152","250977","0.0-152.0","","","","","true","","","","","","","","","","","preload","","","1","14","false","[]","[]","[]","","","","","",""
"","","","","","","","","","","","canvas-keyboard-response","153","251279","0.0-153.0","null","null","","","","","","","","","","","","","","fixation","","","1","14","","","","","","","","","",""
"","","","","","","","","","","","canvas-keyboard-response","154","251582","0.0-154.0","null","null","","","","","","","","","","","","","","stimulus","","","1","14","","","","","","","","","",""
"","","","","","","","","","","","canvas-button-response","155","253094","0.0-155.0","1510","flower","","","","","","","","","","","","","","perceptual","","","1","14","","","","","57","flower","10","","1",""
"","","","","","","","","","","","canvas-button-response","156","253571","0.0-156.0","475","6","","","","","","","","","","","","","","confidence","","","1","14","","","","","","","","","","7"
"","","","","","","","","","","","html-keyboard-response","157","254575","0.0-157.0","null","null","","","","","","","","","","","","","","feedback","Tue Oct 14 2025 16:09:57 GMT-0400 (Eastern Daylight Time)","25504","1","14","","","","","","","","","",""
"","","","","","","","","","","","preload","158","254575","0.0-158.0","","","","","true","","","","","","","","","","","preload","","","1","15","false","[]","[]","[]","","","","","",""
"","","","","","","","","","","","canvas-keyboard-response","159","254879","0.0-159.0","null","null","","","","","","","","","","","","","","fixation","","","1","15","","","","","","","","","",""
"","","","","","","","","","","","canvas-keyboard-response","160","255181","0.0-160.0","null","null","","","","","","","","","","","","","","stimulus","","","1","15","","","","","","","","","",""
"","","","","","","","","","","","canvas-button-response","161","256954","0.0-161.0","1770","train","","","","","","","","","","","","","","perceptual","","","1","15","","","","","87","elephant","10","","0",""
"","","","","","","","","","","","canvas-button-response","162","257711","0.0-162.0","755","4","","","","","","","","","","","","","","confidence","","","1","15","","","","","","","","","","7"
"","","","","","","","","","","","html-keyboard-response","163","258713","0.0-163.0","null","null","","","","","","","","","","","","","","feedback","Tue Oct 14 2025 16:10:01 GMT-0400 (Eastern Daylight Time)","25504","1","15","","","","","","","","","",""
"","","","","","","","","","","","preload","164","258714","0.0-164.0","","","","","true","","","","","","","","","","","preload","","","1","16","false","[]","[]","[]","","","","","",""
"","","","","","","","","","","","canvas-keyboard-response","165","259017","0.0-165.0","null","null","","","","","","","","","","","","","","fixation","","","1","16","","","","","","","","","",""
"","","","","","","","","","","","canvas-keyboard-response","166","259320","0.0-166.0","null","null","","","","","","","","","","","","","","stimulus","","","1","16","","","","","","","","","",""
"","","","","","","","","","","","canvas-button-response","167","260493","0.0-167.0","1171","train","","","","","","","","","","","","","","perceptual","","","1","16","","","","","64","train","6","","1",""
"","","","","","","","","","","","canvas-button-response","168","262286","0.0-168.0","1791","10","","","","","","","","","","","","","","confidence","","","1","16","","","","","","","","","","8"
"","","","","","","","","","","","html-keyboard-response","169","263290","0.0-169.0","null","null","","","","","","","","","","","","","","feedback","Tue Oct 14 2025 16:10:05 GMT-0400 (Eastern Daylight Time)","25504","1","16","","","","","","","","","",""
"","","","","","","","","","","","preload","170","263291","0.0-170.0","","","","","true","","","","","","","","","","","preload","","","1","17","false","[]","[]","[]","","","","","",""
"","","","","","","","","","","","canvas-keyboard-response","171","263594","0.0-171.0","null","null","","","","","","","","","","","","","","fixation","","","1","17","","","","","","","","","",""
"","","","","","","","","","","","canvas-keyboard-response","172","263897","0.0-172.0","null","null","","","","","","","","","","","","","","stimulus","","","1","17","","","","","","","","","",""
"","","","","","","","","","","","canvas-button-response","173","266412","0.0-173.0","2513","phone","","","","","","","","","","","","","","perceptual","","","1","17","","","","","97","knife","10","","0",""
"","","","","","","","","","","","canvas-button-response","174","267321","0.0-174.0","907","2","","","","","","","","","","","","","","confidence","","","1","17","","","","","","","","","","8"
"","","","","","","","","","","","html-keyboard-response","175","268323","0.0-175.0","null","null","","","","","","","","","","","","","","feedback","Tue Oct 14 2025 16:10:10 GMT-0400 (Eastern Daylight Time)","25504","1","17","","","","","","","","","",""
"","","","","","","","","","","","preload","176","268324","0.0-176.0","","","","","true","","","","","","","","","","","preload","","","1","18","false","[]","[]","[]","","","","","",""
"","","","","","","","","","","","canvas-keyboard-response","177","268627","0.0-177.0","null","null","","","","","","","","","","","","","","fixation","","","1","18","","","","","","","","","",""
"","","","","","","","","","","","canvas-keyboard-response","178","268929","0.0-178.0","null","null","","","","","","","","","","","","","","stimulus","","","1","18","","","","","","","","","",""
"","","","","","","","","","","","canvas-button-response","179","270287","0.0-179.0","1356","elephant","","","","","","","","","","","","","","perceptual","","","1","18","","","","","84","elephant","6","","1",""
"","","","","","","","","","","","canvas-button-response","180","270790","0.0-180.0","501","10","","","","","","","","","","","","","","confidence","","","1","18","","","","","","","","","","9"
"","","","","","","","","","","","html-keyboard-response","181","271793","0.0-181.0","null","null","","","","","","","","","","","","","","feedback","Tue Oct 14 2025 16:10:14 GMT-0400 (Eastern Daylight Time)","25504","1","18","","","","","","","","","",""
"","","","","","","","","","","","preload","182","271794","0.0-182.0","","","","","true","","","","","","","","","","","preload","","","1","19","false","[]","[]","[]","","","","","",""
"","","","","","","","","","","","canvas-keyboard-response","183","272097","0.0-183.0","null","null","","","","","","","","","","","","","","fixation","","","1","19","","","","","","","","","",""
"","","","","","","","","","","","canvas-keyboard-response","184","272399","0.0-184.0","null","null","","","","","","","","","","","","","","stimulus","","","1","19","","","","","","","","","",""
"","","","","","","","","","","","canvas-button-response","185","273948","0.0-185.0","1547","bed","","","","","","","","","","","","","","perceptual","","","1","19","","","","","34","bed","6","","1",""
"","","","","","","","","","","","canvas-button-response","186","274905","0.0-186.0","954","10","","","","","","","","","","","","","","confidence","","","1","19","","","","","","","","","","10"
"","","","","","","","","","","","html-keyboard-response","187","275908","0.0-187.0","null","null","","","","","","","","","","","","","","feedback","Tue Oct 14 2025 16:10:18 GMT-0400 (Eastern Daylight Time)","25504","1","19","","","","","","","","","",""
"","","","","","","","","","","","html-button-response","188","279968","0.0-188.0","4058","0","","","","","","","","","","","","","","start experiment","Tue Oct 14 2025 16:10:19 GMT-0400 (Eastern Daylight Time)","25504","1","19","","","","","","","","","",""
"","","","","","","","","","","","preload","189","279969","0.0-189.0","","","","","true","","","","","","","","","","","preload","","","2","0","false","[]","[]","[]","","","","","",""
"","","","","","","","","","","","canvas-keyboard-response","190","280272","0.0-190.0","null","null","","","","","","","","","","","","","","fixation","","","2","0","","","","","","","","","",""
"","","","","","","","","","","","canvas-keyboard-response","191","280574","0.0-191.0","null","null","","","","","","","","","","","","","","stimulus","","","2","0","","","","","","","","","",""
"","","","","","","","","","","","canvas-button-response","192","281269","0.0-192.0","693","bridge","","","","","","","","","","","","","","perceptual","","","2","0","","","","","314","cat","10","0","0",""
"","","","","","","","","","","","canvas-button-response","193","281764","0.0-193.0","493","3","","","","","","","","","","","","","","confidence","","","2","0","","","","","","","","","","0"
"","","","","","","","","","","","preload","194","281765","0.0-194.0","","","","","true","","","","","","","","","","","preload","","","2","1","false","[]","[]","[]","","","","","",""
"","","","","","","","","","","","canvas-keyboard-response","195","282066","0.0-195.0","null","null","","","","","","","","","","","","","","fixation","","","2","1","","","","","","","","","",""
"","","","","","","","","","","","canvas-keyboard-response","196","282369","0.0-196.0","null","null","","","","","","","","","","","","","","stimulus","","","2","1","","","","","","","","","",""
"","","","","","","","","","","","canvas-button-response","197","282950","0.0-197.0","580","bridge","","","","","","","","","","","","","","perceptual","","","2","1","","","","","206","flower","6","0","0",""
"","","","","","","","","","","","canvas-button-response","198","283541","0.0-198.0","589","1","","","","","","","","","","","","","","confidence","","","2","1","","","","","","","","","","0"
"","","","","","","","","","","","preload","199","283542","0.0-199.0","","","","","true","","","","","","","","","","","preload","","","2","2","false","[]","[]","[]","","","","","",""
"","","","","","","","","","","","canvas-keyboard-response","200","283844","0.0-200.0","null","null","","","","","","","","","","","","","","fixation","","","2","2","","","","","","","","","",""
"","","","","","","","","","","","canvas-keyboard-response","201","284147","0.0-201.0","null","null","","","","","","","","","","","","","","stimulus","","","2","2","","","","","","","","","",""
"","","","","","","","","","","","canvas-button-response","202","284897","0.0-202.0","749","cat","","","","","","","","","","","","","","perceptual","","","2","2","","","","","262","train","10","0","0",""
"","","","","","","","","","","","canvas-button-response","203","285863","0.0-203.0","964","2","","","","","","","","","","","","","","confidence","","","2","2","","","","","","","","","","0"
"","","","","","","","","","","","preload","204","285864","0.0-204.0","","","","","true","","","","","","","","","","","preload","","","2","3","false","[]","[]","[]","","","","","",""
"","","","","","","","","","","","canvas-keyboard-response","205","286166","0.0-205.0","null","null","","","","","","","","","","","","","","fixation","","","2","3","","","","","","","","","",""
"","","","","","","","","","","","canvas-keyboard-response","206","286468","0.0-206.0","null","null","","","","","","","","","","","","","","stimulus","","","2","3","","","","","","","","","",""
"","","","","","","","","","","","canvas-button-response","207","287315","0.0-207.0","844","car","","","","","","","","","","","","","","perceptual","","","2","3","","","","","49","car","6","0","1",""
"","","","","","","","","","","","canvas-button-response","208","287881","0.0-208.0","564","10","","","","","","","","","","","","","","confidence","","","2","3","","","","","","","","","","1"
"","","","","","","","","","","","preload","209","287882","0.0-209.0","","","","","true","","","","","","","","","","","preload","","","2","4","false","[]","[]","[]","","","","","",""
"","","","","","","","","","","","canvas-keyboard-response","210","288184","0.0-210.0","null","null","","","","","","","","","","","","","","fixation","","","2","4","","","","","","","","","",""
"","","","","","","","","","","","canvas-keyboard-response","211","288487","0.0-211.0","null","null","","","","","","","","","","","","","","stimulus","","","2","4","","","","","","","","","",""
"","","","","","","","","","","","canvas-button-response","212","290505","0.0-212.0","2016","flower","","","","","","","","","","","","","","perceptual","","","2","4","","","","","225","flower","10","0","1",""
"","","","","","","","","","","","canvas-button-response","213","291534","0.0-213.0","1026","4","","","","","","","","","","","","","","confidence","","","2","4","","","","","","","","","","2"
"","","","","","","","","","","","preload","214","291535","0.0-214.0","","","","","true","","","","","","","","","","","preload","","","2","5","false","[]","[]","[]","","","","","",""
"","","","","","","","","","","","canvas-keyboard-response","215","291837","0.0-215.0","null","null","","","","","","","","","","","","","","fixation","","","2","5","","","","","","","","","",""
"","","","","","","","","","","","canvas-keyboard-response","216","292140","0.0-216.0","null","null","","","","","","","","","","","","","","stimulus","","","2","5","","","","","","","","","",""
"","","","","","","","","","","","canvas-button-response","217","293073","0.0-217.0","930","bridge","","","","","","","","","","","","","","perceptual","","","2","5","","","","","265","train","10","0","0",""
"","","","","","","","","","","","canvas-button-response","218","293647","0.0-218.0","572","5","","","","","","","","","","","","","","confidence","","","2","5","","","","","","","","","","2"
"","","","","","","","","","","","preload","219","293648","0.0-219.0","","","","","true","","","","","","","","","","","preload","","","2","6","false","[]","[]","[]","","","","","",""
"","","","","","","","","","","","canvas-keyboard-response","220","293951","0.0-220.0","null","null","","","","","","","","","","","","","","fixation","","","2","6","","","","","","","","","",""
"","","","","","","","","","","","canvas-keyboard-response","221","294254","0.0-221.0","null","null","","","","","","","","","","","","","","stimulus","","","2","6","","","","","","","","","",""
"","","","","","","","","","","","canvas-button-response","222","295122","0.0-222.0","866","flower","","","","","","","","","","","","","","perceptual","","","2","6","","","","","134","bed","6","0","0",""
"","","","","","","","","","","","canvas-button-response","223","295920","0.0-223.0","796","2","","","","","","","","","","","","","","confidence","","","2","6","","","","","","","","","","2"
"","","","","","","","","","","","preload","224","295921","0.0-224.0","","","","","true","","","","","","","","","","","preload","","","2","7","false","[]","[]","[]","","","","","",""
"","","","","","","","","","","","canvas-keyboard-response","225","296223","0.0-225.0","null","null","","","","","","","","","","","","","","fixation","","","2","7","","","","","","","","","",""
"","","","","","","","","","","","canvas-keyboard-response","226","296524","0.0-226.0","null","null","","","","","","","","","","","","","","stimulus","","","2","7","","","","","","","","","",""
"","","","","","","","","","","","canvas-button-response","227","297419","0.0-227.0","894","car","","","","","","","","","","","","","","perceptual","","","2","7","","","","","66","car","10","0","1",""
"","","","","","","","","","","","canvas-button-response","228","298041","0.0-228.0","620","10","","","","","","","","","","","","","","confidence","","","2","7","","","","","","","","","","3"
"","","","","","","","","","","","preload","229","298043","0.0-229.0","","","","","true","","","","","","","","","","","preload","","","2","8","false","[]","[]","[]","","","","","",""
"","","","","","","","","","","","canvas-keyboard-response","230","298345","0.0-230.0","null","null","","","","","","","","","","","","","","fixation","","","2","8","","","","","","","","","",""
"","","","","","","","","","","","canvas-keyboard-response","231","298648","0.0-231.0","null","null","","","","","","","","","","","","","","stimulus","","","2","8","","","","","","","","","",""
"","","","","","","","","","","","canvas-button-response","232","299389","0.0-232.0","739","bridge","","","","","","","","","","","","","","perceptual","","","2","8","","","","","235","flower","10","0","0",""
"","","","","","","","","","","","canvas-button-response","233","301247","0.0-233.0","1857","3","","","","","","","","","","","","","","confidence","","","2","8","","","","","","","","","","3"
"","","","","","","","","","","","preload","234","301248","0.0-234.0","","","","","true","","","","","","","","","","","preload","","","2","9","false","[]","[]","[]","","","","","",""
"","","","","","","","","","","","canvas-keyboard-response","235","301550","0.0-235.0","null","null","","","","","","","","","","","","","","fixation","","","2","9","","","","","","","","","",""
"","","","","","","","","","","","canvas-keyboard-response","236","301852","0.0-236.0","null","null","","","","","","","","","","","","","","stimulus","","","2","9","","","","","","","","","",""
"","","","","","","","","","","","canvas-button-response","237","304205","0.0-237.0","2351","bed","","","","","","","","","","","","","","perceptual","","","2","9","","","","","165","bridge","6","0","0",""
"","","","","","","","","","","","canvas-button-response","238","304876","0.0-238.0","669","1","","","","","","","","","","","","","","confidence","","","2","9","","","","","","","","","","3"
"","","","","","","","","","","","preload","239","304877","0.0-239.0","","","","","true","","","","","","","","","","","preload","","","2","10","false","[]","[]","[]","","","","","",""
"","","","","","","","","","","","canvas-keyboard-response","240","305179","0.0-240.0","null","null","","","","","","","","","","","","","","fixation","","","2","10","","","","","","","","","",""
"","","","","","","","","","","","canvas-keyboard-response","241","305482","0.0-241.0","null","null","","","","","","","","","","","","","","stimulus","","","2","10","","","","","","","","","",""
"","","","","","","","","","","","canvas-button-response","242","306328","0.0-242.0","844","cat","","","","","","","","","","","","","","perceptual","","","2","10","","","","","278","train","10","0","0",""
"","","","","","","","","","","","canvas-button-response","243","307054","0.0-243.0","723","1","","","","","","","","","","","","","","confidence","","","2","10","","","","","","","","","","3"
"","","","","","","","","","","","preload","244","307055","0.0-244.0","","","","","true","","","","","","","","","","","preload","","","2","11","false","[]","[]","[]","","","","","",""
"","","","","","","","","","","","canvas-keyboard-response","245","307356","0.0-245.0","null","null","","","","","","","","","","","","","","fixation","","","2","11","","","","","","","","","",""
"","","","","","","","","","","","canvas-keyboard-response","246","307659","0.0-246.0","null","null","","","","","","","","","","","","","","stimulus","","","2","11","","","","","","","","","",""
"","","","","","","","","","","","canvas-button-response","247","308599","0.0-247.0","938","knife","","","","","","","","","","","","","","perceptual","","","2","11","","","","","92","phone","6","0","0",""
"","","","","","","","","","","","canvas-button-response","248","309269","0.0-248.0","668","1","","","","","","","","","","","","","","confidence","","","2","11","","","","","","","","","","3"
"","","","","","","","","","","","preload","249","309269","0.0-249.0","","","","","true","","","","","","","","","","","preload","","","2","12","false","[]","[]","[]","","","","","",""
"","","","","","","","","","","","canvas-keyboard-response","250","309572","0.0-250.0","null","null","","","","","","","","","","","","","","fixation","","","2","12","","","","","","","","","",""
"","","","","","","","","","","","canvas-keyboard-response","251","309873","0.0-251.0","null","null","","","","","","","","","","","","","","stimulus","","","2","12","","","","","","","","","",""
"","","","","","","","","","","","canvas-button-response","252","310595","0.0-252.0","719","knife","","","","","","","","","","","","","","perceptual","","","2","12","","","","","360","knife","6","0","1",""
"","","","","","","","","","","","canvas-button-response","253","311233","0.0-253.0","635","10","","","","","","","","","","","","","","confidence","","","2","12","","","","","","","","","","4"
"","","","","","","","","","","","preload","254","311234","0.0-254.0","","","","","true","","","","","","","","","","","preload","","","2","13","false","[]","[]","[]","","","","","",""
"","","","","","","","","","","","canvas-keyboard-response","255","311535","0.0-255.0","null","null","","","","","","","","","","","","","","fixation","","","2","13","","","","","","","","","",""
"","","","","","","","","","","","canvas-keyboard-response","256","311837","0.0-256.0","null","null","","","","","","","","","","","","","","stimulus","","","2","13","","","","","","","","","",""
"","","","","","","","","","","","canvas-button-response","257","312540","0.0-257.0","700","cat","","","","","","","","","","","","","","perceptual","","","2","13","","","","","285","cat","6","0","1",""
"","","","","","","","","","","","canvas-button-response","258","313147","0.0-258.0","604","10","","","","","","","","","","","","","","confidence","","","2","13","","","","","","","","","","5"
"","","","","","","","","","","","preload","259","313148","0.0-259.0","","","","","true","","","","","","","","","","","preload","","","2","14","false","[]","[]","[]","","","","","",""
"","","","","","","","","","","","canvas-keyboard-response","260","313450","0.0-260.0","null","null","","","","","","","","","","","","","","fixation","","","2","14","","","","","","","","","",""
"","","","","","","","","","","","canvas-keyboard-response","261","313752","0.0-261.0","null","null","","","","","","","","","","","","","","stimulus","","","2","14","","","","","","","","","",""
"","","","","","","","","","","","canvas-button-response","262","315594","0.0-262.0","1840","car","","","","","","","","","","","","","","perceptual","","","2","14","","","","","277","train","10","0","0",""
"","","","","","","","","","","","canvas-button-response","263","316335","0.0-263.0","739","3","","","","","","","","","","","","","","confidence","","","2","14","","","","","","","","","","5"
"","","","","","","","","","","","preload","264","316336","0.0-264.0","","","","","true","","","","","","","","","","","preload","","","2","15","false","[]","[]","[]","","","","","",""
"","","","","","","","","","","","canvas-keyboard-response","265","316637","0.0-265.0","null","null","","","","","","","","","","","","","","fixation","","","2","15","","","","","","","","","",""
"","","","","","","","","","","","canvas-keyboard-response","266","316940","0.0-266.0","null","null","","","","","","","","","","","","","","stimulus","","","2","15","","","","","","","","","",""
"","","","","","","","","","","","canvas-button-response","267","318624","0.0-267.0","1682","bridge","","","","","","","","","","","","","","perceptual","","","2","15","","","","","189","bridge","10","0","1",""
"","","","","","","","","","","","canvas-button-response","268","319088","0.0-268.0","461","2","","","","","","","","","","","","","","confidence","","","2","15","","","","","","","","","","6"
"","","","","","","","","","","","preload","269","319089","0.0-269.0","","","","","true","","","","","","","","","","","preload","","","2","16","false","[]","[]","[]","","","","","",""
"","","","","","","","","","","","canvas-keyboard-response","270","319392","0.0-270.0","null","null","","","","","","","","","","","","","","fixation","","","2","16","","","","","","","","","",""
"","","","","","","","","","","","canvas-keyboard-response","271","319695","0.0-271.0","null","null","","","","","","","","","","","","","","stimulus","","","2","16","","","","","","","","","",""
"","","","","","","","","","","","canvas-button-response","272","321337","0.0-272.0","1640","flower","","","","","","","","","","","","","","perceptual","","","2","16","","","","","348","elephant","10","0","0",""
"","","","","","","","","","","","canvas-button-response","273","321783","0.0-273.0","443","1","","","","","","","","","","","","","","confidence","","","2","16","","","","","","","","","","6"
"","","","","","","","","","","","preload","274","321784","0.0-274.0","","","","","true","","","","","","","","","","","preload","","","2","17","false","[]","[]","[]","","","","","",""
"","","","","","","","","","","","canvas-keyboard-response","275","322086","0.0-275.0","null","null","","","","","","","","","","","","","","fixation","","","2","17","","","","","","","","","",""
"","","","","","","","","","","","canvas-keyboard-response","276","322389","0.0-276.0","null","null","","","","","","","","","","","","","","stimulus","","","2","17","","","","","","","","","",""
"","","","","","","","","","","","canvas-button-response","277","323403","0.0-277.0","1011","train","","","","","","","","","","","","","","perceptual","","","2","17","","","","","255","train","6","0","1",""
"","","","","","","","","","","","canvas-button-response","278","323865","0.0-278.0","460","10","","","","","","","","","","","","","","confidence","","","2","17","","","","","","","","","","7"
"","","","","","","","","","","","preload","279","323866","0.0-279.0","","","","","true","","","","","","","","","","","preload","","","2","18","false","[]","[]","[]","","","","","",""
"","","","","","","","","","","","canvas-keyboard-response","280","324169","0.0-280.0","null","null","","","","","","","","","","","","","","fixation","","","2","18","","","","","","","","","",""
"","","","","","","","","","","","canvas-keyboard-response","281","324472","0.0-281.0","null","null","","","","","","","","","","","","","","stimulus","","","2","18","","","","","","","","","",""
"","","","","","","","","","","","canvas-button-response","282","325309","0.0-282.0","834","flower","","","","","","","","","","","","","","perceptual","","","2","18","","","","","237","flower","10","0","1",""
"","","","","","","","","","","","canvas-button-response","283","325891","0.0-283.0","580","10","","","","","","","","","","","","","","confidence","","","2","18","","","","","","","","","","8"
"","","","","","","","","","","","preload","284","325892","0.0-284.0","","","","","true","","","","","","","","","","","preload","","","2","19","false","[]","[]","[]","","","","","",""
"","","","","","","","","","","","canvas-keyboard-response","285","326194","0.0-285.0","null","null","","","","","","","","","","","","","","fixation","","","2","19","","","","","","","","","",""
"","","","","","","","","","","","canvas-keyboard-response","286","326497","0.0-286.0","null","null","","","","","","","","","","","","","","stimulus","","","2","19","","","","","","","","","",""
"","","","","","","","","","","","canvas-button-response","287","327351","0.0-287.0","851","bridge","","","","","","","","","","","","","","perceptual","","","2","19","","","","","147","bed","10","0","0",""
"","","","","","","","","","","","canvas-button-response","288","327860","0.0-288.0","508","2","","","","","","","","","","","","","","confidence","","","2","19","","","","","","","","","","8"
"","","","","","","","","","","","preload","289","327861","0.0-289.0","","","","","true","","","","","","","","","","","preload","","","2","20","false","[]","[]","[]","","","","","",""
"","","","","","","","","","","","canvas-keyboard-response","290","328164","0.0-290.0","null","null","","","","","","","","","","","","","","fixation","","","2","20","","","","","","","","","",""
"","","","","","","","","","","","canvas-keyboard-response","291","328467","0.0-291.0","null","null","","","","","","","","","","","","","","stimulus","","","2","20","","","","","","","","","",""
"","","","","","","","","","","","canvas-button-response","292","330484","0.0-292.0","2015","bed","","","","","","","","","","","","","","perceptual","","","2","20","","","","","153","bed","10","0","1",""
"","","","","","","","","","","","canvas-button-response","293","331162","0.0-293.0","676","6","","","","","","","","","","","","","","confidence","","","2","20","","","","","","","","","","9"
"","","","","","","","","","","","preload","294","331163","0.0-294.0","","","","","true","","","","","","","","","","","preload","","","2","21","false","[]","[]","[]","","","","","",""
"","","","","","","","","","","","canvas-keyboard-response","295","331464","0.0-295.0","null","null","","","","","","","","","","","","","","fixation","","","2","21","","","","","","","","","",""
"","","","","","","","","","","","canvas-keyboard-response","296","331766","0.0-296.0","null","null","","","","","","","","","","","","","","stimulus","","","2","21","","","","","","","","","",""
"","","","","","","","","","","","canvas-button-response","297","332709","0.0-297.0","940","bed","","","","","","","","","","","","","","perceptual","","","2","21","","","","","156","bed","10","0","1",""
"","","","","","","","","","","","canvas-button-response","298","333427","0.0-298.0","716","10","","","","","","","","","","","","","","confidence","","","2","21","","","","","","","","","","10"
"","","","","","","","","","","","preload","299","333428","0.0-299.0","","","","","true","","","","","","","","","","","preload","","","2","22","false","[]","[]","[]","","","","","",""
"","","","","","","","","","","","canvas-keyboard-response","300","333730","0.0-300.0","null","null","","","","","","","","","","","","","","fixation","","","2","22","","","","","","","","","",""
"","","","","","","","","","","","canvas-keyboard-response","301","334033","0.0-301.0","null","null","","","","","","","","","","","","","","stimulus","","","2","22","","","","","","","","","",""
"","","","","","","","","","","","canvas-button-response","302","334846","0.0-302.0","811","cat","","","","","","","","","","","","","","perceptual","","","2","22","","","","","397","knife","10","0","0",""
"","","","","","","","","","","","canvas-button-response","303","335859","0.0-303.0","1011","2","","","","","","","","","","","","","","confidence","","","2","22","","","","","","","","","","10"
"","","","","","","","","","","","preload","304","335860","0.0-304.0","","","","","true","","","","","","","","","","","preload","","","2","23","false","[]","[]","[]","","","","","",""
"","","","","","","","","","","","canvas-keyboard-response","305","336163","0.0-305.0","null","null","","","","","","","","","","","","","","fixation","","","2","23","","","","","","","","","",""
"","","","","","","","","","","","canvas-keyboard-response","306","336465","0.0-306.0","null","null","","","","","","","","","","","","","","stimulus","","","2","23","","","","","","","","","",""
"","","","","","","","","","","","canvas-button-response","307","337470","0.0-307.0","1003","cat","","","","","","","","","","","","","","perceptual","","","2","23","","","","","312","cat","10","0","1",""
"","","","","","","","","","","","canvas-button-response","308","338045","0.0-308.0","572","8","","","","","","","","","","","","","","confidence","","","2","23","","","","","","","","","","11"
"","","","","","","","","","","","preload","309","338046","0.0-309.0","","","","","true","","","","","","","","","","","preload","","","2","24","false","[]","[]","[]","","","","","",""
"","","","","","","","","","","","canvas-keyboard-response","310","338349","0.0-310.0","null","null","","","","","","","","","","","","","","fixation","","","2","24","","","","","","","","","",""
"","","","","","","","","","","","canvas-keyboard-response","311","338651","0.0-311.0","null","null","","","","","","","","","","","","","","stimulus","","","2","24","","","","","","","","","",""
"","","","","","","","","","","","canvas-button-response","312","339359","0.0-312.0","706","bridge","","","","","","","","","","","","","","perceptual","","","2","24","","","","","315","cat","10","0","0",""
"","","","","","","","","","","","canvas-button-response","313","339854","0.0-313.0","492","2","","","","","","","","","","","","","","confidence","","","2","24","","","","","","","","","","11"
"","","","","","","","","","","","preload","314","339855","0.0-314.0","","","","","true","","","","","","","","","","","preload","","","2","25","false","[]","[]","[]","","","","","",""
"","","","","","","","","","","","canvas-keyboard-response","315","340157","0.0-315.0","null","null","","","","","","","","","","","","","","fixation","","","2","25","","","","","","","","","",""
"","","","","","","","","","","","canvas-keyboard-response","316","340460","0.0-316.0","null","null","","","","","","","","","","","","","","stimulus","","","2","25","","","","","","","","","",""
"","","","","","","","","","","","canvas-button-response","317","341130","0.0-317.0","668","knife","","","","","","","","","","","","","","perceptual","","","2","25","","","","","311","cat","10","0","0",""
"","","","","","","","","","","","canvas-button-response","318","341697","0.0-318.0","565","1","","","","","","","","","","","","","","confidence","","","2","25","","","","","","","","","","11"
"","","","","","","","","","","","preload","319","341698","0.0-319.0","","","","","true","","","","","","","","","","","preload","","","2","26","false","[]","[]","[]","","","","","",""
"","","","","","","","","","","","canvas-keyboard-response","320","342000","0.0-320.0","null","null","","","","","","","","","","","","","","fixation","","","2","26","","","","","","","","","",""
"","","","","","","","","","","","canvas-keyboard-response","321","342302","0.0-321.0","null","null","","","","","","","","","","","","","","stimulus","","","2","26","","","","","","","","","",""
"","","","","","","","","","","","canvas-button-response","322","343132","0.0-322.0","828","car","","","","","","","","","","","","","","perceptual","","","2","26","","","","","57","car","6","0","1",""
"","","","","","","","","","","","canvas-button-response","323","343801","0.0-323.0","667","10","","","","","","","","","","","","","","confidence","","","2","26","","","","","","","","","","12"
"","","","","","","","","","","","preload","324","343802","0.0-324.0","","","","","true","","","","","","","","","","","preload","","","2","27","false","[]","[]","[]","","","","","",""
"","","","","","","","","","","","canvas-keyboard-response","325","344104","0.0-325.0","null","null","","","","","","","","","","","","","","fixation","","","2","27","","","","","","","","","",""
"","","","","","","","","","","","canvas-keyboard-response","326","344407","0.0-326.0","null","null","","","","","","","","","","","","","","stimulus","","","2","27","","","","","","","","","",""
"","","","","","","","","","","","canvas-button-response","327","345325","0.0-327.0","916","car","","","","","","","","","","","","","","perceptual","","","2","27","","","","","59","car","6","0","1",""
"","","","","","","","","","","","canvas-button-response","328","346042","0.0-328.0","715","10","","","","","","","","","","","","","","confidence","","","2","27","","","","","","","","","","13"
"","","","","","","","","","","","preload","329","346043","0.0-329.0","","","","","true","","","","","","","","","","","preload","","","2","28","false","[]","[]","[]","","","","","",""
"","","","","","","","","","","","canvas-keyboard-response","330","346346","0.0-330.0","null","null","","","","","","","","","","","","","","fixation","","","2","28","","","","","","","","","",""
"","","","","","","","","","","","canvas-keyboard-response","331","346649","0.0-331.0","null","null","","","","","","","","","","","","","","stimulus","","","2","28","","","","","","","","","",""
"","","","","","","","","","","","canvas-button-response","332","347749","0.0-332.0","1098","bridge","","","","","","","","","","","","","","perceptual","","","2","28","","","","","10","house","6","0","0",""
"","","","","","","","","","","","canvas-button-response","333","348211","0.0-333.0","460","2","","","","","","","","","","","","","","confidence","","","2","28","","","","","","","","","","13"
"","","","","","","","","","","","preload","334","348212","0.0-334.0","","","","","true","","","","","","","","","","","preload","","","2","29","false","[]","[]","[]","","","","","",""
"","","","","","","","","","","","canvas-keyboard-response","335","348515","0.0-335.0","null","null","","","","","","","","","","","","","","fixation","","","2","29","","","","","","","","","",""
"","","","","","","","","","","","canvas-keyboard-response","336","348816","0.0-336.0","null","null","","","","","","","","","","","","","","stimulus","","","2","29","","","","","","","","","",""
"","","","","","","","","","","","canvas-button-response","337","349496","0.0-337.0","678","bridge","","","","","","","","","","","","","","perceptual","","","2","29","","","","","24","house","10","0","0",""
"","","","","","","","","","","","canvas-button-response","338","350366","0.0-338.0","867","1","","","","","","","","","","","","","","confidence","","","2","29","","","","","","","","","","13"
"","","","","","","","","","","","preload","339","350367","0.0-339.0","","","","","true","","","","","","","","","","","preload","","","2","30","false","[]","[]","[]","","","","","",""
"","","","","","","","","","","","canvas-keyboard-response","340","350669","0.0-340.0","null","null","","","","","","","","","","","","","","fixation","","","2","30","","","","","","","","","",""
"","","","","","","","","","","","canvas-keyboard-response","341","350971","0.0-341.0","null","null","","","","","","","","","","","","","","stimulus","","","2","30","","","","","","","","","",""
"","","","","","","","","","","","canvas-button-response","342","353045","0.0-342.0","2072","flower","","","","","","","","","","","","","","perceptual","","","2","30","","","","","272","train","10","0","0",""
"","","","","","","","","","","","canvas-button-response","343","353738","0.0-343.0","691","4","","","","","","","","","","","","","","confidence","","","2","30","","","","","","","","","","13"
"","","","","","","","","","","","preload","344","353739","0.0-344.0","","","","","true","","","","","","","","","","","preload","","","2","31","false","[]","[]","[]","","","","","",""
"","","","","","","","","","","","canvas-keyboard-response","345","354042","0.0-345.0","null","null","","","","","","","","","","","","","","fixation","","","2","31","","","","","","","","","",""
"","","","","","","","","","","","canvas-keyboard-response","346","354345","0.0-346.0","null","null","","","","","","","","","","","","","","stimulus","","","2","31","","","","","","","","","",""
"","","","","","","","","","","","canvas-button-response","347","357703","0.0-347.0","3356","bridge","","","","","","","","","","","","","","perceptual","","","2","31","","","","","139","bed","6","0","0",""
"","","","","","","","","","","","canvas-button-response","348","358629","0.0-348.0","924","2","","","","","","","","","","","","","","confidence","","","2","31","","","","","","","","","","13"
"","","","","","","","","","","","preload","349","358630","0.0-349.0","","","","","true","","","","","","","","","","","preload","","","2","32","false","[]","[]","[]","","","","","",""
"","","","","","","","","","","","canvas-keyboard-response","350","358932","0.0-350.0","null","null","","","","","","","","","","","","","","fixation","","","2","32","","","","","","","","","",""
"","","","","","","","","","","","canvas-keyboard-response","351","359235","0.0-351.0","null","null","","","","","","","","","","","","","","stimulus","","","2","32","","","","","","","","","",""
"","","","","","","","","","","","canvas-button-response","352","360503","0.0-352.0","1266","knife","","","","","","","","","","","","","","perceptual","","","2","32","","","","","366","knife","6","0","1",""
"","","","","","","","","","","","canvas-button-response","353","361078","0.0-353.0","572","4","","","","","","","","","","","","","","confidence","","","2","32","","","","","","","","","","14"
"","","","","","","","","","","","preload","354","361079","0.0-354.0","","","","","true","","","","","","","","","","","preload","","","2","33","false","[]","[]","[]","","","","","",""
"","","","","","","","","","","","canvas-keyboard-response","355","361381","0.0-355.0","null","null","","","","","","","","","","","","","","fixation","","","2","33","","","","","","","","","",""
"","","","","","","","","","","","canvas-keyboard-response","356","361684","0.0-356.0","null","null","","","","","","","","","","","","","","stimulus","","","2","33","","","","","","","","","",""
"","","","","","","","","","","","canvas-button-response","357","362896","0.0-357.0","1210","flower","","","","","","","","","","","","","","perceptual","","","2","33","","","","","211","flower","6","0","1",""
"","","","","","","","","","","","canvas-button-response","358","363391","0.0-358.0","492","3","","","","","","","","","","","","","","confidence","","","2","33","","","","","","","","","","15"
"","","","","","","","","","","","preload","359","363392","0.0-359.0","","","","","true","","","","","","","","","","","preload","","","2","34","false","[]","[]","[]","","","","","",""
"","","","","","","","","","","","canvas-keyboard-response","360","363694","0.0-360.0","null","null","","","","","","","","","","","","","","fixation","","","2","34","","","","","","","","","",""
"","","","","","","","","","","","canvas-keyboard-response","361","363997","0.0-361.0","null","null","","","","","","","","","","","","","","stimulus","","","2","34","","","","","","","","","",""
"","","","","","","","","","","","canvas-button-response","362","365073","0.0-362.0","1074","elephant","","","","","","","","","","","","","","perceptual","","","2","34","","","","","300","cat","10","0","0",""
"","","","","","","","","","","","canvas-button-response","363","365719","0.0-363.0","643","2","","","","","","","","","","","","","","confidence","","","2","34","","","","","","","","","","15"
"","","","","","","","","","","","preload","364","365720","0.0-364.0","","","","","true","","","","","","","","","","","preload","","","2","35","false","[]","[]","[]","","","","","",""
"","","","","","","","","","","","canvas-keyboard-response","365","366022","0.0-365.0","null","null","","","","","","","","","","","","","","fixation","","","2","35","","","","","","","","","",""
"","","","","","","","","","","","canvas-keyboard-response","366","366325","0.0-366.0","null","null","","","","","","","","","","","","","","stimulus","","","2","35","","","","","","","","","",""
"","","","","","","","","","","","canvas-button-response","367","367442","0.0-367.0","1115","house","","","","","","","","","","","","","","perceptual","","","2","35","","","","","125","bed","6","0","0",""
"","","","","","","","","","","","canvas-button-response","368","367920","0.0-368.0","476","2","","","","","","","","","","","","","","confidence","","","2","35","","","","","","","","","","15"
"","","","","","","","","","","","preload","369","367921","0.0-369.0","","","","","true","","","","","","","","","","","preload","","","2","36","false","[]","[]","[]","","","","","",""
"","","","","","","","","","","","canvas-keyboard-response","370","368222","0.0-370.0","null","null","","","","","","","","","","","","","","fixation","","","2","36","","","","","","","","","",""
"","","","","","","","","","","","canvas-keyboard-response","371","368525","0.0-371.0","null","null","","","","","","","","","","","","","","stimulus","","","2","36","","","","","","","","","",""
"","","","","","","","","","","","canvas-button-response","372","369068","0.0-372.0","540","knife","","","","","","","","","","","","","","perceptual","","","2","36","","","","","17","house","6","0","0",""
"","","","","","","","","","","","canvas-button-response","373","371206","0.0-373.0","2136","0","","","","","","","","","","","","","","confidence","","","2","36","","","","","","","","","","15"
"","","","","","","","","","","","preload","374","371207","0.0-374.0","","","","","true","","","","","","","","","","","preload","","","2","37","false","[]","[]","[]","","","","","",""
"","","","","","","","","","","","canvas-keyboard-response","375","371509","0.0-375.0","null","null","","","","","","","","","","","","","","fixation","","","2","37","","","","","","","","","",""
"","","","","","","","","","","","canvas-keyboard-response","376","371812","0.0-376.0","null","null","","","","","","","","","","","","","","stimulus","","","2","37","","","","","","","","","",""
"","","","","","","","","","","","canvas-button-response","377","372784","0.0-377.0","970","car","","","","","","","","","","","","","","perceptual","","","2","37","","","","","267","train","10","0","0",""
"","","","","","","","","","","","canvas-button-response","378","373789","0.0-378.0","1003","4","","","","","","","","","","","","","","confidence","","","2","37","","","","","","","","","","15"
"","","","","","","","","","","","preload","379","373790","0.0-379.0","","","","","true","","","","","","","","","","","preload","","","2","38","false","[]","[]","[]","","","","","",""
"","","","","","","","","","","","canvas-keyboard-response","380","374093","0.0-380.0","null","null","","","","","","","","","","","","","","fixation","","","2","38","","","","","","","","","",""
"","","","","","","","","","","","canvas-keyboard-response","381","374396","0.0-381.0","null","null","","","","","","","","","","","","","","stimulus","","","2","38","","","","","","","","","",""
"","","","","","","","","","","","canvas-button-response","382","375162","0.0-382.0","764","house","","","","","","","","","","","","","","perceptual","","","2","38","","","","","152","bed","10","0","0",""
"","","","","","","","","","","","canvas-button-response","383","376055","0.0-383.0","891","2","","","","","","","","","","","","","","confidence","","","2","38","","","","","","","","","","15"
"","","","","","","","","","","","preload","384","376056","0.0-384.0","","","","","true","","","","","","","","","","","preload","","","2","39","false","[]","[]","[]","","","","","",""
"","","","","","","","","","","","canvas-keyboard-response","385","376357","0.0-385.0","null","null","","","","","","","","","","","","","","fixation","","","2","39","","","","","","","","","",""
"","","","","","","","","","","","canvas-keyboard-response","386","376660","0.0-386.0","null","null","","","","","","","","","","","","","","stimulus","","","2","39","","","","","","","","","",""
"","","","","","","","","","","","canvas-button-response","387","377299","0.0-387.0","637","bed","","","","","","","","","","","","","","perceptual","","","2","39","","","","","204","flower","6","0","0",""
"","","","","","","","","","","","canvas-button-response","388","378209","0.0-388.0","907","3","","","","","","","","","","","","","","confidence","","","2","39","","","","","","","","","","15"
"","","","","","","","","","","","preload","389","378210","0.0-389.0","","","","","true","","","","","","","","","","","preload","","","2","40","false","[]","[]","[]","","","","","",""
"","","","","","","","","","","","canvas-keyboard-response","390","378511","0.0-390.0","null","null","","","","","","","","","","","","","","fixation","","","2","40","","","","","","","","","",""
"","","","","","","","","","","","canvas-keyboard-response","391","378813","0.0-391.0","null","null","","","","","","","","","","","","","","stimulus","","","2","40","","","","","","","","","",""
"","","","","","","","","","","","canvas-button-response","392","379676","0.0-392.0","860","train","","","","","","","","","","","","","","perceptual","","","2","40","","","","","149","bed","10","0","0",""
"","","","","","","","","","","","canvas-button-response","393","380481","0.0-393.0","803","2","","","","","","","","","","","","","","confidence","","","2","40","","","","","","","","","","15"
"","","","","","","","","","","","preload","394","380482","0.0-394.0","","","","","true","","","","","","","","","","","preload","","","2","41","false","[]","[]","[]","","","","","",""
"","","","","","","","","","","","canvas-keyboard-response","395","380785","0.0-395.0","null","null","","","","","","","","","","","","","","fixation","","","2","41","","","","","","","","","",""
"","","","","","","","","","","","canvas-keyboard-response","396","381087","0.0-396.0","null","null","","","","","","","","","","","","","","stimulus","","","2","41","","","","","","","","","",""
"","","","","","","","","","","","canvas-button-response","397","382450","0.0-397.0","1361","flower","","","","","","","","","","","","","","perceptual","","","2","41","","","","","230","flower","10","0","1",""
"","","","","","","","","","","","canvas-button-response","398","383216","0.0-398.0","764","10","","","","","","","","","","","","","","confidence","","","2","41","","","","","","","","","","16"
"","","","","","","","","","","","preload","399","383218","0.0-399.0","","","","","true","","","","","","","","","","","preload","","","2","42","false","[]","[]","[]","","","","","",""
"","","","","","","","","","","","canvas-keyboard-response","400","383520","0.0-400.0","null","null","","","","","","","","","","","","","","fixation","","","2","42","","","","","","","","","",""
"","","","","","","","","","","","canvas-keyboard-response","401","383823","0.0-401.0","null","null","","","","","","","","","","","","","","stimulus","","","2","42","","","","","","","","","",""
"","","","","","","","","","","","canvas-button-response","402","384468","0.0-402.0","644","bridge","","","","","","","","","","","","","","perceptual","","","2","42","","","","","113","phone","10","0","0",""
"","","","","","","","","","","","canvas-button-response","403","384940","0.0-403.0","469","3","","","","","","","","","","","","","","confidence","","","2","42","","","","","","","","","","16"
"","","","","","","","","","","","preload","404","384941","0.0-404.0","","","","","true","","","","","","","","","","","preload","","","2","43","false","[]","[]","[]","","","","","",""
"","","","","","","","","","","","canvas-keyboard-response","405","385243","0.0-405.0","null","null","","","","","","","","","","","","","","fixation","","","2","43","","","","","","","","","",""
"","","","","","","","","","","","canvas-keyboard-response","406","385544","0.0-406.0","null","null","","","","","","","","","","","","","","stimulus","","","2","43","","","","","","","","","",""
"","","","","","","","","","","","canvas-button-response","407","386311","0.0-407.0","765","train","","","","","","","","","","","","","","perceptual","","","2","43","","","","","168","bridge","6","0","0",""
"","","","","","","","","","","","canvas-button-response","408","386854","0.0-408.0","540","6","","","","","","","","","","","","","","confidence","","","2","43","","","","","","","","","","16"
"","","","","","","","","","","","preload","409","386855","0.0-409.0","","","","","true","","","","","","","","","","","preload","","","2","44","false","[]","[]","[]","","","","","",""
"","","","","","","","","","","","canvas-keyboard-response","410","387157","0.0-410.0","null","null","","","","","","","","","","","","","","fixation","","","2","44","","","","","","","","","",""
"","","","","","","","","","","","canvas-keyboard-response","411","387460","0.0-411.0","null","null","","","","","","","","","","","","","","stimulus","","","2","44","","","","","","","","","",""
"","","","","","","","","","","","canvas-button-response","412","388583","0.0-412.0","1122","house","","","","","","","","","","","","","","perceptual","","","2","44","","","","","14","house","6","0","1",""
"","","","","","","","","","","","canvas-button-response","413","389277","0.0-413.0","692","3","","","","","","","","","","","","","","confidence","","","2","44","","","","","","","","","","17"
"","","","","","","","","","","","preload","414","389278","0.0-414.0","","","","","true","","","","","","","","","","","preload","","","2","45","false","[]","[]","[]","","","","","",""
"","","","","","","","","","","","canvas-keyboard-response","415","389581","0.0-415.0","null","null","","","","","","","","","","","","","","fixation","","","2","45","","","","","","","","","",""
"","","","","","","","","","","","canvas-keyboard-response","416","389884","0.0-416.0","null","null","","","","","","","","","","","","","","stimulus","","","2","45","","","","","","","","","",""
"","","","","","","","","","","","canvas-button-response","417","390888","0.0-417.0","1003","bed","","","","","","","","","","","","","","perceptual","","","2","45","","","","","249","train","6","0","0",""
"","","","","","","","","","","","canvas-button-response","418","391431","0.0-418.0","541","2","","","","","","","","","","","","","","confidence","","","2","45","","","","","","","","","","17"
"","","","","","","","","","","","preload","419","391433","0.0-419.0","","","","","true","","","","","","","","","","","preload","","","2","46","false","[]","[]","[]","","","","","",""
"","","","","","","","","","","","canvas-keyboard-response","420","391735","0.0-420.0","null","null","","","","","","","","","","","","","","fixation","","","2","46","","","","","","","","","",""
"","","","","","","","","","","","canvas-keyboard-response","421","392038","0.0-421.0","null","null","","","","","","","","","","","","","","stimulus","","","2","46","","","","","","","","","",""
"","","","","","","","","","","","canvas-button-response","422","392763","0.0-422.0","723","cat","","","","","","","","","","","","","","perceptual","","","2","46","","","","","13","house","6","0","0",""
"","","","","","","","","","","","canvas-button-response","423","393313","0.0-423.0","548","2","","","","","","","","","","","","","","confidence","","","2","46","","","","","","","","","","17"
"","","","","","","","","","","","preload","424","393315","0.0-424.0","","","","","true","","","","","","","","","","","preload","","","2","47","false","[]","[]","[]","","","","","",""
"","","","","","","","","","","","canvas-keyboard-response","425","393618","0.0-425.0","null","null","","","","","","","","","","","","","","fixation","","","2","47","","","","","","","","","",""
"","","","","","","","","","","","canvas-keyboard-response","426","393921","0.0-426.0","null","null","","","","","","","","","","","","","","stimulus","","","2","47","","","","","","","","","",""
"","","","","","","","","","","","canvas-button-response","427","394525","0.0-427.0","602","cat","","","","","","","","","","","","","","perceptual","","","2","47","","","","","283","cat","6","0","1",""
"","","","","","","","","","","","canvas-button-response","428","395227","0.0-428.0","701","10","","","","","","","","","","","","","","confidence","","","2","47","","","","","","","","","","18"
"","","","","","","","","","","","preload","429","395228","0.0-429.0","","","","","true","","","","","","","","","","","preload","","","2","48","false","[]","[]","[]","","","","","",""
"","","","","","","","","","","","canvas-keyboard-response","430","395531","0.0-430.0","null","null","","","","","","","","","","","","","","fixation","","","2","48","","","","","","","","","",""
"","","","","","","","","","","","canvas-keyboard-response","431","395833","0.0-431.0","null","null","","","","","","","","","","","","","","stimulus","","","2","48","","","","","","","","","",""
"","","","","","","","","","","","canvas-button-response","432","396630","0.0-432.0","794","elephant","","","","","","","","","","","","","","perceptual","","","2","48","","","","","339","elephant","6","0","1",""
"","","","","","","","","","","","canvas-button-response","433","397141","0.0-433.0","509","10","","","","","","","","","","","","","","confidence","","","2","48","","","","","","","","","","19"
"","","","","","","","","","","","preload","434","397142","0.0-434.0","","","","","true","","","","","","","","","","","preload","","","2","49","false","[]","[]","[]","","","","","",""
"","","","","","","","","","","","canvas-keyboard-response","435","397444","0.0-435.0","null","null","","","","","","","","","","","","","","fixation","","","2","49","","","","","","","","","",""
"","","","","","","","","","","","canvas-keyboard-response","436","397747","0.0-436.0","null","null","","","","","","","","","","","","","","stimulus","","","2","49","","","","","","","","","",""
"","","","","","","","","","","","canvas-button-response","437","399533","0.0-437.0","1785","bridge","","","","","","","","","","","","","","perceptual","","","2","49","","","","","164","bridge","6","0","1",""
"","","","","","","","","","","","canvas-button-response","438","400140","0.0-438.0","604","10","","","","","","","","","","","","","","confidence","","","2","49","","","","","","","","","","20"
"","","","","","","","","","","","html-button-response","439","404634","0.0-439.0","4492","0","","","","","","","","","","","","","","<p style=""font-size:20px;color:#000000"">You got 20 out of 50 trials correct in this block.<br><br>You have completed 6% of the experiment.<br><br>Take a short break.<br><br>When you are ready, click Continue to proceed.","","","2","49","","","","","","","","","",""
"","","","","","","","","","","","html-keyboard-response","440","405637","0.0-440.0","null","null","","","","","","","","","","","","","","<p style=""font-size:32px;color:#000000""><br><br> RUN: &nbsp 1/4 <br><br> BLOCK: 2/4 ","","","2","49","","","","","","","","","",""
"","","","","","","","","","","","preload","441","405638","0.0-441.0","","","","","true","","","","","","","","","","","preload","","","2","50","false","[]","[]","[]","","","","","",""
"","","","","","","","","","","","canvas-keyboard-response","442","405941","0.0-442.0","null","null","","","","","","","","","","","","","","fixation","","","2","50","","","","","","","","","",""
"","","","","","","","","","","","canvas-keyboard-response","443","406244","0.0-443.0","null","null","","","","","","","","","","","","","","stimulus","","","2","50","","","","","","","","","",""
"","","","","","","","","","","","canvas-button-response","444","409682","0.0-444.0","3436","bridge","","","","","","","","","","","","","","perceptual","","","2","50","","","","","343","elephant","10","0","0",""
"","","","","","","","","","","","canvas-button-response","445","410136","0.0-445.0","452","2","","","","","","","","","","","","","","confidence","","","2","50","","","","","","","","","","0"
"","","","","","","","","","","","preload","446","410137","0.0-446.0","","","","","true","","","","","","","","","","","preload","","","2","51","false","[]","[]","[]","","","","","",""
"","","","","","","","","","","","canvas-keyboard-response","447","410440","0.0-447.0","null","null","","","","","","","","","","","","","","fixation","","","2","51","","","","","","","","","",""
"","","","","","","","","","","","canvas-keyboard-response","448","410742","0.0-448.0","null","null","","","","","","","","","","","","","","stimulus","","","2","51","","","","","","","","","",""
"","","","","","","","","","","","canvas-button-response","449","411683","0.0-449.0","939","knife","","","","","","","","","","","","","","perceptual","","","2","51","","","","","373","knife","6","0","1",""
"","","","","","","","","","","","canvas-button-response","450","412210","0.0-450.0","525","2","","","","","","","","","","","","","","confidence","","","2","51","","","","","","","","","","1"
"","","","","","","","","","","","preload","451","412211","0.0-451.0","","","","","true","","","","","","","","","","","preload","","","2","52","false","[]","[]","[]","","","","","",""
"","","","","","","","","","","","canvas-keyboard-response","452","412514","0.0-452.0","null","null","","","","","","","","","","","","","","fixation","","","2","52","","","","","","","","","",""
"","","","","","","","","","","","canvas-keyboard-response","453","412817","0.0-453.0","null","null","","","","","","","","","","","","","","stimulus","","","2","52","","","","","","","","","",""
"","","","","","","","","","","","canvas-button-response","454","413645","0.0-454.0","826","car","","","","","","","","","","","","","","perceptual","","","2","52","","","","","60","car","10","0","1",""
"","","","","","","","","","","","canvas-button-response","455","414300","0.0-455.0","653","10","","","","","","","","","","","","","","confidence","","","2","52","","","","","","","","","","2"
"","","","","","","","","","","","preload","456","414301","0.0-456.0","","","","","true","","","","","","","","","","","preload","","","2","53","false","[]","[]","[]","","","","","",""
"","","","","","","","","","","","canvas-keyboard-response","457","414603","0.0-457.0","null","null","","","","","","","","","","","","","","fixation","","","2","53","","","","","","","","","",""
"","","","","","","","","","","","canvas-keyboard-response","458","414905","0.0-458.0","null","null","","","","","","","","","","","","","","stimulus","","","2","53","","","","","","","","","",""
"","","","","","","","","","","","canvas-button-response","459","415951","0.0-459.0","1043","car","","","","","","","","","","","","","","perceptual","","","2","53","","","","","79","car","10","0","1",""
"","","","","","","","","","","","canvas-button-response","460","416605","0.0-460.0","651","10","","","","","","","","","","","","","","confidence","","","2","53","","","","","","","","","","3"
"","","","","","","","","","","","preload","461","416606","0.0-461.0","","","","","true","","","","","","","","","","","preload","","","2","54","false","[]","[]","[]","","","","","",""
"","","","","","","","","","","","canvas-keyboard-response","462","416908","0.0-462.0","null","null","","","","","","","","","","","","","","fixation","","","2","54","","","","","","","","","",""
"","","","","","","","","","","","canvas-keyboard-response","463","417211","0.0-463.0","null","null","","","","","","","","","","","","","","stimulus","","","2","54","","","","","","","","","",""
"","","","","","","","","","","","canvas-button-response","464","418041","0.0-464.0","828","car","","","","","","","","","","","","","","perceptual","","","2","54","","","","","48","car","6","0","1",""
"","","","","","","","","","","","canvas-button-response","465","418535","0.0-465.0","492","10","","","","","","","","","","","","","","confidence","","","2","54","","","","","","","","","","4"
"","","","","","","","","","","","preload","466","418536","0.0-466.0","","","","","true","","","","","","","","","","","preload","","","2","55","false","[]","[]","[]","","","","","",""
"","","","","","","","","","","","canvas-keyboard-response","467","418839","0.0-467.0","null","null","","","","","","","","","","","","","","fixation","","","2","55","","","","","","","","","",""
"","","","","","","","","","","","canvas-keyboard-response","468","419141","0.0-468.0","null","null","","","","","","","","","","","","","","stimulus","","","2","55","","","","","","","","","",""
"","","","","","","","","","","","canvas-button-response","469","420265","0.0-469.0","1121","house","","","","","","","","","","","","","","perceptual","","","2","55","","","","","111","phone","10","0","0",""
"","","","","","","","","","","","canvas-button-response","470","420990","0.0-470.0","723","0","","","","","","","","","","","","","","confidence","","","2","55","","","","","","","","","","4"
"","","","","","","","","","","","preload","471","420991","0.0-471.0","","","","","true","","","","","","","","","","","preload","","","2","56","false","[]","[]","[]","","","","","",""
"","","","","","","","","","","","canvas-keyboard-response","472","421292","0.0-472.0","null","null","","","","","","","","","","","","","","fixation","","","2","56","","","","","","","","","",""
"","","","","","","","","","","","canvas-keyboard-response","473","421595","0.0-473.0","null","null","","","","","","","","","","","","","","stimulus","","","2","56","","","","","","","","","",""
"","","","","","","","","","","","canvas-button-response","474","424228","0.0-474.0","2632","flower","","","","","","","","","","","","","","perceptual","","","2","56","","","","","200","flower","6","0","1",""
"","","","","","","","","","","","canvas-button-response","475","424970","0.0-475.0","740","7","","","","","","","","","","","","","","confidence","","","2","56","","","","","","","","","","5"
"","","","","","","","","","","","preload","476","424971","0.0-476.0","","","","","true","","","","","","","","","","","preload","","","2","57","false","[]","[]","[]","","","","","",""
"","","","","","","","","","","","canvas-keyboard-response","477","425274","0.0-477.0","null","null","","","","","","","","","","","","","","fixation","","","2","57","","","","","","","","","",""
"","","","","","","","","","","","canvas-keyboard-response","478","425577","0.0-478.0","null","null","","","","","","","","","","","","","","stimulus","","","2","57","","","","","","","","","",""
"","","","","","","","","","","","canvas-button-response","479","426629","0.0-479.0","1051","elephant","","","","","","","","","","","","","","perceptual","","","2","57","","","","","301","cat","10","0","0",""
"","","","","","","","","","","","canvas-button-response","480","427260","0.0-480.0","628","3","","","","","","","","","","","","","","confidence","","","2","57","","","","","","","","","","5"
"","","","","","","","","","","","preload","481","427261","0.0-481.0","","","","","true","","","","","","","","","","","preload","","","2","58","false","[]","[]","[]","","","","","",""
"","","","","","","","","","","","canvas-keyboard-response","482","427563","0.0-482.0","null","null","","","","","","","","","","","","","","fixation","","","2","58","","","","","","","","","",""
"","","","","","","","","","","","canvas-keyboard-response","483","427866","0.0-483.0","null","null","","","","","","","","","","","","","","stimulus","","","2","58","","","","","","","","","",""
"","","","","","","","","","","","canvas-button-response","484","428847","0.0-484.0","978","cat","","","","","","","","","","","","","","perceptual","","","2","58","","","","","281","cat","6","0","1",""
"","","","","","","","","","","","canvas-button-response","485","429660","0.0-485.0","811","10","","","","","","","","","","","","","","confidence","","","2","58","","","","","","","","","","6"
"","","","","","","","","","","","preload","486","429661","0.0-486.0","","","","","true","","","","","","","","","","","preload","","","2","59","false","[]","[]","[]","","","","","",""
"","","","","","","","","","","","canvas-keyboard-response","487","429963","0.0-487.0","null","null","","","","","","","","","","","","","","fixation","","","2","59","","","","","","","","","",""
"","","","","","","","","","","","canvas-keyboard-response","488","430266","0.0-488.0","null","null","","","","","","","","","","","","","","stimulus","","","2","59","","","","","","","","","",""
"","","","","","","","","","","","canvas-button-response","489","433307","0.0-489.0","3039","bed","","","","","","","","","","","","","","perceptual","","","2","59","","","","","216","flower","6","0","0",""
"","","","","","","","","","","","canvas-button-response","490","433761","0.0-490.0","452","0","","","","","","","","","","","","","","confidence","","","2","59","","","","","","","","","","6"
"","","","","","","","","","","","preload","491","433762","0.0-491.0","","","","","true","","","","","","","","","","","preload","","","2","60","false","[]","[]","[]","","","","","",""
"","","","","","","","","","","","canvas-keyboard-response","492","434065","0.0-492.0","null","null","","","","","","","","","","","","","","fixation","","","2","60","","","","","","","","","",""
