"width","height","webaudio","browser","browser_version","mobile","os","fullscreen","vsync_rate","webcam","microphone","trial_type","trial_index","time_elapsed","internal_node_id","rt","response","accuracy","view_history","success","item_width_mm","item_height_mm","item_width_px","px2mm","view_dist_mm","item_width_deg","px2deg","scale_factor","win_width_deg","win_height_deg","stimulus","datetime","subjectID","curr_triallist","trial_no","timeout","failed_images","failed_audio","failed_video","image_index","category","blur","reps","correct","running_score"
"1470","832","true","chrome","140.0.0","false","Mac OS","true","60.19","true","true","browser-check","0","1002","0.0-0.0","","","","","","","","","","","","","","","","","","","","","","","","","","","","","",""
"","","","","","","","","","","","survey","1","26730","0.0-1.0","25687","{""P0_Q0"":""903921520"",""P0_Q1"":""20"",""P1_Q0"":""Male"",""P1_Q1"":""Not Hispanic or Latino"",""P1_Q2"":""White"",""P1_Q3"":""Normal"",""P1_Q4"":""Right-Handed""}","[]","","","","","","","","","","","","","","","","","","","","","","","","","","",""
"","","","","","","","","","","","instructions","2","80646","0.0-2.0","53916","","","[{""page_index"":0,""viewing_time"":8966},{""page_index"":1,""viewing_time"":24548},{""page_index"":2,""viewing_time"":16834},{""page_index"":3,""viewing_time"":3567}]","","","","","","","","","","","","","","","","","","","","","","","","","",""
"","","","","","","","","","","","fullscreen","3","83282","0.0-3.0","1632","","","","true","","","","","","","","","","","","","","","","","","","","","","","","",""
"","","","","","","","","","","","virtual-chinrest","4","152451","0.0-4.0","69167","","","","","85.6","53.98","306.664455594495","3.582666476416456","478.52","10.2221485198165","30","1.3565315197470433","49","30.666666666666668","","","","","","","","","","","","","","",""
"","","","","","","","","","","","instructions","5","257116","0.0-5.0","104665","","","[{""page_index"":0,""viewing_time"":11575},{""page_index"":1,""viewing_time"":6384},{""page_index"":2,""viewing_time"":11966},{""page_index"":3,""viewing_time"":5824},{""page_index"":4,""viewing_time"":15976},{""page_index"":5,""viewing_time"":48749},{""page_index"":6,""viewing_time"":4191}]","","","","","","","","","","","","","","","","","","","","","","","","","",""
"","","","","","","","","","","","html-button-response","6","275177","0.0-6.0","18057","0","","","","","","","","","","","","","","start_practice","Sun Oct 12 2025 14:32:09 GMT-0400 (Eastern Daylight Time)","27585","","","","","","","","","","","",""
"","","","","","","","","","","","preload","7","275179","0.0-7.0","","","","","true","","","","","","","","","","","preload","","","0","0","false","[]","[]","[]","","","","","",""
"","","","","","","","","","","","canvas-keyboard-response","8","275486","0.0-8.0","null","null","","","","","","","","","","","","","","fixation","","","0","0","","","","","","","","","",""
"","","","","","","","","","","","canvas-keyboard-response","9","275790","0.0-9.0","null","null","","","","","","","","","","","","","","stimulus","","","0","0","","","","","","","","","",""
"","","","","","","","","","","","canvas-button-response","10","281659","0.0-10.0","5865","flower","","","","","","","","","","","","","","perceptual","","","0","0","","","","","52","flower","1","","1",""
"","","","","","","","","","","","canvas-button-response","11","283193","0.0-11.0","1531","5","","","","","","","","","","","","","","confidence","","","0","0","","","","","","","","","","1"
"","","","","","","","","","","","html-keyboard-response","12","284197","0.0-12.0","null","null","","","","","","","","","","","","","","feedback","Sun Oct 12 2025 14:32:35 GMT-0400 (Eastern Daylight Time)","27585","0","0","","","","","","","","","",""
"","","","","","","","","","","","preload","13","284198","0.0-13.0","","","","","true","","","","","","","","","","","preload","","","0","1","false","[]","[]","[]","","","","","",""
"","","","","","","","","","","","canvas-keyboard-response","14","284501","0.0-14.0","null","null","","","","","","","","","","","","","","fixation","","","0","1","","","","","","","","","",""
"","","","","","","","","","","","canvas-keyboard-response","15","284804","0.0-15.0","null","null","","","","","","","","","","","","","","stimulus","","","0","1","","","","","","","","","",""
"","","","","","","","","","","","canvas-button-response","16","285842","0.0-16.0","1035","car","","","","","","","","","","","","","","perceptual","","","0","1","","","","","12","car","1","","1",""
"","","","","","","","","","","","canvas-button-response","17","286808","0.0-17.0","963","10","","","","","","","","","","","","","","confidence","","","0","1","","","","","","","","","","2"
"","","","","","","","","","","","html-keyboard-response","18","287812","0.0-18.0","null","null","","","","","","","","","","","","","","feedback","Sun Oct 12 2025 14:32:38 GMT-0400 (Eastern Daylight Time)","27585","0","1","","","","","","","","","",""
"","","","","","","","","","","","preload","19","287813","0.0-19.0","","","","","true","","","","","","","","","","","preload","","","0","2","false","[]","[]","[]","","","","","",""
"","","","","","","","","","","","canvas-keyboard-response","20","288117","0.0-20.0","null","null","","","","","","","","","","","","","","fixation","","","0","2","","","","","","","","","",""
"","","","","","","","","","","","canvas-keyboard-response","21","288420","0.0-21.0","null","null","","","","","","","","","","","","","","stimulus","","","0","2","","","","","","","","","",""
"","","","","","","","","","","","canvas-button-response","22","290159","0.0-22.0","1736","bed","","","","","","","","","","","","","","perceptual","","","0","2","","","","","32","bed","1","","1",""
"","","","","","","","","","","","canvas-button-response","23","291925","0.0-23.0","1764","10","","","","","","","","","","","","","","confidence","","","0","2","","","","","","","","","","3"
"","","","","","","","","","","","html-keyboard-response","24","292928","0.0-24.0","null","null","","","","","","","","","","","","","","feedback","Sun Oct 12 2025 14:32:44 GMT-0400 (Eastern Daylight Time)","27585","0","2","","","","","","","","","",""
"","","","","","","","","","","","preload","25","292930","0.0-25.0","","","","","true","","","","","","","","","","","preload","","","0","3","false","[]","[]","[]","","","","","",""
"","","","","","","","","","","","canvas-keyboard-response","26","293234","0.0-26.0","null","null","","","","","","","","","","","","","","fixation","","","0","3","","","","","","","","","",""
"","","","","","","","","","","","canvas-keyboard-response","27","293537","0.0-27.0","null","null","","","","","","","","","","","","","","stimulus","","","0","3","","","","","","","","","",""
"","","","","","","","","","","","canvas-button-response","28","301210","0.0-28.0","7669","house","","","","","","","","","","","","","","perceptual","","","0","3","","","","","82","elephant","1","","0",""
"","","","","","","","","","","","canvas-button-response","29","301874","0.0-29.0","662","4","","","","","","","","","","","","","","confidence","","","0","3","","","","","","","","","","3"
"","","","","","","","","","","","html-keyboard-response","30","302877","0.0-30.0","null","null","","","","","","","","","","","","","","feedback","Sun Oct 12 2025 14:32:53 GMT-0400 (Eastern Daylight Time)","27585","0","3","","","","","","","","","",""
"","","","","","","","","","","","preload","31","302878","0.0-31.0","","","","","true","","","","","","","","","","","preload","","","0","4","false","[]","[]","[]","","","","","",""
"","","","","","","","","","","","canvas-keyboard-response","32","303181","0.0-32.0","null","null","","","","","","","","","","","","","","fixation","","","0","4","","","","","","","","","",""
"","","","","","","","","","","","canvas-keyboard-response","33","303484","0.0-33.0","null","null","","","","","","","","","","","","","","stimulus","","","0","4","","","","","","","","","",""
"","","","","","","","","","","","canvas-button-response","34","306509","0.0-34.0","3022","knife","","","","","","","","","","","","","","perceptual","","","0","4","","","","","92","knife","1","","1",""
"","","","","","","","","","","","canvas-button-response","35","307560","0.0-35.0","1048","10","","","","","","","","","","","","","","confidence","","","0","4","","","","","","","","","","4"
"","","","","","","","","","","","html-keyboard-response","36","308563","0.0-36.0","null","null","","","","","","","","","","","","","","feedback","Sun Oct 12 2025 14:32:59 GMT-0400 (Eastern Daylight Time)","27585","0","4","","","","","","","","","",""
"","","","","","","","","","","","preload","37","308564","0.0-37.0","","","","","true","","","","","","","","","","","preload","","","0","5","false","[]","[]","[]","","","","","",""
"","","","","","","","","","","","canvas-keyboard-response","38","308868","0.0-38.0","null","null","","","","","","","","","","","","","","fixation","","","0","5","","","","","","","","","",""
"","","","","","","","","","","","canvas-keyboard-response","39","309172","0.0-39.0","null","null","","","","","","","","","","","","","","stimulus","","","0","5","","","","","","","","","",""
"","","","","","","","","","","","canvas-button-response","40","310292","0.0-40.0","1118","cat","","","","","","","","","","","","","","perceptual","","","0","5","","","","","72","cat","1","","1",""
"","","","","","","","","","","","canvas-button-response","41","311059","0.0-41.0","764","10","","","","","","","","","","","","","","confidence","","","0","5","","","","","","","","","","5"
"","","","","","","","","","","","html-keyboard-response","42","312063","0.0-42.0","null","null","","","","","","","","","","","","","","feedback","Sun Oct 12 2025 14:33:03 GMT-0400 (Eastern Daylight Time)","27585","0","5","","","","","","","","","",""
"","","","","","","","","","","","preload","43","312064","0.0-43.0","","","","","true","","","","","","","","","","","preload","","","0","6","false","[]","[]","[]","","","","","",""
"","","","","","","","","","","","canvas-keyboard-response","44","312367","0.0-44.0","null","null","","","","","","","","","","","","","","fixation","","","0","6","","","","","","","","","",""
"","","","","","","","","","","","canvas-keyboard-response","45","312670","0.0-45.0","null","null","","","","","","","","","","","","","","stimulus","","","0","6","","","","","","","","","",""
"","","","","","","","","","","","canvas-button-response","46","313675","0.0-46.0","1002","bridge","","","","","","","","","","","","","","perceptual","","","0","6","","","","","42","bridge","1","","1",""
"","","","","","","","","","","","canvas-button-response","47","314525","0.0-47.0","847","10","","","","","","","","","","","","","","confidence","","","0","6","","","","","","","","","","6"
"","","","","","","","","","","","html-keyboard-response","48","315528","0.0-48.0","null","null","","","","","","","","","","","","","","feedback","Sun Oct 12 2025 14:33:06 GMT-0400 (Eastern Daylight Time)","27585","0","6","","","","","","","","","",""
"","","","","","","","","","","","preload","49","315529","0.0-49.0","","","","","true","","","","","","","","","","","preload","","","0","7","false","[]","[]","[]","","","","","",""
"","","","","","","","","","","","canvas-keyboard-response","50","315832","0.0-50.0","null","null","","","","","","","","","","","","","","fixation","","","0","7","","","","","","","","","",""
"","","","","","","","","","","","canvas-keyboard-response","51","316134","0.0-51.0","null","null","","","","","","","","","","","","","","stimulus","","","0","7","","","","","","","","","",""
"","","","","","","","","","","","canvas-button-response","52","316925","0.0-52.0","788","train","","","","","","","","","","","","","","perceptual","","","0","7","","","","","62","train","1","","1",""
"","","","","","","","","","","","canvas-button-response","53","317626","0.0-53.0","698","10","","","","","","","","","","","","","","confidence","","","0","7","","","","","","","","","","7"
"","","","","","","","","","","","html-keyboard-response","54","318629","0.0-54.0","null","null","","","","","","","","","","","","","","feedback","Sun Oct 12 2025 14:33:09 GMT-0400 (Eastern Daylight Time)","27585","0","7","","","","","","","","","",""
"","","","","","","","","","","","preload","55","318631","0.0-55.0","","","","","true","","","","","","","","","","","preload","","","0","8","false","[]","[]","[]","","","","","",""
"","","","","","","","","","","","canvas-keyboard-response","56","318933","0.0-56.0","null","null","","","","","","","","","","","","","","fixation","","","0","8","","","","","","","","","",""
"","","","","","","","","","","","canvas-keyboard-response","57","319237","0.0-57.0","null","null","","","","","","","","","","","","","","stimulus","","","0","8","","","","","","","","","",""
"","","","","","","","","","","","canvas-button-response","58","320376","0.0-58.0","1136","house","","","","","","","","","","","","","","perceptual","","","0","8","","","","","2","house","1","","1",""
"","","","","","","","","","","","canvas-button-response","59","321206","0.0-59.0","828","10","","","","","","","","","","","","","","confidence","","","0","8","","","","","","","","","","8"
"","","","","","","","","","","","html-keyboard-response","60","322209","0.0-60.0","null","null","","","","","","","","","","","","","","feedback","Sun Oct 12 2025 14:33:13 GMT-0400 (Eastern Daylight Time)","27585","0","8","","","","","","","","","",""
"","","","","","","","","","","","preload","61","322210","0.0-61.0","","","","","true","","","","","","","","","","","preload","","","0","9","false","[]","[]","[]","","","","","",""
"","","","","","","","","","","","canvas-keyboard-response","62","322513","0.0-62.0","null","null","","","","","","","","","","","","","","fixation","","","0","9","","","","","","","","","",""
"","","","","","","","","","","","canvas-keyboard-response","63","322816","0.0-63.0","null","null","","","","","","","","","","","","","","stimulus","","","0","9","","","","","","","","","",""
"","","","","","","","","","","","canvas-button-response","64","325109","0.0-64.0","2290","phone","","","","","","","","","","","","","","perceptual","","","0","9","","","","","22","phone","1","","1",""
"","","","","","","","","","","","canvas-button-response","65","325891","0.0-65.0","780","10","","","","","","","","","","","","","","confidence","","","0","9","","","","","","","","","","9"
"","","","","","","","","","","","html-keyboard-response","66","326894","0.0-66.0","null","null","","","","","","","","","","","","","","feedback","Sun Oct 12 2025 14:33:18 GMT-0400 (Eastern Daylight Time)","27585","0","9","","","","","","","","","",""
"","","","","","","","","","","","html-button-response","67","341025","0.0-67.0","14128","0","","","","","","","","","","","","","","start_practice","Sun Oct 12 2025 14:33:19 GMT-0400 (Eastern Daylight Time)","27585","0","9","","","","","","","","","",""
"","","","","","","","","","","","preload","68","341027","0.0-68.0","","","","","true","","","","","","","","","","","preload","","","1","0","false","[]","[]","[]","","","","","",""
"","","","","","","","","","","","canvas-keyboard-response","69","341329","0.0-69.0","null","null","","","","","","","","","","","","","","fixation","","","1","0","","","","","","","","","",""
"","","","","","","","","","","","canvas-keyboard-response","70","341632","0.0-70.0","null","null","","","","","","","","","","","","","","stimulus","","","1","0","","","","","","","","","",""
"","","","","","","","","","","","canvas-button-response","71","345041","0.0-71.0","3407","bed","","","","","","","","","","","","","","perceptual","","","1","0","","","","","54","flower","6","","0",""
"","","","","","","","","","","","canvas-button-response","72","346092","0.0-72.0","1048","10","","","","","","","","","","","","","","confidence","","","1","0","","","","","","","","","","0"
"","","","","","","","","","","","html-keyboard-response","73","347096","0.0-73.0","null","null","","","","","","","","","","","","","","feedback","Sun Oct 12 2025 14:33:38 GMT-0400 (Eastern Daylight Time)","27585","1","0","","","","","","","","","",""
"","","","","","","","","","","","preload","74","347097","0.0-74.0","","","","","true","","","","","","","","","","","preload","","","1","1","false","[]","[]","[]","","","","","",""
"","","","","","","","","","","","canvas-keyboard-response","75","347400","0.0-75.0","null","null","","","","","","","","","","","","","","fixation","","","1","1","","","","","","","","","",""
"","","","","","","","","","","","canvas-keyboard-response","76","347703","0.0-76.0","null","null","","","","","","","","","","","","","","stimulus","","","1","1","","","","","","","","","",""
"","","","","","","","","","","","canvas-button-response","77","352224","0.0-77.0","4519","cat","","","","","","","","","","","","","","perceptual","","","1","1","","","","","37","bed","10","","0",""
"","","","","","","","","","","","canvas-button-response","78","354725","0.0-78.0","2498","1","","","","","","","","","","","","","","confidence","","","1","1","","","","","","","","","","0"
"","","","","","","","","","","","html-keyboard-response","79","355727","0.0-79.0","null","null","","","","","","","","","","","","","","feedback","Sun Oct 12 2025 14:33:46 GMT-0400 (Eastern Daylight Time)","27585","1","1","","","","","","","","","",""
"","","","","","","","","","","","preload","80","355728","0.0-80.0","","","","","true","","","","","","","","","","","preload","","","1","2","false","[]","[]","[]","","","","","",""
"","","","","","","","","","","","canvas-keyboard-response","81","356030","0.0-81.0","null","null","","","","","","","","","","","","","","fixation","","","1","2","","","","","","","","","",""
"","","","","","","","","","","","canvas-keyboard-response","82","356334","0.0-82.0","null","null","","","","","","","","","","","","","","stimulus","","","1","2","","","","","","","","","",""
"","","","","","","","","","","","canvas-button-response","83","360808","0.0-83.0","4471","bridge","","","","","","","","","","","","","","perceptual","","","1","2","","","","","57","flower","10","","0",""
"","","","","","","","","","","","canvas-button-response","84","362691","0.0-84.0","1881","4","","","","","","","","","","","","","","confidence","","","1","2","","","","","","","","","","0"
"","","","","","","","","","","","html-keyboard-response","85","363694","0.0-85.0","null","null","","","","","","","","","","","","","","feedback","Sun Oct 12 2025 14:33:54 GMT-0400 (Eastern Daylight Time)","27585","1","2","","","","","","","","","",""
"","","","","","","","","","","","preload","86","363695","0.0-86.0","","","","","true","","","","","","","","","","","preload","","","1","3","false","[]","[]","[]","","","","","",""
"","","","","","","","","","","","canvas-keyboard-response","87","363998","0.0-87.0","null","null","","","","","","","","","","","","","","fixation","","","1","3","","","","","","","","","",""
"","","","","","","","","","","","canvas-keyboard-response","88","364301","0.0-88.0","null","null","","","","","","","","","","","","","","stimulus","","","1","3","","","","","","","","","",""
"","","","","","","","","","","","canvas-button-response","89","365275","0.0-89.0","971","elephant","","","","","","","","","","","","","","perceptual","","","1","3","","","","","84","elephant","6","","1",""
"","","","","","","","","","","","canvas-button-response","90","366408","0.0-90.0","1130","10","","","","","","","","","","","","","","confidence","","","1","3","","","","","","","","","","1"
"","","","","","","","","","","","html-keyboard-response","91","367411","0.0-91.0","null","null","","","","","","","","","","","","","","feedback","Sun Oct 12 2025 14:33:58 GMT-0400 (Eastern Daylight Time)","27585","1","3","","","","","","","","","",""
"","","","","","","","","","","","preload","92","367412","0.0-92.0","","","","","true","","","","","","","","","","","preload","","","1","4","false","[]","[]","[]","","","","","",""
"","","","","","","","","","","","canvas-keyboard-response","93","367716","0.0-93.0","null","null","","","","","","","","","","","","","","fixation","","","1","4","","","","","","","","","",""
"","","","","","","","","","","","canvas-keyboard-response","94","368019","0.0-94.0","null","null","","","","","","","","","","","","","","stimulus","","","1","4","","","","","","","","","",""
"","","","","","","","","","","","canvas-button-response","95","369374","0.0-95.0","1352","bed","","","","","","","","","","","","","","perceptual","","","1","4","","","","","34","bed","6","","1",""
"","","","","","","","","","","","canvas-button-response","96","370241","0.0-96.0","864","10","","","","","","","","","","","","","","confidence","","","1","4","","","","","","","","","","2"
"","","","","","","","","","","","html-keyboard-response","97","371244","0.0-97.0","null","null","","","","","","","","","","","","","","feedback","Sun Oct 12 2025 14:34:02 GMT-0400 (Eastern Daylight Time)","27585","1","4","","","","","","","","","",""
"","","","","","","","","","","","preload","98","371245","0.0-98.0","","","","","true","","","","","","","","","","","preload","","","1","5","false","[]","[]","[]","","","","","",""
"","","","","","","","","","","","canvas-keyboard-response","99","371548","0.0-99.0","null","null","","","","","","","","","","","","","","fixation","","","1","5","","","","","","","","","",""
"","","","","","","","","","","","canvas-keyboard-response","100","371851","0.0-100.0","null","null","","","","","","","","","","","","","","stimulus","","","1","5","","","","","","","","","",""
"","","","","","","","","","","","canvas-button-response","101","374041","0.0-101.0","2187","house","","","","","","","","","","","","","","perceptual","","","1","5","","","","","27","phone","10","","0",""
"","","","","","","","","","","","canvas-button-response","102","375224","0.0-102.0","1180","10","","","","","","","","","","","","","","confidence","","","1","5","","","","","","","","","","2"
"","","","","","","","","","","","html-keyboard-response","103","376227","0.0-103.0","null","null","","","","","","","","","","","","","","feedback","Sun Oct 12 2025 14:34:07 GMT-0400 (Eastern Daylight Time)","27585","1","5","","","","","","","","","",""
"","","","","","","","","","","","preload","104","376228","0.0-104.0","","","","","true","","","","","","","","","","","preload","","","1","6","false","[]","[]","[]","","","","","",""
"","","","","","","","","","","","canvas-keyboard-response","105","376531","0.0-105.0","null","null","","","","","","","","","","","","","","fixation","","","1","6","","","","","","","","","",""
"","","","","","","","","","","","canvas-keyboard-response","106","376834","0.0-106.0","null","null","","","","","","","","","","","","","","stimulus","","","1","6","","","","","","","","","",""
"","","","","","","","","","","","canvas-button-response","107","379491","0.0-107.0","2654","cat","","","","","","","","","","","","","","perceptual","","","1","6","","","","","14","car","6","","0",""
"","","","","","","","","","","","canvas-button-response","108","380491","0.0-108.0","998","5","","","","","","","","","","","","","","confidence","","","1","6","","","","","","","","","","2"
"","","","","","","","","","","","html-keyboard-response","109","381494","0.0-109.0","null","null","","","","","","","","","","","","","","feedback","Sun Oct 12 2025 14:34:12 GMT-0400 (Eastern Daylight Time)","27585","1","6","","","","","","","","","",""
"","","","","","","","","","","","preload","110","381495","0.0-110.0","","","","","true","","","","","","","","","","","preload","","","1","7","false","[]","[]","[]","","","","","",""
"","","","","","","","","","","","canvas-keyboard-response","111","381799","0.0-111.0","null","null","","","","","","","","","","","","","","fixation","","","1","7","","","","","","","","","",""
"","","","","","","","","","","","canvas-keyboard-response","112","382102","0.0-112.0","null","null","","","","","","","","","","","","","","stimulus","","","1","7","","","","","","","","","",""
"","","","","","","","","","","","canvas-button-response","113","384056","0.0-113.0","1952","bridge","","","","","","","","","","","","","","perceptual","","","1","7","","","","","7","house","10","","0",""
"","","","","","","","","","","","canvas-button-response","114","384791","0.0-114.0","733","5","","","","","","","","","","","","","","confidence","","","1","7","","","","","","","","","","2"
"","","","","","","","","","","","html-keyboard-response","115","385794","0.0-115.0","null","null","","","","","","","","","","","","","","feedback","Sun Oct 12 2025 14:34:16 GMT-0400 (Eastern Daylight Time)","27585","1","7","","","","","","","","","",""
"","","","","","","","","","","","preload","116","385795","0.0-116.0","","","","","true","","","","","","","","","","","preload","","","1","8","false","[]","[]","[]","","","","","",""
"","","","","","","","","","","","canvas-keyboard-response","117","386099","0.0-117.0","null","null","","","","","","","","","","","","","","fixation","","","1","8","","","","","","","","","",""
"","","","","","","","","","","","canvas-keyboard-response","118","386402","0.0-118.0","null","null","","","","","","","","","","","","","","stimulus","","","1","8","","","","","","","","","",""
"","","","","","","","","","","","canvas-button-response","119","387241","0.0-119.0","836","house","","","","","","","","","","","","","","perceptual","","","1","8","","","","","4","house","6","","1",""
"","","","","","","","","","","","canvas-button-response","120","387740","0.0-120.0","497","5","","","","","","","","","","","","","","confidence","","","1","8","","","","","","","","","","3"
"","","","","","","","","","","","html-keyboard-response","121","388742","0.0-121.0","null","null","","","","","","","","","","","","","","feedback","Sun Oct 12 2025 14:34:19 GMT-0400 (Eastern Daylight Time)","27585","1","8","","","","","","","","","",""
"","","","","","","","","","","","preload","122","388744","0.0-122.0","","","","","true","","","","","","","","","","","preload","","","1","9","false","[]","[]","[]","","","","","",""
"","","","","","","","","","","","canvas-keyboard-response","123","389046","0.0-123.0","null","null","","","","","","","","","","","","","","fixation","","","1","9","","","","","","","","","",""
"","","","","","","","","","","","canvas-keyboard-response","124","389349","0.0-124.0","null","null","","","","","","","","","","","","","","stimulus","","","1","9","","","","","","","","","",""
"","","","","","","","","","","","canvas-button-response","125","398814","0.0-125.0","9462","bridge","","","","","","","","","","","","","","perceptual","","","1","9","","","","","44","bridge","6","","1",""
"","","","","","","","","","","","canvas-button-response","126","399438","0.0-126.0","623","5","","","","","","","","","","","","","","confidence","","","1","9","","","","","","","","","","4"
"","","","","","","","","","","","html-keyboard-response","127","400440","0.0-127.0","null","null","","","","","","","","","","","","","","feedback","Sun Oct 12 2025 14:34:31 GMT-0400 (Eastern Daylight Time)","27585","1","9","","","","","","","","","",""
"","","","","","","","","","","","preload","128","400441","0.0-128.0","","","","","true","","","","","","","","","","","preload","","","1","10","false","[]","[]","[]","","","","","",""
"","","","","","","","","","","","canvas-keyboard-response","129","400745","0.0-129.0","null","null","","","","","","","","","","","","","","fixation","","","1","10","","","","","","","","","",""
"","","","","","","","","","","","canvas-keyboard-response","130","401047","0.0-130.0","null","null","","","","","","","","","","","","","","stimulus","","","1","10","","","","","","","","","",""
"","","","","","","","","","","","canvas-button-response","131","406090","0.0-131.0","5040","house","","","","","","","","","","","","","","perceptual","","","1","10","","","","","77","cat","10","","0",""
"","","","","","","","","","","","canvas-button-response","132","406874","0.0-132.0","781","5","","","","","","","","","","","","","","confidence","","","1","10","","","","","","","","","","4"
"","","","","","","","","","","","html-keyboard-response","133","407877","0.0-133.0","null","null","","","","","","","","","","","","","","feedback","Sun Oct 12 2025 14:34:38 GMT-0400 (Eastern Daylight Time)","27585","1","10","","","","","","","","","",""
"","","","","","","","","","","","preload","134","407878","0.0-134.0","","","","","true","","","","","","","","","","","preload","","","1","11","false","[]","[]","[]","","","","","",""
"","","","","","","","","","","","canvas-keyboard-response","135","408180","0.0-135.0","null","null","","","","","","","","","","","","","","fixation","","","1","11","","","","","","","","","",""
"","","","","","","","","","","","canvas-keyboard-response","136","408484","0.0-136.0","null","null","","","","","","","","","","","","","","stimulus","","","1","11","","","","","","","","","",""
"","","","","","","","","","","","canvas-button-response","137","409422","0.0-137.0","936","phone","","","","","","","","","","","","","","perceptual","","","1","11","","","","","24","phone","6","","1",""
"","","","","","","","","","","","canvas-button-response","138","409839","0.0-138.0","415","5","","","","","","","","","","","","","","confidence","","","1","11","","","","","","","","","","5"
"","","","","","","","","","","","html-keyboard-response","139","410841","0.0-139.0","null","null","","","","","","","","","","","","","","feedback","Sun Oct 12 2025 14:34:41 GMT-0400 (Eastern Daylight Time)","27585","1","11","","","","","","","","","",""
"","","","","","","","","","","","preload","140","410843","0.0-140.0","","","","","true","","","","","","","","","","","preload","","","1","12","false","[]","[]","[]","","","","","",""
"","","","","","","","","","","","canvas-keyboard-response","141","411145","0.0-141.0","null","null","","","","","","","","","","","","","","fixation","","","1","12","","","","","","","","","",""
"","","","","","","","","","","","canvas-keyboard-response","142","411449","0.0-142.0","null","null","","","","","","","","","","","","","","stimulus","","","1","12","","","","","","","","","",""
"","","","","","","","","","","","canvas-button-response","143","412841","0.0-143.0","1389","elephant","","","","","","","","","","","","","","perceptual","","","1","12","","","","","87","elephant","10","","1",""
"","","","","","","","","","","","canvas-button-response","144","413340","0.0-144.0","497","5","","","","","","","","","","","","","","confidence","","","1","12","","","","","","","","","","6"
"","","","","","","","","","","","html-keyboard-response","145","414343","0.0-145.0","null","null","","","","","","","","","","","","","","feedback","Sun Oct 12 2025 14:34:45 GMT-0400 (Eastern Daylight Time)","27585","1","12","","","","","","","","","",""
"","","","","","","","","","","","preload","146","414344","0.0-146.0","","","","","true","","","","","","","","","","","preload","","","1","13","false","[]","[]","[]","","","","","",""
"","","","","","","","","","","","canvas-keyboard-response","147","414648","0.0-147.0","null","null","","","","","","","","","","","","","","fixation","","","1","13","","","","","","","","","",""
"","","","","","","","","","","","canvas-keyboard-response","148","414950","0.0-148.0","null","null","","","","","","","","","","","","","","stimulus","","","1","13","","","","","","","","","",""
"","","","","","","","","","","","canvas-button-response","149","416123","0.0-149.0","1170","knife","","","","","","","","","","","","","","perceptual","","","1","13","","","","","97","knife","10","","1",""
"","","","","","","","","","","","canvas-button-response","150","416523","0.0-150.0","398","5","","","","","","","","","","","","","","confidence","","","1","13","","","","","","","","","","7"
"","","","","","","","","","","","html-keyboard-response","151","417526","0.0-151.0","null","null","","","","","","","","","","","","","","feedback","Sun Oct 12 2025 14:34:48 GMT-0400 (Eastern Daylight Time)","27585","1","13","","","","","","","","","",""
"","","","","","","","","","","","preload","152","417527","0.0-152.0","","","","","true","","","","","","","","","","","preload","","","1","14","false","[]","[]","[]","","","","","",""
"","","","","","","","","","","","canvas-keyboard-response","153","417830","0.0-153.0","null","null","","","","","","","","","","","","","","fixation","","","1","14","","","","","","","","","",""
"","","","","","","","","","","","canvas-keyboard-response","154","418133","0.0-154.0","null","null","","","","","","","","","","","","","","stimulus","","","1","14","","","","","","","","","",""
"","","","","","","","","","","","canvas-button-response","155","419056","0.0-155.0","920","train","","","","","","","","","","","","","","perceptual","","","1","14","","","","","64","train","6","","1",""
"","","","","","","","","","","","canvas-button-response","156","419674","0.0-156.0","616","6","","","","","","","","","","","","","","confidence","","","1","14","","","","","","","","","","8"
"","","","","","","","","","","","html-keyboard-response","157","420677","0.0-157.0","null","null","","","","","","","","","","","","","","feedback","Sun Oct 12 2025 14:34:51 GMT-0400 (Eastern Daylight Time)","27585","1","14","","","","","","","","","",""
"","","","","","","","","","","","preload","158","420678","0.0-158.0","","","","","true","","","","","","","","","","","preload","","","1","15","false","[]","[]","[]","","","","","",""
"","","","","","","","","","","","canvas-keyboard-response","159","420982","0.0-159.0","null","null","","","","","","","","","","","","","","fixation","","","1","15","","","","","","","","","",""
"","","","","","","","","","","","canvas-keyboard-response","160","421285","0.0-160.0","null","null","","","","","","","","","","","","","","stimulus","","","1","15","","","","","","","","","",""
"","","","","","","","","","","","canvas-button-response","161","424424","0.0-161.0","3135","phone","","","","","","","","","","","","","","perceptual","","","1","15","","","","","94","knife","6","","0",""
"","","","","","","","","","","","canvas-button-response","162","425273","0.0-162.0","846","6","","","","","","","","","","","","","","confidence","","","1","15","","","","","","","","","","8"
"","","","","","","","","","","","html-keyboard-response","163","426276","0.0-163.0","null","null","","","","","","","","","","","","","","feedback","Sun Oct 12 2025 14:34:57 GMT-0400 (Eastern Daylight Time)","27585","1","15","","","","","","","","","",""
"","","","","","","","","","","","preload","164","426277","0.0-164.0","","","","","true","","","","","","","","","","","preload","","","1","16","false","[]","[]","[]","","","","","",""
"","","","","","","","","","","","canvas-keyboard-response","165","426580","0.0-165.0","null","null","","","","","","","","","","","","","","fixation","","","1","16","","","","","","","","","",""
"","","","","","","","","","","","canvas-keyboard-response","166","426883","0.0-166.0","null","null","","","","","","","","","","","","","","stimulus","","","1","16","","","","","","","","","",""
"","","","","","","","","","","","canvas-button-response","167","428191","0.0-167.0","1305","train","","","","","","","","","","","","","","perceptual","","","1","16","","","","","67","train","10","","1",""
"","","","","","","","","","","","canvas-button-response","168","428907","0.0-168.0","714","5","","","","","","","","","","","","","","confidence","","","1","16","","","","","","","","","","9"
"","","","","","","","","","","","html-keyboard-response","169","429909","0.0-169.0","null","null","","","","","","","","","","","","","","feedback","Sun Oct 12 2025 14:35:01 GMT-0400 (Eastern Daylight Time)","27585","1","16","","","","","","","","","",""
"","","","","","","","","","","","preload","170","429911","0.0-170.0","","","","","true","","","","","","","","","","","preload","","","1","17","false","[]","[]","[]","","","","","",""
"","","","","","","","","","","","canvas-keyboard-response","171","430213","0.0-171.0","null","null","","","","","","","","","","","","","","fixation","","","1","17","","","","","","","","","",""
"","","","","","","","","","","","canvas-keyboard-response","172","430516","0.0-172.0","null","null","","","","","","","","","","","","","","stimulus","","","1","17","","","","","","","","","",""
"","","","","","","","","","","","canvas-button-response","173","431923","0.0-173.0","1404","house","","","","","","","","","","","","","","perceptual","","","1","17","","","","","47","bridge","10","","0",""
"","","","","","","","","","","","canvas-button-response","174","432541","0.0-174.0","615","5","","","","","","","","","","","","","","confidence","","","1","17","","","","","","","","","","9"
"","","","","","","","","","","","html-keyboard-response","175","433544","0.0-175.0","null","null","","","","","","","","","","","","","","feedback","Sun Oct 12 2025 14:35:04 GMT-0400 (Eastern Daylight Time)","27585","1","17","","","","","","","","","",""
"","","","","","","","","","","","preload","176","433545","0.0-176.0","","","","","true","","","","","","","","","","","preload","","","1","18","false","[]","[]","[]","","","","","",""
"","","","","","","","","","","","canvas-keyboard-response","177","433848","0.0-177.0","null","null","","","","","","","","","","","","","","fixation","","","1","18","","","","","","","","","",""
"","","","","","","","","","","","canvas-keyboard-response","178","434152","0.0-178.0","null","null","","","","","","","","","","","","","","stimulus","","","1","18","","","","","","","","","",""
"","","","","","","","","","","","canvas-button-response","179","435590","0.0-179.0","1435","car","","","","","","","","","","","","","","perceptual","","","1","18","","","","","17","car","10","","1",""
"","","","","","","","","","","","canvas-button-response","180","436022","0.0-180.0","430","5","","","","","","","","","","","","","","confidence","","","1","18","","","","","","","","","","10"
"","","","","","","","","","","","html-keyboard-response","181","437025","0.0-181.0","null","null","","","","","","","","","","","","","","feedback","Sun Oct 12 2025 14:35:08 GMT-0400 (Eastern Daylight Time)","27585","1","18","","","","","","","","","",""
"","","","","","","","","","","","preload","182","437026","0.0-182.0","","","","","true","","","","","","","","","","","preload","","","1","19","false","[]","[]","[]","","","","","",""
"","","","","","","","","","","","canvas-keyboard-response","183","437330","0.0-183.0","null","null","","","","","","","","","","","","","","fixation","","","1","19","","","","","","","","","",""
"","","","","","","","","","","","canvas-keyboard-response","184","437632","0.0-184.0","null","null","","","","","","","","","","","","","","stimulus","","","1","19","","","","","","","","","",""
"","","","","","","","","","","","canvas-button-response","185","438957","0.0-185.0","1321","cat","","","","","","","","","","","","","","perceptual","","","1","19","","","","","74","cat","6","","1",""
"","","","","","","","","","","","canvas-button-response","186","439474","0.0-186.0","514","5","","","","","","","","","","","","","","confidence","","","1","19","","","","","","","","","","11"
"","","","","","","","","","","","html-keyboard-response","187","440477","0.0-187.0","null","null","","","","","","","","","","","","","","feedback","Sun Oct 12 2025 14:35:11 GMT-0400 (Eastern Daylight Time)","27585","1","19","","","","","","","","","",""
"","","","","","","","","","","","html-button-response","188","473438","0.0-188.0","32960","0","","","","","","","","","","","","","","start experiment","Sun Oct 12 2025 14:35:12 GMT-0400 (Eastern Daylight Time)","27585","1","19","","","","","","","","","",""
"","","","","","","","","","","","preload","189","473439","0.0-189.0","","","","","true","","","","","","","","","","","preload","","","2","0","false","[]","[]","[]","","","","","",""
"","","","","","","","","","","","canvas-keyboard-response","190","473741","0.0-190.0","null","null","","","","","","","","","","","","","","fixation","","","2","0","","","","","","","","","",""
"","","","","","","","","","","","canvas-keyboard-response","191","474043","0.0-191.0","null","null","","","","","","","","","","","","","","stimulus","","","2","0","","","","","","","","","",""
"","","","","","","","","","","","canvas-button-response","192","475222","0.0-192.0","1177","train","","","","","","","","","","","","","","perceptual","","","2","0","","","","","143","bed","10","0","0",""
"","","","","","","","","","","","canvas-button-response","193","475888","0.0-193.0","664","10","","","","","","","","","","","","","","confidence","","","2","0","","","","","","","","","","0"
"","","","","","","","","","","","preload","194","475889","0.0-194.0","","","","","true","","","","","","","","","","","preload","","","2","1","false","[]","[]","[]","","","","","",""
"","","","","","","","","","","","canvas-keyboard-response","195","476191","0.0-195.0","null","null","","","","","","","","","","","","","","fixation","","","2","1","","","","","","","","","",""
"","","","","","","","","","","","canvas-keyboard-response","196","476492","0.0-196.0","null","null","","","","","","","","","","","","","","stimulus","","","2","1","","","","","","","","","",""
"","","","","","","","","","","","canvas-button-response","197","479687","0.0-197.0","3194","flower","","","","","","","","","","","","","","perceptual","","","2","1","","","","","125","bed","6","0","0",""
"","","","","","","","","","","","canvas-button-response","198","480773","0.0-198.0","1083","10","","","","","","","","","","","","","","confidence","","","2","1","","","","","","","","","","0"
"","","","","","","","","","","","preload","199","480774","0.0-199.0","","","","","true","","","","","","","","","","","preload","","","2","2","false","[]","[]","[]","","","","","",""
"","","","","","","","","","","","canvas-keyboard-response","200","481076","0.0-200.0","null","null","","","","","","","","","","","","","","fixation","","","2","2","","","","","","","","","",""
"","","","","","","","","","","","canvas-keyboard-response","201","481378","0.0-201.0","null","null","","","","","","","","","","","","","","stimulus","","","2","2","","","","","","","","","",""
"","","","","","","","","","","","canvas-button-response","202","484523","0.0-202.0","3142","house","","","","","","","","","","","","","","perceptual","","","2","2","","","","","116","phone","10","0","0",""
"","","","","","","","","","","","canvas-button-response","203","485404","0.0-203.0","879","5","","","","","","","","","","","","","","confidence","","","2","2","","","","","","","","","","0"
"","","","","","","","","","","","preload","204","485405","0.0-204.0","","","","","true","","","","","","","","","","","preload","","","2","3","false","[]","[]","[]","","","","","",""
"","","","","","","","","","","","canvas-keyboard-response","205","485707","0.0-205.0","null","null","","","","","","","","","","","","","","fixation","","","2","3","","","","","","","","","",""
"","","","","","","","","","","","canvas-keyboard-response","206","486010","0.0-206.0","null","null","","","","","","","","","","","","","","stimulus","","","2","3","","","","","","","","","",""
"","","","","","","","","","","","canvas-button-response","207","488156","0.0-207.0","2143","cat","","","","","","","","","","","","","","perceptual","","","2","3","","","","","313","cat","10","0","1",""
"","","","","","","","","","","","canvas-button-response","208","489239","0.0-208.0","1081","5","","","","","","","","","","","","","","confidence","","","2","3","","","","","","","","","","1"
"","","","","","","","","","","","preload","209","489240","0.0-209.0","","","","","true","","","","","","","","","","","preload","","","2","4","false","[]","[]","[]","","","","","",""
"","","","","","","","","","","","canvas-keyboard-response","210","489543","0.0-210.0","null","null","","","","","","","","","","","","","","fixation","","","2","4","","","","","","","","","",""
"","","","","","","","","","","","canvas-keyboard-response","211","489846","0.0-211.0","null","null","","","","","","","","","","","","","","stimulus","","","2","4","","","","","","","","","",""
"","","","","","","","","","","","canvas-button-response","212","491820","0.0-212.0","1972","knife","","","","","","","","","","","","","","perceptual","","","2","4","","","","","18","house","6","0","0",""
"","","","","","","","","","","","canvas-button-response","213","492622","0.0-213.0","800","1","","","","","","","","","","","","","","confidence","","","2","4","","","","","","","","","","1"
"","","","","","","","","","","","preload","214","492623","0.0-214.0","","","","","true","","","","","","","","","","","preload","","","2","5","false","[]","[]","[]","","","","","",""
"","","","","","","","","","","","canvas-keyboard-response","215","492925","0.0-215.0","null","null","","","","","","","","","","","","","","fixation","","","2","5","","","","","","","","","",""
"","","","","","","","","","","","canvas-keyboard-response","216","493228","0.0-216.0","null","null","","","","","","","","","","","","","","stimulus","","","2","5","","","","","","","","","",""
"","","","","","","","","","","","canvas-button-response","217","494306","0.0-217.0","1075","bridge","","","","","","","","","","","","","","perceptual","","","2","5","","","","","172","bridge","6","0","1",""
"","","","","","","","","","","","canvas-button-response","218","495088","0.0-218.0","780","10","","","","","","","","","","","","","","confidence","","","2","5","","","","","","","","","","2"
"","","","","","","","","","","","preload","219","495089","0.0-219.0","","","","","true","","","","","","","","","","","preload","","","2","6","false","[]","[]","[]","","","","","",""
"","","","","","","","","","","","canvas-keyboard-response","220","495391","0.0-220.0","null","null","","","","","","","","","","","","","","fixation","","","2","6","","","","","","","","","",""
"","","","","","","","","","","","canvas-keyboard-response","221","495694","0.0-221.0","null","null","","","","","","","","","","","","","","stimulus","","","2","6","","","","","","","","","",""
"","","","","","","","","","","","canvas-button-response","222","496489","0.0-222.0","792","knife","","","","","","","","","","","","","","perceptual","","","2","6","","","","","395","knife","10","0","1",""
"","","","","","","","","","","","canvas-button-response","223","497790","0.0-223.0","1298","10","","","","","","","","","","","","","","confidence","","","2","6","","","","","","","","","","3"
"","","","","","","","","","","","preload","224","497792","0.0-224.0","","","","","true","","","","","","","","","","","preload","","","2","7","false","[]","[]","[]","","","","","",""
"","","","","","","","","","","","canvas-keyboard-response","225","498093","0.0-225.0","null","null","","","","","","","","","","","","","","fixation","","","2","7","","","","","","","","","",""
"","","","","","","","","","","","canvas-keyboard-response","226","498396","0.0-226.0","null","null","","","","","","","","","","","","","","stimulus","","","2","7","","","","","","","","","",""
"","","","","","","","","","","","canvas-button-response","227","499289","0.0-227.0","890","train","","","","","","","","","","","","","","perceptual","","","2","7","","","","","43","car","6","0","0",""
"","","","","","","","","","","","canvas-button-response","228","500222","0.0-228.0","931","10","","","","","","","","","","","","","","confidence","","","2","7","","","","","","","","","","3"
"","","","","","","","","","","","preload","229","500223","0.0-229.0","","","","","true","","","","","","","","","","","preload","","","2","8","false","[]","[]","[]","","","","","",""
"","","","","","","","","","","","canvas-keyboard-response","230","500526","0.0-230.0","null","null","","","","","","","","","","","","","","fixation","","","2","8","","","","","","","","","",""
"","","","","","","","","","","","canvas-keyboard-response","231","500827","0.0-231.0","null","null","","","","","","","","","","","","","","stimulus","","","2","8","","","","","","","","","",""
"","","","","","","","","","","","canvas-button-response","232","502872","0.0-232.0","2043","flower","","","","","","","","","","","","","","perceptual","","","2","8","","","","","24","house","10","0","0",""
"","","","","","","","","","","","canvas-button-response","233","503755","0.0-233.0","880","5","","","","","","","","","","","","","","confidence","","","2","8","","","","","","","","","","3"
"","","","","","","","","","","","preload","234","503756","0.0-234.0","","","","","true","","","","","","","","","","","preload","","","2","9","false","[]","[]","[]","","","","","",""
"","","","","","","","","","","","canvas-keyboard-response","235","504059","0.0-235.0","null","null","","","","","","","","","","","","","","fixation","","","2","9","","","","","","","","","",""
"","","","","","","","","","","","canvas-keyboard-response","236","504363","0.0-236.0","null","null","","","","","","","","","","","","","","stimulus","","","2","9","","","","","","","","","",""
"","","","","","","","","","","","canvas-button-response","237","505304","0.0-237.0","939","elephant","","","","","","","","","","","","","","perceptual","","","2","9","","","","","335","elephant","6","0","1",""
"","","","","","","","","","","","canvas-button-response","238","506022","0.0-238.0","715","10","","","","","","","","","","","","","","confidence","","","2","9","","","","","","","","","","4"
"","","","","","","","","","","","preload","239","506023","0.0-239.0","","","","","true","","","","","","","","","","","preload","","","2","10","false","[]","[]","[]","","","","","",""
"","","","","","","","","","","","canvas-keyboard-response","240","506326","0.0-240.0","null","null","","","","","","","","","","","","","","fixation","","","2","10","","","","","","","","","",""
"","","","","","","","","","","","canvas-keyboard-response","241","506629","0.0-241.0","null","null","","","","","","","","","","","","","","stimulus","","","2","10","","","","","","","","","",""
"","","","","","","","","","","","canvas-button-response","242","509022","0.0-242.0","2390","elephant","","","","","","","","","","","","","","perceptual","","","2","10","","","","","348","elephant","10","0","1",""
"","","","","","","","","","","","canvas-button-response","243","509888","0.0-243.0","864","10","","","","","","","","","","","","","","confidence","","","2","10","","","","","","","","","","5"
"","","","","","","","","","","","preload","244","509889","0.0-244.0","","","","","true","","","","","","","","","","","preload","","","2","11","false","[]","[]","[]","","","","","",""
"","","","","","","","","","","","canvas-keyboard-response","245","510191","0.0-245.0","null","null","","","","","","","","","","","","","","fixation","","","2","11","","","","","","","","","",""
"","","","","","","","","","","","canvas-keyboard-response","246","510493","0.0-246.0","null","null","","","","","","","","","","","","","","stimulus","","","2","11","","","","","","","","","",""
"","","","","","","","","","","","canvas-button-response","247","511589","0.0-247.0","1093","flower","","","","","","","","","","","","","","perceptual","","","2","11","","","","","219","flower","6","0","1",""
"","","","","","","","","","","","canvas-button-response","248","512521","0.0-248.0","930","10","","","","","","","","","","","","","","confidence","","","2","11","","","","","","","","","","6"
"","","","","","","","","","","","preload","249","512522","0.0-249.0","","","","","true","","","","","","","","","","","preload","","","2","12","false","[]","[]","[]","","","","","",""
"","","","","","","","","","","","canvas-keyboard-response","250","512824","0.0-250.0","null","null","","","","","","","","","","","","","","fixation","","","2","12","","","","","","","","","",""
"","","","","","","","","","","","canvas-keyboard-response","251","513125","0.0-251.0","null","null","","","","","","","","","","","","","","stimulus","","","2","12","","","","","","","","","",""
"","","","","","","","","","","","canvas-button-response","252","513888","0.0-252.0","760","bridge","","","","","","","","","","","","","","perceptual","","","2","12","","","","","169","bridge","6","0","1",""
"","","","","","","","","","","","canvas-button-response","253","514637","0.0-253.0","747","10","","","","","","","","","","","","","","confidence","","","2","12","","","","","","","","","","7"
"","","","","","","","","","","","preload","254","514638","0.0-254.0","","","","","true","","","","","","","","","","","preload","","","2","13","false","[]","[]","[]","","","","","",""
"","","","","","","","","","","","canvas-keyboard-response","255","514940","0.0-255.0","null","null","","","","","","","","","","","","","","fixation","","","2","13","","","","","","","","","",""
"","","","","","","","","","","","canvas-keyboard-response","256","515243","0.0-256.0","null","null","","","","","","","","","","","","","","stimulus","","","2","13","","","","","","","","","",""
"","","","","","","","","","","","canvas-button-response","257","517587","0.0-257.0","2342","car","","","","","","","","","","","","","","perceptual","","","2","13","","","","","197","bridge","10","0","0",""
"","","","","","","","","","","","canvas-button-response","258","518339","0.0-258.0","749","10","","","","","","","","","","","","","","confidence","","","2","13","","","","","","","","","","7"
"","","","","","","","","","","","preload","259","518340","0.0-259.0","","","","","true","","","","","","","","","","","preload","","","2","14","false","[]","[]","[]","","","","","",""
"","","","","","","","","","","","canvas-keyboard-response","260","518642","0.0-260.0","null","null","","","","","","","","","","","","","","fixation","","","2","14","","","","","","","","","",""
"","","","","","","","","","","","canvas-keyboard-response","261","518944","0.0-261.0","null","null","","","","","","","","","","","","","","stimulus","","","2","14","","","","","","","","","",""
"","","","","","","","","","","","canvas-button-response","262","522653","0.0-262.0","3708","cat","","","","","","","","","","","","","","perceptual","","","2","14","","","","","138","bed","6","0","0",""
"","","","","","","","","","","","canvas-button-response","263","523287","0.0-263.0","632","6","","","","","","","","","","","","","","confidence","","","2","14","","","","","","","","","","7"
"","","","","","","","","","","","preload","264","523288","0.0-264.0","","","","","true","","","","","","","","","","","preload","","","2","15","false","[]","[]","[]","","","","","",""
"","","","","","","","","","","","canvas-keyboard-response","265","523591","0.0-265.0","null","null","","","","","","","","","","","","","","fixation","","","2","15","","","","","","","","","",""
"","","","","","","","","","","","canvas-keyboard-response","266","523894","0.0-266.0","null","null","","","","","","","","","","","","","","stimulus","","","2","15","","","","","","","","","",""
"","","","","","","","","","","","canvas-button-response","267","524905","0.0-267.0","1008","car","","","","","","","","","","","","","","perceptual","","","2","15","","","","","67","car","10","0","1",""
"","","","","","","","","","","","canvas-button-response","268","525654","0.0-268.0","746","10","","","","","","","","","","","","","","confidence","","","2","15","","","","","","","","","","8"
"","","","","","","","","","","","preload","269","525655","0.0-269.0","","","","","true","","","","","","","","","","","preload","","","2","16","false","[]","[]","[]","","","","","",""
"","","","","","","","","","","","canvas-keyboard-response","270","525958","0.0-270.0","null","null","","","","","","","","","","","","","","fixation","","","2","16","","","","","","","","","",""
"","","","","","","","","","","","canvas-keyboard-response","271","526261","0.0-271.0","null","null","","","","","","","","","","","","","","stimulus","","","2","16","","","","","","","","","",""
"","","","","","","","","","","","canvas-button-response","272","527205","0.0-272.0","942","cat","","","","","","","","","","","","","","perceptual","","","2","16","","","","","317","cat","10","0","1",""
"","","","","","","","","","","","canvas-button-response","273","527905","0.0-273.0","698","10","","","","","","","","","","","","","","confidence","","","2","16","","","","","","","","","","9"
"","","","","","","","","","","","preload","274","527906","0.0-274.0","","","","","true","","","","","","","","","","","preload","","","2","17","false","[]","[]","[]","","","","","",""
"","","","","","","","","","","","canvas-keyboard-response","275","528207","0.0-275.0","null","null","","","","","","","","","","","","","","fixation","","","2","17","","","","","","","","","",""
"","","","","","","","","","","","canvas-keyboard-response","276","528510","0.0-276.0","null","null","","","","","","","","","","","","","","stimulus","","","2","17","","","","","","","","","",""
"","","","","","","","","","","","canvas-button-response","277","529922","0.0-277.0","1409","train","","","","","","","","","","","","","","perceptual","","","2","17","","","","","25","house","10","0","0",""
"","","","","","","","","","","","canvas-button-response","278","530655","0.0-278.0","731","5","","","","","","","","","","","","","","confidence","","","2","17","","","","","","","","","","9"
"","","","","","","","","","","","preload","279","530656","0.0-279.0","","","","","true","","","","","","","","","","","preload","","","2","18","false","[]","[]","[]","","","","","",""
"","","","","","","","","","","","canvas-keyboard-response","280","530960","0.0-280.0","null","null","","","","","","","","","","","","","","fixation","","","2","18","","","","","","","","","",""
"","","","","","","","","","","","canvas-keyboard-response","281","531262","0.0-281.0","null","null","","","","","","","","","","","","","","stimulus","","","2","18","","","","","","","","","",""
"","","","","","","","","","","","canvas-button-response","282","537688","0.0-282.0","6424","knife","","","","","","","","","","","","","","perceptual","","","2","18","","","","","141","bed","10","0","0",""
"","","","","","","","","","","","canvas-button-response","283","539122","0.0-283.0","1431","10","","","","","","","","","","","","","","confidence","","","2","18","","","","","","","","","","9"
"","","","","","","","","","","","preload","284","539123","0.0-284.0","","","","","true","","","","","","","","","","","preload","","","2","19","false","[]","[]","[]","","","","","",""
"","","","","","","","","","","","canvas-keyboard-response","285","539424","0.0-285.0","null","null","","","","","","","","","","","","","","fixation","","","2","19","","","","","","","","","",""
"","","","","","","","","","","","canvas-keyboard-response","286","539727","0.0-286.0","null","null","","","","","","","","","","","","","","stimulus","","","2","19","","","","","","","","","",""
"","","","","","","","","","","","canvas-button-response","287","541972","0.0-287.0","2242","knife","","","","","","","","","","","","","","perceptual","","","2","19","","","","","192","bridge","10","0","0",""
"","","","","","","","","","","","canvas-button-response","288","542655","0.0-288.0","681","9","","","","","","","","","","","","","","confidence","","","2","19","","","","","","","","","","9"
"","","","","","","","","","","","preload","289","542656","0.0-289.0","","","","","true","","","","","","","","","","","preload","","","2","20","false","[]","[]","[]","","","","","",""
"","","","","","","","","","","","canvas-keyboard-response","290","542957","0.0-290.0","null","null","","","","","","","","","","","","","","fixation","","","2","20","","","","","","","","","",""
"","","","","","","","","","","","canvas-keyboard-response","291","543259","0.0-291.0","null","null","","","","","","","","","","","","","","stimulus","","","2","20","","","","","","","","","",""
"","","","","","","","","","","","canvas-button-response","292","544054","0.0-292.0","793","train","","","","","","","","","","","","","","perceptual","","","2","20","","","","","274","train","10","0","1",""
"","","","","","","","","","","","canvas-button-response","293","544655","0.0-293.0","598","10","","","","","","","","","","","","","","confidence","","","2","20","","","","","","","","","","10"
"","","","","","","","","","","","preload","294","544656","0.0-294.0","","","","","true","","","","","","","","","","","preload","","","2","21","false","[]","[]","[]","","","","","",""
"","","","","","","","","","","","canvas-keyboard-response","295","544959","0.0-295.0","null","null","","","","","","","","","","","","","","fixation","","","2","21","","","","","","","","","",""
"","","","","","","","","","","","canvas-keyboard-response","296","545262","0.0-296.0","null","null","","","","","","","","","","","","","","stimulus","","","2","21","","","","","","","","","",""
"","","","","","","","","","","","canvas-button-response","297","546238","0.0-297.0","973","flower","","","","","","","","","","","","","","perceptual","","","2","21","","","","","204","flower","6","0","1",""
"","","","","","","","","","","","canvas-button-response","298","547070","0.0-298.0","830","10","","","","","","","","","","","","","","confidence","","","2","21","","","","","","","","","","11"
"","","","","","","","","","","","preload","299","547071","0.0-299.0","","","","","true","","","","","","","","","","","preload","","","2","22","false","[]","[]","[]","","","","","",""
"","","","","","","","","","","","canvas-keyboard-response","300","547373","0.0-300.0","null","null","","","","","","","","","","","","","","fixation","","","2","22","","","","","","","","","",""
"","","","","","","","","","","","canvas-keyboard-response","301","547675","0.0-301.0","null","null","","","","","","","","","","","","","","stimulus","","","2","22","","","","","","","","","",""
"","","","","","","","","","","","canvas-button-response","302","548571","0.0-302.0","893","flower","","","","","","","","","","","","","","perceptual","","","2","22","","","","","201","flower","6","0","1",""
"","","","","","","","","","","","canvas-button-response","303","550772","0.0-303.0","2198","10","","","","","","","","","","","","","","confidence","","","2","22","","","","","","","","","","12"
"","","","","","","","","","","","preload","304","550773","0.0-304.0","","","","","true","","","","","","","","","","","preload","","","2","23","false","[]","[]","[]","","","","","",""
"","","","","","","","","","","","canvas-keyboard-response","305","551076","0.0-305.0","null","null","","","","","","","","","","","","","","fixation","","","2","23","","","","","","","","","",""
"","","","","","","","","","","","canvas-keyboard-response","306","551380","0.0-306.0","null","null","","","","","","","","","","","","","","stimulus","","","2","23","","","","","","","","","",""
"","","","","","","","","","","","canvas-button-response","307","555737","0.0-307.0","4355","phone","","","","","","","","","","","","","","perceptual","","","2","23","","","","","354","elephant","10","0","0",""
"","","","","","","","","","","","canvas-button-response","308","556805","0.0-308.0","1065","7","","","","","","","","","","","","","","confidence","","","2","23","","","","","","","","","","12"
"","","","","","","","","","","","preload","309","556806","0.0-309.0","","","","","true","","","","","","","","","","","preload","","","2","24","false","[]","[]","[]","","","","","",""
"","","","","","","","","","","","canvas-keyboard-response","310","557109","0.0-310.0","null","null","","","","","","","","","","","","","","fixation","","","2","24","","","","","","","","","",""
"","","","","","","","","","","","canvas-keyboard-response","311","557410","0.0-311.0","null","null","","","","","","","","","","","","","","stimulus","","","2","24","","","","","","","","","",""
"","","","","","","","","","","","canvas-button-response","312","562371","0.0-312.0","4958","house","","","","","","","","","","","","","","perceptual","","","2","24","","","","","336","elephant","6","0","0",""
"","","","","","","","","","","","canvas-button-response","313","563121","0.0-313.0","748","6","","","","","","","","","","","","","","confidence","","","2","24","","","","","","","","","","12"
"","","","","","","","","","","","preload","314","563122","0.0-314.0","","","","","true","","","","","","","","","","","preload","","","2","25","false","[]","[]","[]","","","","","",""
"","","","","","","","","","","","canvas-keyboard-response","315","563425","0.0-315.0","null","null","","","","","","","","","","","","","","fixation","","","2","25","","","","","","","","","",""
"","","","","","","","","","","","canvas-keyboard-response","316","563728","0.0-316.0","null","null","","","","","","","","","","","","","","stimulus","","","2","25","","","","","","","","","",""
"","","","","","","","","","","","canvas-button-response","317","564805","0.0-317.0","1074","car","","","","","","","","","","","","","","perceptual","","","2","25","","","","","59","car","6","0","1",""
"","","","","","","","","","","","canvas-button-response","318","565570","0.0-318.0","763","10","","","","","","","","","","","","","","confidence","","","2","25","","","","","","","","","","13"
"","","","","","","","","","","","preload","319","565571","0.0-319.0","","","","","true","","","","","","","","","","","preload","","","2","26","false","[]","[]","[]","","","","","",""
"","","","","","","","","","","","canvas-keyboard-response","320","565874","0.0-320.0","null","null","","","","","","","","","","","","","","fixation","","","2","26","","","","","","","","","",""
"","","","","","","","","","","","canvas-keyboard-response","321","566175","0.0-321.0","null","null","","","","","","","","","","","","","","stimulus","","","2","26","","","","","","","","","",""
"","","","","","","","","","","","canvas-button-response","322","567154","0.0-322.0","977","car","","","","","","","","","","","","","","perceptual","","","2","26","","","","","397","knife","10","0","0",""
"","","","","","","","","","","","canvas-button-response","323","569453","0.0-323.0","2297","0","","","","","","","","","","","","","","confidence","","","2","26","","","","","","","","","","13"
"","","","","","","","","","","","preload","324","569454","0.0-324.0","","","","","true","","","","","","","","","","","preload","","","2","27","false","[]","[]","[]","","","","","",""
"","","","","","","","","","","","canvas-keyboard-response","325","569758","0.0-325.0","null","null","","","","","","","","","","","","","","fixation","","","2","27","","","","","","","","","",""
"","","","","","","","","","","","canvas-keyboard-response","326","570060","0.0-326.0","null","null","","","","","","","","","","","","","","stimulus","","","2","27","","","","","","","","","",""
"","","","","","","","","","","","canvas-button-response","327","570987","0.0-327.0","925","car","","","","","","","","","","","","","","perceptual","","","2","27","","","","","54","car","6","0","1",""
"","","","","","","","","","","","canvas-button-response","328","571638","0.0-328.0","648","10","","","","","","","","","","","","","","confidence","","","2","27","","","","","","","","","","14"
"","","","","","","","","","","","preload","329","571639","0.0-329.0","","","","","true","","","","","","","","","","","preload","","","2","28","false","[]","[]","[]","","","","","",""
"","","","","","","","","","","","canvas-keyboard-response","330","571940","0.0-330.0","null","null","","","","","","","","","","","","","","fixation","","","2","28","","","","","","","","","",""
"","","","","","","","","","","","canvas-keyboard-response","331","572242","0.0-331.0","null","null","","","","","","","","","","","","","","stimulus","","","2","28","","","","","","","","","",""
"","","","","","","","","","","","canvas-button-response","332","573887","0.0-332.0","1644","bed","","","","","","","","","","","","","","perceptual","","","2","28","","","","","135","bed","6","0","1",""
"","","","","","","","","","","","canvas-button-response","333","574654","0.0-333.0","764","10","","","","","","","","","","","","","","confidence","","","2","28","","","","","","","","","","15"
"","","","","","","","","","","","preload","334","574655","0.0-334.0","","","","","true","","","","","","","","","","","preload","","","2","29","false","[]","[]","[]","","","","","",""
"","","","","","","","","","","","canvas-keyboard-response","335","574956","0.0-335.0","null","null","","","","","","","","","","","","","","fixation","","","2","29","","","","","","","","","",""
"","","","","","","","","","","","canvas-keyboard-response","336","575258","0.0-336.0","null","null","","","","","","","","","","","","","","stimulus","","","2","29","","","","","","","","","",""
"","","","","","","","","","","","canvas-button-response","337","576404","0.0-337.0","1143","cat","","","","","","","","","","","","","","perceptual","","","2","29","","","","","315","cat","10","0","1",""
"","","","","","","","","","","","canvas-button-response","338","577321","0.0-338.0","915","10","","","","","","","","","","","","","","confidence","","","2","29","","","","","","","","","","16"
"","","","","","","","","","","","preload","339","577322","0.0-339.0","","","","","true","","","","","","","","","","","preload","","","2","30","false","[]","[]","[]","","","","","",""
"","","","","","","","","","","","canvas-keyboard-response","340","577625","0.0-340.0","null","null","","","","","","","","","","","","","","fixation","","","2","30","","","","","","","","","",""
"","","","","","","","","","","","canvas-keyboard-response","341","577928","0.0-341.0","null","null","","","","","","","","","","","","","","stimulus","","","2","30","","","","","","","","","",""
"","","","","","","","","","","","canvas-button-response","342","580304","0.0-342.0","2373","elephant","","","","","","","","","","","","","","perceptual","","","2","30","","","","","9","house","6","0","0",""
"","","","","","","","","","","","canvas-button-response","343","580871","0.0-343.0","564","10","","","","","","","","","","","","","","confidence","","","2","30","","","","","","","","","","16"
"","","","","","","","","","","","preload","344","580872","0.0-344.0","","","","","true","","","","","","","","","","","preload","","","2","31","false","[]","[]","[]","","","","","",""
"","","","","","","","","","","","canvas-keyboard-response","345","581175","0.0-345.0","null","null","","","","","","","","","","","","","","fixation","","","2","31","","","","","","","","","",""
"","","","","","","","","","","","canvas-keyboard-response","346","581477","0.0-346.0","null","null","","","","","","","","","","","","","","stimulus","","","2","31","","","","","","","","","",""
"","","","","","","","","","","","canvas-button-response","347","584371","0.0-347.0","2891","house","","","","","","","","","","","","","","perceptual","","","2","31","","","","","20","house","10","0","1",""
"","","","","","","","","","","","canvas-button-response","348","585221","0.0-348.0","847","10","","","","","","","","","","","","","","confidence","","","2","31","","","","","","","","","","17"
"","","","","","","","","","","","preload","349","585222","0.0-349.0","","","","","true","","","","","","","","","","","preload","","","2","32","false","[]","[]","[]","","","","","",""
"","","","","","","","","","","","canvas-keyboard-response","350","585525","0.0-350.0","null","null","","","","","","","","","","","","","","fixation","","","2","32","","","","","","","","","",""
"","","","","","","","","","","","canvas-keyboard-response","351","585828","0.0-351.0","null","null","","","","","","","","","","","","","","stimulus","","","2","32","","","","","","","","","",""
"","","","","","","","","","","","canvas-button-response","352","586503","0.0-352.0","673","elephant","","","","","","","","","","","","","","perceptual","","","2","32","","","","","344","elephant","10","0","1",""
"","","","","","","","","","","","canvas-button-response","353","587037","0.0-353.0","532","10","","","","","","","","","","","","","","confidence","","","2","32","","","","","","","","","","18"
"","","","","","","","","","","","preload","354","587038","0.0-354.0","","","","","true","","","","","","","","","","","preload","","","2","33","false","[]","[]","[]","","","","","",""
"","","","","","","","","","","","canvas-keyboard-response","355","587340","0.0-355.0","null","null","","","","","","","","","","","","","","fixation","","","2","33","","","","","","","","","",""
"","","","","","","","","","","","canvas-keyboard-response","356","587644","0.0-356.0","null","null","","","","","","","","","","","","","","stimulus","","","2","33","","","","","","","","","",""
"","","","","","","","","","","","canvas-button-response","357","588704","0.0-357.0","1057","car","","","","","","","","","","","","","","perceptual","","","2","33","","","","","270","train","10","0","0",""
"","","","","","","","","","","","canvas-button-response","358","589438","0.0-358.0","731","10","","","","","","","","","","","","","","confidence","","","2","33","","","","","","","","","","18"
"","","","","","","","","","","","preload","359","589439","0.0-359.0","","","","","true","","","","","","","","","","","preload","","","2","34","false","[]","[]","[]","","","","","",""
"","","","","","","","","","","","canvas-keyboard-response","360","589742","0.0-360.0","null","null","","","","","","","","","","","","","","fixation","","","2","34","","","","","","","","","",""
"","","","","","","","","","","","canvas-keyboard-response","361","590045","0.0-361.0","null","null","","","","","","","","","","","","","","stimulus","","","2","34","","","","","","","","","",""
"","","","","","","","","","","","canvas-button-response","362","590954","0.0-362.0","907","flower","","","","","","","","","","","","","","perceptual","","","2","34","","","","","230","flower","10","0","1",""
"","","","","","","","","","","","canvas-button-response","363","591687","0.0-363.0","731","10","","","","","","","","","","","","","","confidence","","","2","34","","","","","","","","","","19"
"","","","","","","","","","","","preload","364","591688","0.0-364.0","","","","","true","","","","","","","","","","","preload","","","2","35","false","[]","[]","[]","","","","","",""
"","","","","","","","","","","","canvas-keyboard-response","365","591991","0.0-365.0","null","null","","","","","","","","","","","","","","fixation","","","2","35","","","","","","","","","",""
"","","","","","","","","","","","canvas-keyboard-response","366","592294","0.0-366.0","null","null","","","","","","","","","","","","","","stimulus","","","2","35","","","","","","","","","",""
"","","","","","","","","","","","canvas-button-response","367","593255","0.0-367.0","957","flower","","","","","","","","","","","","","","perceptual","","","2","35","","","","","239","flower","10","0","1",""
"","","","","","","","","","","","canvas-button-response","368","594452","0.0-368.0","1195","10","","","","","","","","","","","","","","confidence","","","2","35","","","","","","","","","","20"
"","","","","","","","","","","","preload","369","594453","0.0-369.0","","","","","true","","","","","","","","","","","preload","","","2","36","false","[]","[]","[]","","","","","",""
"","","","","","","","","","","","canvas-keyboard-response","370","594755","0.0-370.0","null","null","","","","","","","","","","","","","","fixation","","","2","36","","","","","","","","","",""
"","","","","","","","","","","","canvas-keyboard-response","371","595057","0.0-371.0","null","null","","","","","","","","","","","","","","stimulus","","","2","36","","","","","","","","","",""
"","","","","","","","","","","","canvas-button-response","372","596203","0.0-372.0","1143","train","","","","","","","","","","","","","","perceptual","","","2","36","","","","","252","train","6","0","1",""
"","","","","","","","","","","","canvas-button-response","373","596720","0.0-373.0","514","10","","","","","","","","","","","","","","confidence","","","2","36","","","","","","","","","","21"
"","","","","","","","","","","","preload","374","596721","0.0-374.0","","","","","true","","","","","","","","","","","preload","","","2","37","false","[]","[]","[]","","","","","",""
"","","","","","","","","","","","canvas-keyboard-response","375","597022","0.0-375.0","null","null","","","","","","","","","","","","","","fixation","","","2","37","","","","","","","","","",""
"","","","","","","","","","","","canvas-keyboard-response","376","597324","0.0-376.0","null","null","","","","","","","","","","","","","","stimulus","","","2","37","","","","","","","","","",""
"","","","","","","","","","","","canvas-button-response","377","601287","0.0-377.0","3960","phone","","","","","","","","","","","","","","perceptual","","","2","37","","","","","96","phone","6","0","1",""
"","","","","","","","","","","","canvas-button-response","378","601838","0.0-378.0","547","9","","","","","","","","","","","","","","confidence","","","2","37","","","","","","","","","","22"
"","","","","","","","","","","","preload","379","601839","0.0-379.0","","","","","true","","","","","","","","","","","preload","","","2","38","false","[]","[]","[]","","","","","",""
"","","","","","","","","","","","canvas-keyboard-response","380","602142","0.0-380.0","null","null","","","","","","","","","","","","","","fixation","","","2","38","","","","","","","","","",""
"","","","","","","","","","","","canvas-keyboard-response","381","602444","0.0-381.0","null","null","","","","","","","","","","","","","","stimulus","","","2","38","","","","","","","","","",""
"","","","","","","","","","","","canvas-button-response","382","604417","0.0-382.0","1971","knife","","","","","","","","","","","","","","perceptual","","","2","38","","","","","383","knife","10","0","1",""
"","","","","","","","","","","","canvas-button-response","383","604986","0.0-383.0","567","9","","","","","","","","","","","","","","confidence","","","2","38","","","","","","","","","","23"
"","","","","","","","","","","","preload","384","604987","0.0-384.0","","","","","true","","","","","","","","","","","preload","","","2","39","false","[]","[]","[]","","","","","",""
"","","","","","","","","","","","canvas-keyboard-response","385","605290","0.0-385.0","null","null","","","","","","","","","","","","","","fixation","","","2","39","","","","","","","","","",""
"","","","","","","","","","","","canvas-keyboard-response","386","605591","0.0-386.0","null","null","","","","","","","","","","","","","","stimulus","","","2","39","","","","","","","","","",""
"","","","","","","","","","","","canvas-button-response","387","606303","0.0-387.0","709","phone","","","","","","","","","","","","","","perceptual","","","2","39","","","","","117","phone","10","0","1",""
"","","","","","","","","","","","canvas-button-response","388","606804","0.0-388.0","498","9","","","","","","","","","","","","","","confidence","","","2","39","","","","","","","","","","24"
"","","","","","","","","","","","preload","389","606805","0.0-389.0","","","","","true","","","","","","","","","","","preload","","","2","40","false","[]","[]","[]","","","","","",""
"","","","","","","","","","","","canvas-keyboard-response","390","607108","0.0-390.0","null","null","","","","","","","","","","","","","","fixation","","","2","40","","","","","","","","","",""
"","","","","","","","","","","","canvas-keyboard-response","391","607411","0.0-391.0","null","null","","","","","","","","","","","","","","stimulus","","","2","40","","","","","","","","","",""
"","","","","","","","","","","","canvas-button-response","392","610603","0.0-392.0","3189","train","","","","","","","","","","","","","","perceptual","","","2","40","","","","","189","bridge","10","0","0",""
"","","","","","","","","","","","canvas-button-response","393","612918","0.0-393.0","2314","0","","","","","","","","","","","","","","confidence","","","2","40","","","","","","","","","","24"
"","","","","","","","","","","","preload","394","612919","0.0-394.0","","","","","true","","","","","","","","","","","preload","","","2","41","false","[]","[]","[]","","","","","",""
"","","","","","","","","","","","canvas-keyboard-response","395","613222","0.0-395.0","null","null","","","","","","","","","","","","","","fixation","","","2","41","","","","","","","","","",""
"","","","","","","","","","","","canvas-keyboard-response","396","613525","0.0-396.0","null","null","","","","","","","","","","","","","","stimulus","","","2","41","","","","","","","","","",""
"","","","","","","","","","","","canvas-button-response","397","615203","0.0-397.0","1676","house","","","","","","","","","","","","","","perceptual","","","2","41","","","","","10","house","6","0","1",""
"","","","","","","","","","","","canvas-button-response","398","616237","0.0-398.0","1031","10","","","","","","","","","","","","","","confidence","","","2","41","","","","","","","","","","25"
"","","","","","","","","","","","preload","399","616238","0.0-399.0","","","","","true","","","","","","","","","","","preload","","","2","42","false","[]","[]","[]","","","","","",""
"","","","","","","","","","","","canvas-keyboard-response","400","616540","0.0-400.0","null","null","","","","","","","","","","","","","","fixation","","","2","42","","","","","","","","","",""
"","","","","","","","","","","","canvas-keyboard-response","401","616842","0.0-401.0","null","null","","","","","","","","","","","","","","stimulus","","","2","42","","","","","","","","","",""
"","","","","","","","","","","","canvas-button-response","402","618870","0.0-402.0","2026","car","","","","","","","","","","","","","","perceptual","","","2","42","","","","","47","car","6","0","1",""
"","","","","","","","","","","","canvas-button-response","403","619552","0.0-403.0","680","10","","","","","","","","","","","","","","confidence","","","2","42","","","","","","","","","","26"
"","","","","","","","","","","","preload","404","619552","0.0-404.0","","","","","true","","","","","","","","","","","preload","","","2","43","false","[]","[]","[]","","","","","",""
"","","","","","","","","","","","canvas-keyboard-response","405","619855","0.0-405.0","null","null","","","","","","","","","","","","","","fixation","","","2","43","","","","","","","","","",""
"","","","","","","","","","","","canvas-keyboard-response","406","620157","0.0-406.0","null","null","","","","","","","","","","","","","","stimulus","","","2","43","","","","","","","","","",""
"","","","","","","","","","","","canvas-button-response","407","622752","0.0-407.0","2592","flower","","","","","","","","","","","","","","perceptual","","","2","43","","","","","200","flower","6","0","1",""
"","","","","","","","","","","","canvas-button-response","408","623520","0.0-408.0","766","10","","","","","","","","","","","","","","confidence","","","2","43","","","","","","","","","","27"
"","","","","","","","","","","","preload","409","623521","0.0-409.0","","","","","true","","","","","","","","","","","preload","","","2","44","false","[]","[]","[]","","","","","",""
"","","","","","","","","","","","canvas-keyboard-response","410","623824","0.0-410.0","null","null","","","","","","","","","","","","","","fixation","","","2","44","","","","","","","","","",""
"","","","","","","","","","","","canvas-keyboard-response","411","624127","0.0-411.0","null","null","","","","","","","","","","","","","","stimulus","","","2","44","","","","","","","","","",""
"","","","","","","","","","","","canvas-button-response","412","624933","0.0-412.0","804","elephant","","","","","","","","","","","","","","perceptual","","","2","44","","","","","324","elephant","6","0","1",""
"","","","","","","","","","","","canvas-button-response","413","625419","0.0-413.0","485","10","","","","","","","","","","","","","","confidence","","","2","44","","","","","","","","","","28"
"","","","","","","","","","","","preload","414","625420","0.0-414.0","","","","","true","","","","","","","","","","","preload","","","2","45","false","[]","[]","[]","","","","","",""
"","","","","","","","","","","","canvas-keyboard-response","415","625722","0.0-415.0","null","null","","","","","","","","","","","","","","fixation","","","2","45","","","","","","","","","",""
"","","","","","","","","","","","canvas-keyboard-response","416","626025","0.0-416.0","null","null","","","","","","","","","","","","","","stimulus","","","2","45","","","","","","","","","",""
"","","","","","","","","","","","canvas-button-response","417","627253","0.0-417.0","1225","train","","","","","","","","","","","","","","perceptual","","","2","45","","","","","247","train","6","0","1",""
"","","","","","","","","","","","canvas-button-response","418","627770","0.0-418.0","514","10","","","","","","","","","","","","","","confidence","","","2","45","","","","","","","","","","29"
"","","","","","","","","","","","preload","419","627771","0.0-419.0","","","","","true","","","","","","","","","","","preload","","","2","46","false","[]","[]","[]","","","","","",""
"","","","","","","","","","","","canvas-keyboard-response","420","628074","0.0-420.0","null","null","","","","","","","","","","","","","","fixation","","","2","46","","","","","","","","","",""
"","","","","","","","","","","","canvas-keyboard-response","421","628376","0.0-421.0","null","null","","","","","","","","","","","","","","stimulus","","","2","46","","","","","","","","","",""
"","","","","","","","","","","","canvas-button-response","422","629320","0.0-422.0","942","flower","","","","","","","","","","","","","","perceptual","","","2","46","","","","","202","flower","6","0","1",""
"","","","","","","","","","","","canvas-button-response","423","630050","0.0-423.0","729","10","","","","","","","","","","","","","","confidence","","","2","46","","","","","","","","","","30"
"","","","","","","","","","","","preload","424","630051","0.0-424.0","","","","","true","","","","","","","","","","","preload","","","2","47","false","[]","[]","[]","","","","","",""
"","","","","","","","","","","","canvas-keyboard-response","425","630353","0.0-425.0","null","null","","","","","","","","","","","","","","fixation","","","2","47","","","","","","","","","",""
"","","","","","","","","","","","canvas-keyboard-response","426","630655","0.0-426.0","null","null","","","","","","","","","","","","","","stimulus","","","2","47","","","","","","","","","",""
"","","","","","","","","","","","canvas-button-response","427","631720","0.0-427.0","1063","house","","","","","","","","","","","","","","perceptual","","","2","47","","","","","4","house","6","0","1",""
"","","","","","","","","","","","canvas-button-response","428","632403","0.0-428.0","680","10","","","","","","","","","","","","","","confidence","","","2","47","","","","","","","","","","31"
"","","","","","","","","","","","preload","429","632404","0.0-429.0","","","","","true","","","","","","","","","","","preload","","","2","48","false","[]","[]","[]","","","","","",""
"","","","","","","","","","","","canvas-keyboard-response","430","632706","0.0-430.0","null","null","","","","","","","","","","","","","","fixation","","","2","48","","","","","","","","","",""
"","","","","","","","","","","","canvas-keyboard-response","431","633007","0.0-431.0","null","null","","","","","","","","","","","","","","stimulus","","","2","48","","","","","","","","","",""
"","","","","","","","","","","","canvas-button-response","432","633801","0.0-432.0","793","knife","","","","","","","","","","","","","","perceptual","","","2","48","","","","","391","knife","10","0","1",""
"","","","","","","","","","","","canvas-button-response","433","634552","0.0-433.0","749","10","","","","","","","","","","","","","","confidence","","","2","48","","","","","","","","","","32"
"","","","","","","","","","","","preload","434","634552","0.0-434.0","","","","","true","","","","","","","","","","","preload","","","2","49","false","[]","[]","[]","","","","","",""
"","","","","","","","","","","","canvas-keyboard-response","435","634854","0.0-435.0","null","null","","","","","","","","","","","","","","fixation","","","2","49","","","","","","","","","",""
"","","","","","","","","","","","canvas-keyboard-response","436","635156","0.0-436.0","null","null","","","","","","","","","","","","","","stimulus","","","2","49","","","","","","","","","",""
"","","","","","","","","","","","canvas-button-response","437","635920","0.0-437.0","762","knife","","","","","","","","","","","","","","perceptual","","","2","49","","","","","381","knife","10","0","1",""
"","","","","","","","","","","","canvas-button-response","438","636669","0.0-438.0","747","10","","","","","","","","","","","","","","confidence","","","2","49","","","","","","","","","","33"
"","","","","","","","","","","","html-button-response","439","643037","0.0-439.0","6365","0","","","","","","","","","","","","","","<p style=""font-size:20px;color:#000000"">You got 33 out of 50 trials correct in this block.<br><br>You have completed 6% of the experiment.<br><br>Take a short break.<br><br>When you are ready, click Continue to proceed.","","","2","49","","","","","","","","","",""
"","","","","","","","","","","","html-keyboard-response","440","644041","0.0-440.0","null","null","","","","","","","","","","","","","","<p style=""font-size:32px;color:#000000""><br><br> RUN: &nbsp 1/4 <br><br> BLOCK: 2/4 ","","","2","49","","","","","","","","","",""
"","","","","","","","","","","","preload","441","644042","0.0-441.0","","","","","true","","","","","","","","","","","preload","","","2","50","false","[]","[]","[]","","","","","",""
"","","","","","","","","","","","canvas-keyboard-response","442","644345","0.0-442.0","null","null","","","","","","","","","","","","","","fixation","","","2","50","","","","","","","","","",""
"","","","","","","","","","","","canvas-keyboard-response","443","644648","0.0-443.0","null","null","","","","","","","","","","","","","","stimulus","","","2","50","","","","","","","","","",""
"","","","","","","","","","","","canvas-button-response","444","646368","0.0-444.0","1718","cat","","","","","","","","","","","","","","perceptual","","","2","50","","","","","281","cat","6","0","1",""
"","","","","","","","","","","","canvas-button-response","445","647020","0.0-445.0","650","10","","","","","","","","","","","","","","confidence","","","2","50","","","","","","","","","","1"
"","","","","","","","","","","","preload","446","647022","0.0-446.0","","","","","true","","","","","","","","","","","preload","","","2","51","false","[]","[]","[]","","","","","",""
"","","","","","","","","","","","canvas-keyboard-response","447","647324","0.0-447.0","null","null","","","","","","","","","","","","","","fixation","","","2","51","","","","","","","","","",""
"","","","","","","","","","","","canvas-keyboard-response","448","647626","0.0-448.0","null","null","","","","","","","","","","","","","","stimulus","","","2","51","","","","","","","","","",""
"","","","","","","","","","","","canvas-button-response","449","648236","0.0-449.0","608","car","","","","","","","","","","","","","","perceptual","","","2","51","","","","","74","car","10","0","1",""
"","","","","","","","","","","","canvas-button-response","450","648952","0.0-450.0","714","10","","","","","","","","","","","","","","confidence","","","2","51","","","","","","","","","","2"
"","","","","","","","","","","","preload","451","648954","0.0-451.0","","","","","true","","","","","","","","","","","preload","","","2","52","false","[]","[]","[]","","","","","",""
"","","","","","","","","","","","canvas-keyboard-response","452","649255","0.0-452.0","null","null","","","","","","","","","","","","","","fixation","","","2","52","","","","","","","","","",""
"","","","","","","","","","","","canvas-keyboard-response","453","649557","0.0-453.0","null","null","","","","","","","","","","","","","","stimulus","","","2","52","","","","","","","","","",""
"","","","","","","","","","","","canvas-button-response","454","651002","0.0-454.0","1443","house","","","","","","","","","","","","","","perceptual","","","2","52","","","","","35","house","10","0","1",""
"","","","","","","","","","","","canvas-button-response","455","651570","0.0-455.0","565","5","","","","","","","","","","","","","","confidence","","","2","52","","","","","","","","","","3"
"","","","","","","","","","","","preload","456","651570","0.0-456.0","","","","","true","","","","","","","","","","","preload","","","2","53","false","[]","[]","[]","","","","","",""
"","","","","","","","","","","","canvas-keyboard-response","457","651872","0.0-457.0","null","null","","","","","","","","","","","","","","fixation","","","2","53","","","","","","","","","",""
"","","","","","","","","","","","canvas-keyboard-response","458","652175","0.0-458.0","null","null","","","","","","","","","","","","","","stimulus","","","2","53","","","","","","","","","",""
"","","","","","","","","","","","canvas-button-response","459","652986","0.0-459.0","809","elephant","","","","","","","","","","","","","","perceptual","","","2","53","","","","","351","elephant","10","0","1",""
"","","","","","","","","","","","canvas-button-response","460","653452","0.0-460.0","464","5","","","","","","","","","","","","","","confidence","","","2","53","","","","","","","","","","4"
"","","","","","","","","","","","preload","461","653453","0.0-461.0","","","","","true","","","","","","","","","","","preload","","","2","54","false","[]","[]","[]","","","","","",""
"","","","","","","","","","","","canvas-keyboard-response","462","653756","0.0-462.0","null","null","","","","","","","","","","","","","","fixation","","","2","54","","","","","","","","","",""
"","","","","","","","","","","","canvas-keyboard-response","463","654059","0.0-463.0","null","null","","","","","","","","","","","","","","stimulus","","","2","54","","","","","","","","","",""
"","","","","","","","","","","","canvas-button-response","464","655051","0.0-464.0","990","house","","","","","","","","","","","","","","perceptual","","","2","54","","","","","233","flower","10","0","0",""
"","","","","","","","","","","","canvas-button-response","465","656036","0.0-465.0","983","5","","","","","","","","","","","","","","confidence","","","2","54","","","","","","","","","","4"
"","","","","","","","","","","","preload","466","656037","0.0-466.0","","","","","true","","","","","","","","","","","preload","","","2","55","false","[]","[]","[]","","","","","",""
"","","","","","","","","","","","canvas-keyboard-response","467","656340","0.0-467.0","null","null","","","","","","","","","","","","","","fixation","","","2","55","","","","","","","","","",""
"","","","","","","","","","","","canvas-keyboard-response","468","656643","0.0-468.0","null","null","","","","","","","","","","","","","","stimulus","","","2","55","","","","","","","","","",""
"","","","","","","","","","","","canvas-button-response","469","657653","0.0-469.0","1007","cat","","","","","","","","","","","","","","perceptual","","","2","55","","","","","308","cat","10","0","1",""
"","","","","","","","","","","","canvas-button-response","470","658069","0.0-470.0","414","5","","","","","","","","","","","","","","confidence","","","2","55","","","","","","","","","","5"
"","","","","","","","","","","","preload","471","658070","0.0-471.0","","","","","true","","","","","","","","","","","preload","","","2","56","false","[]","[]","[]","","","","","",""
"","","","","","","","","","","","canvas-keyboard-response","472","658373","0.0-472.0","null","null","","","","","","","","","","","","","","fixation","","","2","56","","","","","","","","","",""
"","","","","","","","","","","","canvas-keyboard-response","473","658676","0.0-473.0","null","null","","","","","","","","","","","","","","stimulus","","","2","56","","","","","","","","","",""
"","","","","","","","","","","","canvas-button-response","474","659486","0.0-474.0","808","knife","","","","","","","","","","","","","","perceptual","","","2","56","","","","","367","knife","6","0","1",""
"","","","","","","","","","","","canvas-button-response","475","660270","0.0-475.0","781","5","","","","","","","","","","","","","","confidence","","","2","56","","","","","","","","","","6"
"","","","","","","","","","","","preload","476","660271","0.0-476.0","","","","","true","","","","","","","","","","","preload","","","2","57","false","[]","[]","[]","","","","","",""
"","","","","","","","","","","","canvas-keyboard-response","477","660574","0.0-477.0","null","null","","","","","","","","","","","","","","fixation","","","2","57","","","","","","","","","",""
"","","","","","","","","","","","canvas-keyboard-response","478","660877","0.0-478.0","null","null","","","","","","","","","","","","","","stimulus","","","2","57","","","","","","","","","",""
"","","","","","","","","","","","canvas-button-response","479","661553","0.0-479.0","674","knife","","","","","","","","","","","","","","perceptual","","","2","57","","","","","87","phone","6","0","0",""
"","","","","","","","","","","","canvas-button-response","480","661803","0.0-480.0","248","5","","","","","","","","","","","","","","confidence","","","2","57","","","","","","","","","","6"
"","","","","","","","","","","","preload","481","661804","0.0-481.0","","","","","true","","","","","","","","","","","preload","","","2","58","false","[]","[]","[]","","","","","",""
"","","","","","","","","","","","canvas-keyboard-response","482","662106","0.0-482.0","null","null","","","","","","","","","","","","","","fixation","","","2","58","","","","","","","","","",""
"","","","","","","","","","","","canvas-keyboard-response","483","662409","0.0-483.0","null","null","","","","","","","","","","","","","","stimulus","","","2","58","","","","","","","","","",""
"","","","","","","","","","","","canvas-button-response","484","663569","0.0-484.0","1157","bridge","","","","","","","","","","","","","","perceptual","","","2","58","","","","","167","bridge","6","0","1",""
"","","","","","","","","","","","canvas-button-response","485","664019","0.0-485.0","447","5","","","","","","","","","","","","","","confidence","","","2","58","","","","","","","","","","7"
"","","","","","","","","","","","preload","486","664020","0.0-486.0","","","","","true","","","","","","","","","","","preload","","","2","59","false","[]","[]","[]","","","","","",""
"","","","","","","","","","","","canvas-keyboard-response","487","664322","0.0-487.0","null","null","","","","","","","","","","","","","","fixation","","","2","59","","","","","","","","","",""
"","","","","","","","","","","","canvas-keyboard-response","488","664626","0.0-488.0","null","null","","","","","","","","","","","","","","stimulus","","","2","59","","","","","","","","","",""
"","","","","","","","","","","","canvas-button-response","489","665336","0.0-489.0","707","elephant","","","","","","","","","","","","","","perceptual","","","2","59","","","","","339","elephant","6","0","1",""
"","","","","","","","","","","","canvas-button-response","490","665736","0.0-490.0","397","8","","","","","","","","","","","","","","confidence","","","2","59","","","","","","","","","","8"
"","","","","","","","","","","","preload","491","665737","0.0-491.0","","","","","true","","","","","","","","","","","preload","","","2","60","false","[]","[]","[]","","","","","",""
