"width","height","webaudio","browser","browser_version","mobile","os","fullscreen","vsync_rate","webcam","microphone","trial_type","trial_index","time_elapsed","internal_node_id","rt","response","accuracy","view_history","success","item_width_mm","item_height_mm","item_width_px","px2mm","view_dist_mm","item_width_deg","px2deg","scale_factor","win_width_deg","win_height_deg","stimulus","datetime","subjectID","curr_triallist","trial_no","timeout","failed_images","failed_audio","failed_video","image_index","category","blur","reps","correct","running_score"
"1440","812","true","chrome","140.0.0","false","Mac OS","true","60.64","true","true","browser-check","0","996","0.0-0.0","","","","","","","","","","","","","","","","","","","","","","","","","","","","","",""
"","","","","","","","","","","","survey","1","29189","0.0-1.0","28147","{""P0_Q0"":""904094701"",""P0_Q1"":""18"",""P1_Q0"":""Female"",""P1_Q1"":""Not Hispanic or Latino"",""P1_Q2"":""More than one race"",""P1_Q3"":""Normal"",""P1_Q4"":""Right-Handed""}","[]","","","","","","","","","","","","","","","","","","","","","","","","","","",""
"","","","","","","","","","","","instructions","2","218679","0.0-2.0","151827","","","[{""page_index"":0,""viewing_time"":2517},{""page_index"":1,""viewing_time"":1265},{""page_index"":2,""viewing_time"":144927},{""page_index"":3,""viewing_time"":3117}]","","","","","","","","","","","","","","","","","","","","","","","","","",""
"","","","","","","","","","","","fullscreen","3","222029","0.0-3.0","2346","","","","true","","","","","","","","","","","","","","","","","","","","","","","","",""
"","","","","","","","","","","","virtual-chinrest","4","289009","0.0-4.0","66983","","","","","85.6","53.98","145.4248441496297","1.6977997581546573","1011.16","4.847494804987656","30","2.83307850463355","48","30","","","","","","","","","","","","","","",""
"","","","","","","","","","","","instructions","5","334541","0.0-5.0","45531","","","[{""page_index"":0,""viewing_time"":8679},{""page_index"":1,""viewing_time"":8184},{""page_index"":2,""viewing_time"":7283},{""page_index"":3,""viewing_time"":3935},{""page_index"":4,""viewing_time"":10446},{""page_index"":5,""viewing_time"":5620},{""page_index"":6,""viewing_time"":1385}]","","","","","","","","","","","","","","","","","","","","","","","","","",""
"","","","","","","","","","","","html-button-response","6","335658","0.0-6.0","1113","0","","","","","","","","","","","","","","start_practice","Wed Oct 08 2025 22:36:39 GMT-0400 (Eastern Daylight Time)","27003","","","","","","","","","","","",""
"","","","","","","","","","","","preload","7","335660","0.0-7.0","","","","","true","","","","","","","","","","","preload","","","0","0","false","[]","[]","[]","","","","","",""
"","","","","","","","","","","","canvas-keyboard-response","8","335964","0.0-8.0","null","null","","","","","","","","","","","","","","fixation","","","0","0","","","","","","","","","",""
"","","","","","","","","","","","canvas-keyboard-response","9","336268","0.0-9.0","null","null","","","","","","","","","","","","","","stimulus","","","0","0","","","","","","","","","",""
"","","","","","","","","","","","canvas-button-response","10","338024","0.0-10.0","1749","bed","","","","","","","","","","","","","","perceptual","","","0","0","","","","","32","bed","1","","1",""
"","","","","","","","","","","","canvas-button-response","11","339758","0.0-11.0","1731","10","","","","","","","","","","","","","","confidence","","","0","0","","","","","","","","","","1"
"","","","","","","","","","","","html-keyboard-response","12","340762","0.0-12.0","null","null","","","","","","","","","","","","","","feedback","Wed Oct 08 2025 22:36:44 GMT-0400 (Eastern Daylight Time)","27003","0","0","","","","","","","","","",""
"","","","","","","","","","","","preload","13","340763","0.0-13.0","","","","","true","","","","","","","","","","","preload","","","0","1","false","[]","[]","[]","","","","","",""
"","","","","","","","","","","","canvas-keyboard-response","14","341077","0.0-14.0","null","null","","","","","","","","","","","","","","fixation","","","0","1","","","","","","","","","",""
"","","","","","","","","","","","canvas-keyboard-response","15","341379","0.0-15.0","null","null","","","","","","","","","","","","","","stimulus","","","0","1","","","","","","","","","",""
"","","","","","","","","","","","canvas-button-response","16","342624","0.0-16.0","1242","cat","","","","","","","","","","","","","","perceptual","","","0","1","","","","","72","cat","1","","1",""
"","","","","","","","","","","","canvas-button-response","17","343475","0.0-17.0","848","10","","","","","","","","","","","","","","confidence","","","0","1","","","","","","","","","","2"
"","","","","","","","","","","","html-keyboard-response","18","344478","0.0-18.0","null","null","","","","","","","","","","","","","","feedback","Wed Oct 08 2025 22:36:48 GMT-0400 (Eastern Daylight Time)","27003","0","1","","","","","","","","","",""
"","","","","","","","","","","","preload","19","344479","0.0-19.0","","","","","true","","","","","","","","","","","preload","","","0","2","false","[]","[]","[]","","","","","",""
"","","","","","","","","","","","canvas-keyboard-response","20","344780","0.0-20.0","null","null","","","","","","","","","","","","","","fixation","","","0","2","","","","","","","","","",""
"","","","","","","","","","","","canvas-keyboard-response","21","345083","0.0-21.0","null","null","","","","","","","","","","","","","","stimulus","","","0","2","","","","","","","","","",""
"","","","","","","","","","","","canvas-button-response","22","348240","0.0-22.0","3155","house","","","","","","","","","","","","","","perceptual","","","0","2","","","","","2","house","1","","1",""
"","","","","","","","","","","","canvas-button-response","23","349058","0.0-23.0","815","10","","","","","","","","","","","","","","confidence","","","0","2","","","","","","","","","","3"
"","","","","","","","","","","","html-keyboard-response","24","350062","0.0-24.0","null","null","","","","","","","","","","","","","","feedback","Wed Oct 08 2025 22:36:53 GMT-0400 (Eastern Daylight Time)","27003","0","2","","","","","","","","","",""
"","","","","","","","","","","","preload","25","350063","0.0-25.0","","","","","true","","","","","","","","","","","preload","","","0","3","false","[]","[]","[]","","","","","",""
"","","","","","","","","","","","canvas-keyboard-response","26","350365","0.0-26.0","null","null","","","","","","","","","","","","","","fixation","","","0","3","","","","","","","","","",""
"","","","","","","","","","","","canvas-keyboard-response","27","350667","0.0-27.0","null","null","","","","","","","","","","","","","","stimulus","","","0","3","","","","","","","","","",""
"","","","","","","","","","","","canvas-button-response","28","352724","0.0-28.0","2054","house","","","","","","","","","","","","","","perceptual","","","0","3","","","","","52","flower","1","","0",""
"","","","","","","","","","","","canvas-button-response","29","353708","0.0-29.0","982","10","","","","","","","","","","","","","","confidence","","","0","3","","","","","","","","","","3"
"","","","","","","","","","","","html-keyboard-response","30","354712","0.0-30.0","null","null","","","","","","","","","","","","","","feedback","Wed Oct 08 2025 22:36:58 GMT-0400 (Eastern Daylight Time)","27003","0","3","","","","","","","","","",""
"","","","","","","","","","","","preload","31","354713","0.0-31.0","","","","","true","","","","","","","","","","","preload","","","0","4","false","[]","[]","[]","","","","","",""
"","","","","","","","","","","","canvas-keyboard-response","32","355015","0.0-32.0","null","null","","","","","","","","","","","","","","fixation","","","0","4","","","","","","","","","",""
"","","","","","","","","","","","canvas-keyboard-response","33","355317","0.0-33.0","null","null","","","","","","","","","","","","","","stimulus","","","0","4","","","","","","","","","",""
"","","","","","","","","","","","canvas-button-response","34","356373","0.0-34.0","1055","bridge","","","","","","","","","","","","","","perceptual","","","0","4","","","","","42","bridge","1","","1",""
"","","","","","","","","","","","canvas-button-response","35","357190","0.0-35.0","814","10","","","","","","","","","","","","","","confidence","","","0","4","","","","","","","","","","4"
"","","","","","","","","","","","html-keyboard-response","36","358194","0.0-36.0","null","null","","","","","","","","","","","","","","feedback","Wed Oct 08 2025 22:37:01 GMT-0400 (Eastern Daylight Time)","27003","0","4","","","","","","","","","",""
"","","","","","","","","","","","preload","37","358195","0.0-37.0","","","","","true","","","","","","","","","","","preload","","","0","5","false","[]","[]","[]","","","","","",""
"","","","","","","","","","","","canvas-keyboard-response","38","358497","0.0-38.0","null","null","","","","","","","","","","","","","","fixation","","","0","5","","","","","","","","","",""
"","","","","","","","","","","","canvas-keyboard-response","39","358800","0.0-39.0","null","null","","","","","","","","","","","","","","stimulus","","","0","5","","","","","","","","","",""
"","","","","","","","","","","","canvas-button-response","40","362592","0.0-40.0","3790","cat","","","","","","","","","","","","","","perceptual","","","0","5","","","","","82","elephant","1","","0",""
"","","","","","","","","","","","canvas-button-response","41","363758","0.0-41.0","1163","5","","","","","","","","","","","","","","confidence","","","0","5","","","","","","","","","","4"
"","","","","","","","","","","","html-keyboard-response","42","364760","0.0-42.0","null","null","","","","","","","","","","","","","","feedback","Wed Oct 08 2025 22:37:08 GMT-0400 (Eastern Daylight Time)","27003","0","5","","","","","","","","","",""
"","","","","","","","","","","","preload","43","364760","0.0-43.0","","","","","true","","","","","","","","","","","preload","","","0","6","false","[]","[]","[]","","","","","",""
"","","","","","","","","","","","canvas-keyboard-response","44","365062","0.0-44.0","null","null","","","","","","","","","","","","","","fixation","","","0","6","","","","","","","","","",""
"","","","","","","","","","","","canvas-keyboard-response","45","365364","0.0-45.0","null","null","","","","","","","","","","","","","","stimulus","","","0","6","","","","","","","","","",""
"","","","","","","","","","","","canvas-button-response","46","367410","0.0-46.0","2043","train","","","","","","","","","","","","","","perceptual","","","0","6","","","","","62","train","1","","1",""
"","","","","","","","","","","","canvas-button-response","47","368792","0.0-47.0","1379","10","","","","","","","","","","","","","","confidence","","","0","6","","","","","","","","","","5"
"","","","","","","","","","","","html-keyboard-response","48","369796","0.0-48.0","null","null","","","","","","","","","","","","","","feedback","Wed Oct 08 2025 22:37:13 GMT-0400 (Eastern Daylight Time)","27003","0","6","","","","","","","","","",""
"","","","","","","","","","","","preload","49","369797","0.0-49.0","","","","","true","","","","","","","","","","","preload","","","0","7","false","[]","[]","[]","","","","","",""
"","","","","","","","","","","","canvas-keyboard-response","50","370099","0.0-50.0","null","null","","","","","","","","","","","","","","fixation","","","0","7","","","","","","","","","",""
"","","","","","","","","","","","canvas-keyboard-response","51","370401","0.0-51.0","null","null","","","","","","","","","","","","","","stimulus","","","0","7","","","","","","","","","",""
"","","","","","","","","","","","canvas-button-response","52","372341","0.0-52.0","1938","phone","","","","","","","","","","","","","","perceptual","","","0","7","","","","","22","phone","1","","1",""
"","","","","","","","","","","","canvas-button-response","53","372990","0.0-53.0","647","8","","","","","","","","","","","","","","confidence","","","0","7","","","","","","","","","","6"
"","","","","","","","","","","","html-keyboard-response","54","373994","0.0-54.0","null","null","","","","","","","","","","","","","","feedback","Wed Oct 08 2025 22:37:17 GMT-0400 (Eastern Daylight Time)","27003","0","7","","","","","","","","","",""
"","","","","","","","","","","","preload","55","373996","0.0-55.0","","","","","true","","","","","","","","","","","preload","","","0","8","false","[]","[]","[]","","","","","",""
"","","","","","","","","","","","canvas-keyboard-response","56","374299","0.0-56.0","null","null","","","","","","","","","","","","","","fixation","","","0","8","","","","","","","","","",""
"","","","","","","","","","","","canvas-keyboard-response","57","374602","0.0-57.0","null","null","","","","","","","","","","","","","","stimulus","","","0","8","","","","","","","","","",""
"","","","","","","","","","","","canvas-button-response","58","390375","0.0-58.0","15771","train","","","","","","","","","","","","","","perceptual","","","0","8","","","","","92","knife","1","","0",""
"","","","","","","","","","","","canvas-button-response","59","391541","0.0-59.0","1163","0","","","","","","","","","","","","","","confidence","","","0","8","","","","","","","","","","6"
"","","","","","","","","","","","html-keyboard-response","60","392543","0.0-60.0","null","null","","","","","","","","","","","","","","feedback","Wed Oct 08 2025 22:37:36 GMT-0400 (Eastern Daylight Time)","27003","0","8","","","","","","","","","",""
"","","","","","","","","","","","preload","61","392544","0.0-61.0","","","","","true","","","","","","","","","","","preload","","","0","9","false","[]","[]","[]","","","","","",""
"","","","","","","","","","","","canvas-keyboard-response","62","392846","0.0-62.0","null","null","","","","","","","","","","","","","","fixation","","","0","9","","","","","","","","","",""
"","","","","","","","","","","","canvas-keyboard-response","63","393148","0.0-63.0","null","null","","","","","","","","","","","","","","stimulus","","","0","9","","","","","","","","","",""
"","","","","","","","","","","","canvas-button-response","64","393958","0.0-64.0","808","car","","","","","","","","","","","","","","perceptual","","","0","9","","","","","12","car","1","","1",""
"","","","","","","","","","","","canvas-button-response","65","395042","0.0-65.0","1082","10","","","","","","","","","","","","","","confidence","","","0","9","","","","","","","","","","7"
"","","","","","","","","","","","html-keyboard-response","66","396046","0.0-66.0","null","null","","","","","","","","","","","","","","feedback","Wed Oct 08 2025 22:37:39 GMT-0400 (Eastern Daylight Time)","27003","0","9","","","","","","","","","",""
"","","","","","","","","","","","html-button-response","67","403009","0.0-67.0","6961","0","","","","","","","","","","","","","","start_practice","Wed Oct 08 2025 22:37:40 GMT-0400 (Eastern Daylight Time)","27003","0","9","","","","","","","","","",""
"","","","","","","","","","","","preload","68","403010","0.0-68.0","","","","","true","","","","","","","","","","","preload","","","1","0","false","[]","[]","[]","","","","","",""
"","","","","","","","","","","","canvas-keyboard-response","69","403313","0.0-69.0","null","null","","","","","","","","","","","","","","fixation","","","1","0","","","","","","","","","",""
"","","","","","","","","","","","canvas-keyboard-response","70","403616","0.0-70.0","null","null","","","","","","","","","","","","","","stimulus","","","1","0","","","","","","","","","",""
"","","","","","","","","","","","canvas-button-response","71","405309","0.0-71.0","1691","bridge","","","","","","","","","","","","","","perceptual","","","1","0","","","","","37","bed","10","","0",""
"","","","","","","","","","","","canvas-button-response","72","407142","0.0-72.0","1830","0","","","","","","","","","","","","","","confidence","","","1","0","","","","","","","","","","0"
"","","","","","","","","","","","html-keyboard-response","73","408143","0.0-73.0","null","null","","","","","","","","","","","","","","feedback","Wed Oct 08 2025 22:37:51 GMT-0400 (Eastern Daylight Time)","27003","1","0","","","","","","","","","",""
"","","","","","","","","","","","preload","74","408144","0.0-74.0","","","","","true","","","","","","","","","","","preload","","","1","1","false","[]","[]","[]","","","","","",""
"","","","","","","","","","","","canvas-keyboard-response","75","408445","0.0-75.0","null","null","","","","","","","","","","","","","","fixation","","","1","1","","","","","","","","","",""
"","","","","","","","","","","","canvas-keyboard-response","76","408749","0.0-76.0","null","null","","","","","","","","","","","","","","stimulus","","","1","1","","","","","","","","","",""
"","","","","","","","","","","","canvas-button-response","77","409425","0.0-77.0","673","bridge","","","","","","","","","","","","","","perceptual","","","1","1","","","","","47","bridge","10","","1",""
"","","","","","","","","","","","canvas-button-response","78","410142","0.0-78.0","715","0","","","","","","","","","","","","","","confidence","","","1","1","","","","","","","","","","1"
"","","","","","","","","","","","html-keyboard-response","79","411144","0.0-79.0","null","null","","","","","","","","","","","","","","feedback","Wed Oct 08 2025 22:37:54 GMT-0400 (Eastern Daylight Time)","27003","1","1","","","","","","","","","",""
"","","","","","","","","","","","preload","80","411145","0.0-80.0","","","","","true","","","","","","","","","","","preload","","","1","2","false","[]","[]","[]","","","","","",""
"","","","","","","","","","","","canvas-keyboard-response","81","411447","0.0-81.0","null","null","","","","","","","","","","","","","","fixation","","","1","2","","","","","","","","","",""
"","","","","","","","","","","","canvas-keyboard-response","82","411750","0.0-82.0","null","null","","","","","","","","","","","","","","stimulus","","","1","2","","","","","","","","","",""
"","","","","","","","","","","","canvas-button-response","83","413624","0.0-83.0","1872","knife","","","","","","","","","","","","","","perceptual","","","1","2","","","","","97","knife","10","","1",""
"","","","","","","","","","","","canvas-button-response","84","414575","0.0-84.0","948","5","","","","","","","","","","","","","","confidence","","","1","2","","","","","","","","","","2"
"","","","","","","","","","","","html-keyboard-response","85","415579","0.0-85.0","null","null","","","","","","","","","","","","","","feedback","Wed Oct 08 2025 22:37:59 GMT-0400 (Eastern Daylight Time)","27003","1","2","","","","","","","","","",""
"","","","","","","","","","","","preload","86","415580","0.0-86.0","","","","","true","","","","","","","","","","","preload","","","1","3","false","[]","[]","[]","","","","","",""
"","","","","","","","","","","","canvas-keyboard-response","87","415883","0.0-87.0","null","null","","","","","","","","","","","","","","fixation","","","1","3","","","","","","","","","",""
"","","","","","","","","","","","canvas-keyboard-response","88","416186","0.0-88.0","null","null","","","","","","","","","","","","","","stimulus","","","1","3","","","","","","","","","",""
"","","","","","","","","","","","canvas-button-response","89","417725","0.0-89.0","1536","flower","","","","","","","","","","","","","","perceptual","","","1","3","","","","","54","flower","6","","1",""
"","","","","","","","","","","","canvas-button-response","90","418641","0.0-90.0","913","5","","","","","","","","","","","","","","confidence","","","1","3","","","","","","","","","","3"
"","","","","","","","","","","","html-keyboard-response","91","419643","0.0-91.0","null","null","","","","","","","","","","","","","","feedback","Wed Oct 08 2025 22:38:03 GMT-0400 (Eastern Daylight Time)","27003","1","3","","","","","","","","","",""
"","","","","","","","","","","","preload","92","419645","0.0-92.0","","","","","true","","","","","","","","","","","preload","","","1","4","false","[]","[]","[]","","","","","",""
"","","","","","","","","","","","canvas-keyboard-response","93","419948","0.0-93.0","null","null","","","","","","","","","","","","","","fixation","","","1","4","","","","","","","","","",""
"","","","","","","","","","","","canvas-keyboard-response","94","420250","0.0-94.0","null","null","","","","","","","","","","","","","","stimulus","","","1","4","","","","","","","","","",""
"","","","","","","","","","","","canvas-button-response","95","424709","0.0-95.0","4457","elephant","","","","","","","","","","","","","","perceptual","","","1","4","","","","","74","cat","6","","0",""
"","","","","","","","","","","","canvas-button-response","96","425842","0.0-96.0","1130","0","","","","","","","","","","","","","","confidence","","","1","4","","","","","","","","","","3"
"","","","","","","","","","","","html-keyboard-response","97","426845","0.0-97.0","null","null","","","","","","","","","","","","","","feedback","Wed Oct 08 2025 22:38:10 GMT-0400 (Eastern Daylight Time)","27003","1","4","","","","","","","","","",""
"","","","","","","","","","","","preload","98","426846","0.0-98.0","","","","","true","","","","","","","","","","","preload","","","1","5","false","[]","[]","[]","","","","","",""
"","","","","","","","","","","","canvas-keyboard-response","99","427149","0.0-99.0","null","null","","","","","","","","","","","","","","fixation","","","1","5","","","","","","","","","",""
"","","","","","","","","","","","canvas-keyboard-response","100","427451","0.0-100.0","null","null","","","","","","","","","","","","","","stimulus","","","1","5","","","","","","","","","",""
"","","","","","","","","","","","canvas-button-response","101","429242","0.0-101.0","1789","house","","","","","","","","","","","","","","perceptual","","","1","5","","","","","4","house","6","","1",""
"","","","","","","","","","","","canvas-button-response","102","429742","0.0-102.0","498","3","","","","","","","","","","","","","","confidence","","","1","5","","","","","","","","","","4"
"","","","","","","","","","","","html-keyboard-response","103","430746","0.0-103.0","null","null","","","","","","","","","","","","","","feedback","Wed Oct 08 2025 22:38:14 GMT-0400 (Eastern Daylight Time)","27003","1","5","","","","","","","","","",""
"","","","","","","","","","","","preload","104","430747","0.0-104.0","","","","","true","","","","","","","","","","","preload","","","1","6","false","[]","[]","[]","","","","","",""
"","","","","","","","","","","","canvas-keyboard-response","105","431050","0.0-105.0","null","null","","","","","","","","","","","","","","fixation","","","1","6","","","","","","","","","",""
"","","","","","","","","","","","canvas-keyboard-response","106","431353","0.0-106.0","null","null","","","","","","","","","","","","","","stimulus","","","1","6","","","","","","","","","",""
"","","","","","","","","","","","canvas-button-response","107","433325","0.0-107.0","1969","train","","","","","","","","","","","","","","perceptual","","","1","6","","","","","67","train","10","","1",""
"","","","","","","","","","","","canvas-button-response","108","435108","0.0-108.0","1780","7","","","","","","","","","","","","","","confidence","","","1","6","","","","","","","","","","5"
"","","","","","","","","","","","html-keyboard-response","109","436110","0.0-109.0","null","null","","","","","","","","","","","","","","feedback","Wed Oct 08 2025 22:38:19 GMT-0400 (Eastern Daylight Time)","27003","1","6","","","","","","","","","",""
"","","","","","","","","","","","preload","110","436111","0.0-110.0","","","","","true","","","","","","","","","","","preload","","","1","7","false","[]","[]","[]","","","","","",""
"","","","","","","","","","","","canvas-keyboard-response","111","436415","0.0-111.0","null","null","","","","","","","","","","","","","","fixation","","","1","7","","","","","","","","","",""
"","","","","","","","","","","","canvas-keyboard-response","112","436718","0.0-112.0","null","null","","","","","","","","","","","","","","stimulus","","","1","7","","","","","","","","","",""
"","","","","","","","","","","","canvas-button-response","113","438375","0.0-113.0","1654","elephant","","","","","","","","","","","","","","perceptual","","","1","7","","","","","87","elephant","10","","1",""
"","","","","","","","","","","","canvas-button-response","114","438909","0.0-114.0","531","7","","","","","","","","","","","","","","confidence","","","1","7","","","","","","","","","","6"
"","","","","","","","","","","","html-keyboard-response","115","439912","0.0-115.0","null","null","","","","","","","","","","","","","","feedback","Wed Oct 08 2025 22:38:23 GMT-0400 (Eastern Daylight Time)","27003","1","7","","","","","","","","","",""
"","","","","","","","","","","","preload","116","439913","0.0-116.0","","","","","true","","","","","","","","","","","preload","","","1","8","false","[]","[]","[]","","","","","",""
"","","","","","","","","","","","canvas-keyboard-response","117","440217","0.0-117.0","null","null","","","","","","","","","","","","","","fixation","","","1","8","","","","","","","","","",""
"","","","","","","","","","","","canvas-keyboard-response","118","440520","0.0-118.0","null","null","","","","","","","","","","","","","","stimulus","","","1","8","","","","","","","","","",""
"","","","","","","","","","","","canvas-button-response","119","441859","0.0-119.0","1336","bed","","","","","","","","","","","","","","perceptual","","","1","8","","","","","34","bed","6","","1",""
"","","","","","","","","","","","canvas-button-response","120","442626","0.0-120.0","765","7","","","","","","","","","","","","","","confidence","","","1","8","","","","","","","","","","7"
"","","","","","","","","","","","html-keyboard-response","121","443629","0.0-121.0","null","null","","","","","","","","","","","","","","feedback","Wed Oct 08 2025 22:38:27 GMT-0400 (Eastern Daylight Time)","27003","1","8","","","","","","","","","",""
"","","","","","","","","","","","preload","122","443630","0.0-122.0","","","","","true","","","","","","","","","","","preload","","","1","9","false","[]","[]","[]","","","","","",""
"","","","","","","","","","","","canvas-keyboard-response","123","443932","0.0-123.0","null","null","","","","","","","","","","","","","","fixation","","","1","9","","","","","","","","","",""
"","","","","","","","","","","","canvas-keyboard-response","124","444235","0.0-124.0","null","null","","","","","","","","","","","","","","stimulus","","","1","9","","","","","","","","","",""
"","","","","","","","","","","","canvas-button-response","125","447492","0.0-125.0","3256","bridge","","","","","","","","","","","","","","perceptual","","","1","9","","","","","14","car","6","","0",""
"","","","","","","","","","","","canvas-button-response","126","448626","0.0-126.0","1131","1","","","","","","","","","","","","","","confidence","","","1","9","","","","","","","","","","7"
"","","","","","","","","","","","html-keyboard-response","127","449628","0.0-127.0","null","null","","","","","","","","","","","","","","feedback","Wed Oct 08 2025 22:38:33 GMT-0400 (Eastern Daylight Time)","27003","1","9","","","","","","","","","",""
"","","","","","","","","","","","preload","128","449629","0.0-128.0","","","","","true","","","","","","","","","","","preload","","","1","10","false","[]","[]","[]","","","","","",""
"","","","","","","","","","","","canvas-keyboard-response","129","449932","0.0-129.0","null","null","","","","","","","","","","","","","","fixation","","","1","10","","","","","","","","","",""
"","","","","","","","","","","","canvas-keyboard-response","130","450236","0.0-130.0","null","null","","","","","","","","","","","","","","stimulus","","","1","10","","","","","","","","","",""
"","","","","","","","","","","","canvas-button-response","131","452026","0.0-131.0","1788","house","","","","","","","","","","","","","","perceptual","","","1","10","","","","","7","house","10","","1",""
"","","","","","","","","","","","canvas-button-response","132","452426","0.0-132.0","397","4","","","","","","","","","","","","","","confidence","","","1","10","","","","","","","","","","8"
"","","","","","","","","","","","html-keyboard-response","133","453429","0.0-133.0","null","null","","","","","","","","","","","","","","feedback","Wed Oct 08 2025 22:38:37 GMT-0400 (Eastern Daylight Time)","27003","1","10","","","","","","","","","",""
"","","","","","","","","","","","preload","134","453430","0.0-134.0","","","","","true","","","","","","","","","","","preload","","","1","11","false","[]","[]","[]","","","","","",""
"","","","","","","","","","","","canvas-keyboard-response","135","453733","0.0-135.0","null","null","","","","","","","","","","","","","","fixation","","","1","11","","","","","","","","","",""
"","","","","","","","","","","","canvas-keyboard-response","136","454038","0.0-136.0","null","null","","","","","","","","","","","","","","stimulus","","","1","11","","","","","","","","","",""
"","","","","","","","","","","","canvas-button-response","137","456043","0.0-137.0","2002","bed","","","","","","","","","","","","","","perceptual","","","1","11","","","","","44","bridge","6","","0",""
"","","","","","","","","","","","canvas-button-response","138","456726","0.0-138.0","681","1","","","","","","","","","","","","","","confidence","","","1","11","","","","","","","","","","8"
"","","","","","","","","","","","html-keyboard-response","139","457730","0.0-139.0","null","null","","","","","","","","","","","","","","feedback","Wed Oct 08 2025 22:38:41 GMT-0400 (Eastern Daylight Time)","27003","1","11","","","","","","","","","",""
"","","","","","","","","","","","preload","140","457731","0.0-140.0","","","","","true","","","","","","","","","","","preload","","","1","12","false","[]","[]","[]","","","","","",""
"","","","","","","","","","","","canvas-keyboard-response","141","458034","0.0-141.0","null","null","","","","","","","","","","","","","","fixation","","","1","12","","","","","","","","","",""
"","","","","","","","","","","","canvas-keyboard-response","142","458337","0.0-142.0","null","null","","","","","","","","","","","","","","stimulus","","","1","12","","","","","","","","","",""
"","","","","","","","","","","","canvas-button-response","143","462543","0.0-143.0","4203","knife","","","","","","","","","","","","","","perceptual","","","1","12","","","","","94","knife","6","","1",""
"","","","","","","","","","","","canvas-button-response","144","464426","0.0-144.0","1881","0","","","","","","","","","","","","","","confidence","","","1","12","","","","","","","","","","9"
"","","","","","","","","","","","html-keyboard-response","145","465429","0.0-145.0","null","null","","","","","","","","","","","","","","feedback","Wed Oct 08 2025 22:38:49 GMT-0400 (Eastern Daylight Time)","27003","1","12","","","","","","","","","",""
"","","","","","","","","","","","preload","146","465430","0.0-146.0","","","","","true","","","","","","","","","","","preload","","","1","13","false","[]","[]","[]","","","","","",""
"","","","","","","","","","","","canvas-keyboard-response","147","465733","0.0-147.0","null","null","","","","","","","","","","","","","","fixation","","","1","13","","","","","","","","","",""
"","","","","","","","","","","","canvas-keyboard-response","148","466035","0.0-148.0","null","null","","","","","","","","","","","","","","stimulus","","","1","13","","","","","","","","","",""
"","","","","","","","","","","","canvas-button-response","149","467044","0.0-149.0","1006","bed","","","","","","","","","","","","","","perceptual","","","1","13","","","","","57","flower","10","","0",""
"","","","","","","","","","","","canvas-button-response","150","467759","0.0-150.0","713","0","","","","","","","","","","","","","","confidence","","","1","13","","","","","","","","","","9"
"","","","","","","","","","","","html-keyboard-response","151","468761","0.0-151.0","null","null","","","","","","","","","","","","","","feedback","Wed Oct 08 2025 22:38:52 GMT-0400 (Eastern Daylight Time)","27003","1","13","","","","","","","","","",""
"","","","","","","","","","","","preload","152","468762","0.0-152.0","","","","","true","","","","","","","","","","","preload","","","1","14","false","[]","[]","[]","","","","","",""
"","","","","","","","","","","","canvas-keyboard-response","153","469066","0.0-153.0","null","null","","","","","","","","","","","","","","fixation","","","1","14","","","","","","","","","",""
"","","","","","","","","","","","canvas-keyboard-response","154","469369","0.0-154.0","null","null","","","","","","","","","","","","","","stimulus","","","1","14","","","","","","","","","",""
"","","","","","","","","","","","canvas-button-response","155","471576","0.0-155.0","2205","cat","","","","","","","","","","","","","","perceptual","","","1","14","","","","","84","elephant","6","","0",""
"","","","","","","","","","","","canvas-button-response","156","472042","0.0-156.0","463","7","","","","","","","","","","","","","","confidence","","","1","14","","","","","","","","","","9"
"","","","","","","","","","","","html-keyboard-response","157","473045","0.0-157.0","null","null","","","","","","","","","","","","","","feedback","Wed Oct 08 2025 22:38:56 GMT-0400 (Eastern Daylight Time)","27003","1","14","","","","","","","","","",""
"","","","","","","","","","","","preload","158","473046","0.0-158.0","","","","","true","","","","","","","","","","","preload","","","1","15","false","[]","[]","[]","","","","","",""
"","","","","","","","","","","","canvas-keyboard-response","159","473349","0.0-159.0","null","null","","","","","","","","","","","","","","fixation","","","1","15","","","","","","","","","",""
"","","","","","","","","","","","canvas-keyboard-response","160","473652","0.0-160.0","null","null","","","","","","","","","","","","","","stimulus","","","1","15","","","","","","","","","",""
"","","","","","","","","","","","canvas-button-response","161","474443","0.0-161.0","788","cat","","","","","","","","","","","","","","perceptual","","","1","15","","","","","77","cat","10","","1",""
"","","","","","","","","","","","canvas-button-response","162","475426","0.0-162.0","980","0","","","","","","","","","","","","","","confidence","","","1","15","","","","","","","","","","10"
"","","","","","","","","","","","html-keyboard-response","163","476429","0.0-163.0","null","null","","","","","","","","","","","","","","feedback","Wed Oct 08 2025 22:39:00 GMT-0400 (Eastern Daylight Time)","27003","1","15","","","","","","","","","",""
"","","","","","","","","","","","preload","164","476430","0.0-164.0","","","","","true","","","","","","","","","","","preload","","","1","16","false","[]","[]","[]","","","","","",""
"","","","","","","","","","","","canvas-keyboard-response","165","476734","0.0-165.0","null","null","","","","","","","","","","","","","","fixation","","","1","16","","","","","","","","","",""
"","","","","","","","","","","","canvas-keyboard-response","166","477035","0.0-166.0","null","null","","","","","","","","","","","","","","stimulus","","","1","16","","","","","","","","","",""
"","","","","","","","","","","","canvas-button-response","167","478093","0.0-167.0","1056","train","","","","","","","","","","","","","","perceptual","","","1","16","","","","","64","train","6","","1",""
"","","","","","","","","","","","canvas-button-response","168","478642","0.0-168.0","546","10","","","","","","","","","","","","","","confidence","","","1","16","","","","","","","","","","11"
"","","","","","","","","","","","html-keyboard-response","169","479645","0.0-169.0","null","null","","","","","","","","","","","","","","feedback","Wed Oct 08 2025 22:39:03 GMT-0400 (Eastern Daylight Time)","27003","1","16","","","","","","","","","",""
"","","","","","","","","","","","preload","170","479645","0.0-170.0","","","","","true","","","","","","","","","","","preload","","","1","17","false","[]","[]","[]","","","","","",""
"","","","","","","","","","","","canvas-keyboard-response","171","479948","0.0-171.0","null","null","","","","","","","","","","","","","","fixation","","","1","17","","","","","","","","","",""
"","","","","","","","","","","","canvas-keyboard-response","172","480251","0.0-172.0","null","null","","","","","","","","","","","","","","stimulus","","","1","17","","","","","","","","","",""
"","","","","","","","","","","","canvas-button-response","173","482025","0.0-173.0","1772","phone","","","","","","","","","","","","","","perceptual","","","1","17","","","","","24","phone","6","","1",""
"","","","","","","","","","","","canvas-button-response","174","483043","0.0-174.0","1015","6","","","","","","","","","","","","","","confidence","","","1","17","","","","","","","","","","12"
"","","","","","","","","","","","html-keyboard-response","175","484046","0.0-175.0","null","null","","","","","","","","","","","","","","feedback","Wed Oct 08 2025 22:39:07 GMT-0400 (Eastern Daylight Time)","27003","1","17","","","","","","","","","",""
"","","","","","","","","","","","preload","176","484048","0.0-176.0","","","","","true","","","","","","","","","","","preload","","","1","18","false","[]","[]","[]","","","","","",""
"","","","","","","","","","","","canvas-keyboard-response","177","484351","0.0-177.0","null","null","","","","","","","","","","","","","","fixation","","","1","18","","","","","","","","","",""
"","","","","","","","","","","","canvas-keyboard-response","178","484655","0.0-178.0","null","null","","","","","","","","","","","","","","stimulus","","","1","18","","","","","","","","","",""
"","","","","","","","","","","","canvas-button-response","179","486142","0.0-179.0","1485","bed","","","","","","","","","","","","","","perceptual","","","1","18","","","","","17","car","10","","0",""
"","","","","","","","","","","","canvas-button-response","180","486776","0.0-180.0","631","0","","","","","","","","","","","","","","confidence","","","1","18","","","","","","","","","","12"
"","","","","","","","","","","","html-keyboard-response","181","487779","0.0-181.0","null","null","","","","","","","","","","","","","","feedback","Wed Oct 08 2025 22:39:11 GMT-0400 (Eastern Daylight Time)","27003","1","18","","","","","","","","","",""
"","","","","","","","","","","","preload","182","487780","0.0-182.0","","","","","true","","","","","","","","","","","preload","","","1","19","false","[]","[]","[]","","","","","",""
"","","","","","","","","","","","canvas-keyboard-response","183","488083","0.0-183.0","null","null","","","","","","","","","","","","","","fixation","","","1","19","","","","","","","","","",""
"","","","","","","","","","","","canvas-keyboard-response","184","488386","0.0-184.0","null","null","","","","","","","","","","","","","","stimulus","","","1","19","","","","","","","","","",""
"","","","","","","","","","","","canvas-button-response","185","489759","0.0-185.0","1370","bed","","","","","","","","","","","","","","perceptual","","","1","19","","","","","27","phone","10","","0",""
"","","","","","","","","","","","canvas-button-response","186","490293","0.0-186.0","531","0","","","","","","","","","","","","","","confidence","","","1","19","","","","","","","","","","12"
"","","","","","","","","","","","html-keyboard-response","187","491296","0.0-187.0","null","null","","","","","","","","","","","","","","feedback","Wed Oct 08 2025 22:39:14 GMT-0400 (Eastern Daylight Time)","27003","1","19","","","","","","","","","",""
"","","","","","","","","","","","html-button-response","188","497410","0.0-188.0","6111","0","","","","","","","","","","","","","","start experiment","Wed Oct 08 2025 22:39:15 GMT-0400 (Eastern Daylight Time)","27003","1","19","","","","","","","","","",""
"","","","","","","","","","","","preload","189","497411","0.0-189.0","","","","","true","","","","","","","","","","","preload","","","2","0","false","[]","[]","[]","","","","","",""
"","","","","","","","","","","","canvas-keyboard-response","190","497714","0.0-190.0","null","null","","","","","","","","","","","","","","fixation","","","2","0","","","","","","","","","",""
"","","","","","","","","","","","canvas-keyboard-response","191","498022","0.0-191.0","null","null","","","","","","","","","","","","","","stimulus","","","2","0","","","","","","","","","",""
"","","","","","","","","","","","canvas-button-response","192","498642","0.0-192.0","619","car","","","","","","","","","","","","","","perceptual","","","2","0","","","","","194","bridge","10","0","0",""
"","","","","","","","","","","","canvas-button-response","193","499175","0.0-193.0","531","5","","","","","","","","","","","","","","confidence","","","2","0","","","","","","","","","","0"
"","","","","","","","","","","","preload","194","499177","0.0-194.0","","","","","true","","","","","","","","","","","preload","","","2","1","false","[]","[]","[]","","","","","",""
"","","","","","","","","","","","canvas-keyboard-response","195","499479","0.0-195.0","null","null","","","","","","","","","","","","","","fixation","","","2","1","","","","","","","","","",""
"","","","","","","","","","","","canvas-keyboard-response","196","499781","0.0-196.0","null","null","","","","","","","","","","","","","","stimulus","","","2","1","","","","","","","","","",""
"","","","","","","","","","","","canvas-button-response","197","501144","0.0-197.0","1360","house","","","","","","","","","","","","","","perceptual","","","2","1","","","","","39","house","10","0","1",""
"","","","","","","","","","","","canvas-button-response","198","501827","0.0-198.0","680","3","","","","","","","","","","","","","","confidence","","","2","1","","","","","","","","","","1"
"","","","","","","","","","","","preload","199","501828","0.0-199.0","","","","","true","","","","","","","","","","","preload","","","2","2","false","[]","[]","[]","","","","","",""
"","","","","","","","","","","","canvas-keyboard-response","200","502131","0.0-200.0","null","null","","","","","","","","","","","","","","fixation","","","2","2","","","","","","","","","",""
"","","","","","","","","","","","canvas-keyboard-response","201","502433","0.0-201.0","null","null","","","","","","","","","","","","","","stimulus","","","2","2","","","","","","","","","",""
"","","","","","","","","","","","canvas-button-response","202","503227","0.0-202.0","792","car","","","","","","","","","","","","","","perceptual","","","2","2","","","","","387","knife","10","0","0",""
"","","","","","","","","","","","canvas-button-response","203","503776","0.0-203.0","547","5","","","","","","","","","","","","","","confidence","","","2","2","","","","","","","","","","1"
"","","","","","","","","","","","preload","204","503777","0.0-204.0","","","","","true","","","","","","","","","","","preload","","","2","3","false","[]","[]","[]","","","","","",""
"","","","","","","","","","","","canvas-keyboard-response","205","504080","0.0-205.0","null","null","","","","","","","","","","","","","","fixation","","","2","3","","","","","","","","","",""
"","","","","","","","","","","","canvas-keyboard-response","206","504384","0.0-206.0","null","null","","","","","","","","","","","","","","stimulus","","","2","3","","","","","","","","","",""
"","","","","","","","","","","","canvas-button-response","207","505592","0.0-207.0","1206","bed","","","","","","","","","","","","","","perceptual","","","2","3","","","","","347","elephant","10","0","0",""
"","","","","","","","","","","","canvas-button-response","208","506109","0.0-208.0","514","0","","","","","","","","","","","","","","confidence","","","2","3","","","","","","","","","","1"
"","","","","","","","","","","","preload","209","506110","0.0-209.0","","","","","true","","","","","","","","","","","preload","","","2","4","false","[]","[]","[]","","","","","",""
"","","","","","","","","","","","canvas-keyboard-response","210","506430","0.0-210.0","null","null","","","","","","","","","","","","","","fixation","","","2","4","","","","","","","","","",""
"","","","","","","","","","","","canvas-keyboard-response","211","506732","0.0-211.0","null","null","","","","","","","","","","","","","","stimulus","","","2","4","","","","","","","","","",""
"","","","","","","","","","","","canvas-button-response","212","508560","0.0-212.0","1826","phone","","","","","","","","","","","","","","perceptual","","","2","4","","","","","88","phone","6","0","1",""
"","","","","","","","","","","","canvas-button-response","213","509060","0.0-213.0","497","8","","","","","","","","","","","","","","confidence","","","2","4","","","","","","","","","","2"
"","","","","","","","","","","","preload","214","509061","0.0-214.0","","","","","true","","","","","","","","","","","preload","","","2","5","false","[]","[]","[]","","","","","",""
"","","","","","","","","","","","canvas-keyboard-response","215","509363","0.0-215.0","null","null","","","","","","","","","","","","","","fixation","","","2","5","","","","","","","","","",""
"","","","","","","","","","","","canvas-keyboard-response","216","509667","0.0-216.0","null","null","","","","","","","","","","","","","","stimulus","","","2","5","","","","","","","","","",""
"","","","","","","","","","","","canvas-button-response","217","511027","0.0-217.0","1357","cat","","","","","","","","","","","","","","perceptual","","","2","5","","","","","127","bed","6","0","0",""
"","","","","","","","","","","","canvas-button-response","218","511761","0.0-218.0","732","0","","","","","","","","","","","","","","confidence","","","2","5","","","","","","","","","","2"
"","","","","","","","","","","","preload","219","511762","0.0-219.0","","","","","true","","","","","","","","","","","preload","","","2","6","false","[]","[]","[]","","","","","",""
"","","","","","","","","","","","canvas-keyboard-response","220","512065","0.0-220.0","null","null","","","","","","","","","","","","","","fixation","","","2","6","","","","","","","","","",""
"","","","","","","","","","","","canvas-keyboard-response","221","512368","0.0-221.0","null","null","","","","","","","","","","","","","","stimulus","","","2","6","","","","","","","","","",""
"","","","","","","","","","","","canvas-button-response","222","513193","0.0-222.0","822","cat","","","","","","","","","","","","","","perceptual","","","2","6","","","","","140","bed","10","0","0",""
"","","","","","","","","","","","canvas-button-response","223","513777","0.0-223.0","581","0","","","","","","","","","","","","","","confidence","","","2","6","","","","","","","","","","2"
"","","","","","","","","","","","preload","224","513778","0.0-224.0","","","","","true","","","","","","","","","","","preload","","","2","7","false","[]","[]","[]","","","","","",""
"","","","","","","","","","","","canvas-keyboard-response","225","514080","0.0-225.0","null","null","","","","","","","","","","","","","","fixation","","","2","7","","","","","","","","","",""
"","","","","","","","","","","","canvas-keyboard-response","226","514381","0.0-226.0","null","null","","","","","","","","","","","","","","stimulus","","","2","7","","","","","","","","","",""
"","","","","","","","","","","","canvas-button-response","227","514877","0.0-227.0","493","cat","","","","","","","","","","","","","","perceptual","","","2","7","","","","","305","cat","10","0","1",""
"","","","","","","","","","","","canvas-button-response","228","515510","0.0-228.0","630","0","","","","","","","","","","","","","","confidence","","","2","7","","","","","","","","","","3"
"","","","","","","","","","","","preload","229","515511","0.0-229.0","","","","","true","","","","","","","","","","","preload","","","2","8","false","[]","[]","[]","","","","","",""
"","","","","","","","","","","","canvas-keyboard-response","230","515813","0.0-230.0","null","null","","","","","","","","","","","","","","fixation","","","2","8","","","","","","","","","",""
"","","","","","","","","","","","canvas-keyboard-response","231","516115","0.0-231.0","null","null","","","","","","","","","","","","","","stimulus","","","2","8","","","","","","","","","",""
"","","","","","","","","","","","canvas-button-response","232","516660","0.0-232.0","542","car","","","","","","","","","","","","","","perceptual","","","2","8","","","","","315","cat","10","0","0",""
"","","","","","","","","","","","canvas-button-response","233","517210","0.0-233.0","547","0","","","","","","","","","","","","","","confidence","","","2","8","","","","","","","","","","3"
"","","","","","","","","","","","preload","234","517211","0.0-234.0","","","","","true","","","","","","","","","","","preload","","","2","9","false","[]","[]","[]","","","","","",""
"","","","","","","","","","","","canvas-keyboard-response","235","517512","0.0-235.0","null","null","","","","","","","","","","","","","","fixation","","","2","9","","","","","","","","","",""
"","","","","","","","","","","","canvas-keyboard-response","236","517814","0.0-236.0","null","null","","","","","","","","","","","","","","stimulus","","","2","9","","","","","","","","","",""
"","","","","","","","","","","","canvas-button-response","237","518261","0.0-237.0","444","car","","","","","","","","","","","","","","perceptual","","","2","9","","","","","106","phone","10","0","0",""
"","","","","","","","","","","","canvas-button-response","238","519010","0.0-238.0","746","0","","","","","","","","","","","","","","confidence","","","2","9","","","","","","","","","","3"
"","","","","","","","","","","","preload","239","519011","0.0-239.0","","","","","true","","","","","","","","","","","preload","","","2","10","false","[]","[]","[]","","","","","",""
"","","","","","","","","","","","canvas-keyboard-response","240","519312","0.0-240.0","null","null","","","","","","","","","","","","","","fixation","","","2","10","","","","","","","","","",""
"","","","","","","","","","","","canvas-keyboard-response","241","519615","0.0-241.0","null","null","","","","","","","","","","","","","","stimulus","","","2","10","","","","","","","","","",""
"","","","","","","","","","","","canvas-button-response","242","520192","0.0-242.0","574","car","","","","","","","","","","","","","","perceptual","","","2","10","","","","","109","phone","10","0","0",""
"","","","","","","","","","","","canvas-button-response","243","521511","0.0-243.0","1317","0","","","","","","","","","","","","","","confidence","","","2","10","","","","","","","","","","3"
"","","","","","","","","","","","preload","244","521512","0.0-244.0","","","","","true","","","","","","","","","","","preload","","","2","11","false","[]","[]","[]","","","","","",""
"","","","","","","","","","","","canvas-keyboard-response","245","521829","0.0-245.0","null","null","","","","","","","","","","","","","","fixation","","","2","11","","","","","","","","","",""
"","","","","","","","","","","","canvas-keyboard-response","246","522132","0.0-246.0","null","null","","","","","","","","","","","","","","stimulus","","","2","11","","","","","","","","","",""
"","","","","","","","","","","","canvas-button-response","247","522693","0.0-247.0","559","car","","","","","","","","","","","","","","perceptual","","","2","11","","","","","280","cat","6","0","0",""
"","","","","","","","","","","","canvas-button-response","248","523426","0.0-248.0","730","0","","","","","","","","","","","","","","confidence","","","2","11","","","","","","","","","","3"
"","","","","","","","","","","","preload","249","523427","0.0-249.0","","","","","true","","","","","","","","","","","preload","","","2","12","false","[]","[]","[]","","","","","",""
"","","","","","","","","","","","canvas-keyboard-response","250","523728","0.0-250.0","null","null","","","","","","","","","","","","","","fixation","","","2","12","","","","","","","","","",""
"","","","","","","","","","","","canvas-keyboard-response","251","524030","0.0-251.0","null","null","","","","","","","","","","","","","","stimulus","","","2","12","","","","","","","","","",""
"","","","","","","","","","","","canvas-button-response","252","524577","0.0-252.0","545","car","","","","","","","","","","","","","","perceptual","","","2","12","","","","","190","bridge","10","0","0",""
"","","","","","","","","","","","canvas-button-response","253","525409","0.0-253.0","829","0","","","","","","","","","","","","","","confidence","","","2","12","","","","","","","","","","3"
"","","","","","","","","","","","preload","254","525410","0.0-254.0","","","","","true","","","","","","","","","","","preload","","","2","13","false","[]","[]","[]","","","","","",""
"","","","","","","","","","","","canvas-keyboard-response","255","525712","0.0-255.0","null","null","","","","","","","","","","","","","","fixation","","","2","13","","","","","","","","","",""
"","","","","","","","","","","","canvas-keyboard-response","256","526013","0.0-256.0","null","null","","","","","","","","","","","","","","stimulus","","","2","13","","","","","","","","","",""
"","","","","","","","","","","","canvas-button-response","257","528010","0.0-257.0","1995","flower","","","","","","","","","","","","","","perceptual","","","2","13","","","","","36","house","10","0","0",""
"","","","","","","","","","","","canvas-button-response","258","528994","0.0-258.0","982","2","","","","","","","","","","","","","","confidence","","","2","13","","","","","","","","","","3"
"","","","","","","","","","","","preload","259","528995","0.0-259.0","","","","","true","","","","","","","","","","","preload","","","2","14","false","[]","[]","[]","","","","","",""
"","","","","","","","","","","","canvas-keyboard-response","260","529298","0.0-260.0","null","null","","","","","","","","","","","","","","fixation","","","2","14","","","","","","","","","",""
"","","","","","","","","","","","canvas-keyboard-response","261","529602","0.0-261.0","null","null","","","","","","","","","","","","","","stimulus","","","2","14","","","","","","","","","",""
"","","","","","","","","","","","canvas-button-response","262","531110","0.0-262.0","1505","train","","","","","","","","","","","","","","perceptual","","","2","14","","","","","293","cat","6","0","0",""
"","","","","","","","","","","","canvas-button-response","263","532010","0.0-263.0","897","2","","","","","","","","","","","","","","confidence","","","2","14","","","","","","","","","","3"
"","","","","","","","","","","","preload","264","532011","0.0-264.0","","","","","true","","","","","","","","","","","preload","","","2","15","false","[]","[]","[]","","","","","",""
"","","","","","","","","","","","canvas-keyboard-response","265","532312","0.0-265.0","null","null","","","","","","","","","","","","","","fixation","","","2","15","","","","","","","","","",""
"","","","","","","","","","","","canvas-keyboard-response","266","532616","0.0-266.0","null","null","","","","","","","","","","","","","","stimulus","","","2","15","","","","","","","","","",""
"","","","","","","","","","","","canvas-button-response","267","533644","0.0-267.0","1026","cat","","","","","","","","","","","","","","perceptual","","","2","15","","","","","317","cat","10","0","1",""
"","","","","","","","","","","","canvas-button-response","268","534694","0.0-268.0","1046","5","","","","","","","","","","","","","","confidence","","","2","15","","","","","","","","","","4"
"","","","","","","","","","","","preload","269","534695","0.0-269.0","","","","","true","","","","","","","","","","","preload","","","2","16","false","[]","[]","[]","","","","","",""
"","","","","","","","","","","","canvas-keyboard-response","270","534997","0.0-270.0","null","null","","","","","","","","","","","","","","fixation","","","2","16","","","","","","","","","",""
"","","","","","","","","","","","canvas-keyboard-response","271","535303","0.0-271.0","null","null","","","","","","","","","","","","","","stimulus","","","2","16","","","","","","","","","",""
"","","","","","","","","","","","canvas-button-response","272","537144","0.0-272.0","1839","car","","","","","","","","","","","","","","perceptual","","","2","16","","","","","209","flower","6","0","0",""
"","","","","","","","","","","","canvas-button-response","273","537810","0.0-273.0","663","0","","","","","","","","","","","","","","confidence","","","2","16","","","","","","","","","","4"
"","","","","","","","","","","","preload","274","537811","0.0-274.0","","","","","true","","","","","","","","","","","preload","","","2","17","false","[]","[]","[]","","","","","",""
"","","","","","","","","","","","canvas-keyboard-response","275","538113","0.0-275.0","null","null","","","","","","","","","","","","","","fixation","","","2","17","","","","","","","","","",""
"","","","","","","","","","","","canvas-keyboard-response","276","538416","0.0-276.0","null","null","","","","","","","","","","","","","","stimulus","","","2","17","","","","","","","","","",""
"","","","","","","","","","","","canvas-button-response","277","539810","0.0-277.0","1391","bed","","","","","","","","","","","","","","perceptual","","","2","17","","","","","393","knife","10","0","0",""
"","","","","","","","","","","","canvas-button-response","278","540778","0.0-278.0","965","0","","","","","","","","","","","","","","confidence","","","2","17","","","","","","","","","","4"
"","","","","","","","","","","","preload","279","540779","0.0-279.0","","","","","true","","","","","","","","","","","preload","","","2","18","false","[]","[]","[]","","","","","",""
"","","","","","","","","","","","canvas-keyboard-response","280","541081","0.0-280.0","null","null","","","","","","","","","","","","","","fixation","","","2","18","","","","","","","","","",""
"","","","","","","","","","","","canvas-keyboard-response","281","541384","0.0-281.0","null","null","","","","","","","","","","","","","","stimulus","","","2","18","","","","","","","","","",""
"","","","","","","","","","","","canvas-button-response","282","542744","0.0-282.0","1357","flower","","","","","","","","","","","","","","perceptual","","","2","18","","","","","206","flower","6","0","1",""
"","","","","","","","","","","","canvas-button-response","283","543494","0.0-283.0","748","10","","","","","","","","","","","","","","confidence","","","2","18","","","","","","","","","","5"
"","","","","","","","","","","","preload","284","543496","0.0-284.0","","","","","true","","","","","","","","","","","preload","","","2","19","false","[]","[]","[]","","","","","",""
"","","","","","","","","","","","canvas-keyboard-response","285","543798","0.0-285.0","null","null","","","","","","","","","","","","","","fixation","","","2","19","","","","","","","","","",""
"","","","","","","","","","","","canvas-keyboard-response","286","544102","0.0-286.0","null","null","","","","","","","","","","","","","","stimulus","","","2","19","","","","","","","","","",""
"","","","","","","","","","","","canvas-button-response","287","545027","0.0-287.0","922","flower","","","","","","","","","","","","","","perceptual","","","2","19","","","","","216","flower","6","0","1",""
"","","","","","","","","","","","canvas-button-response","288","545845","0.0-288.0","816","10","","","","","","","","","","","","","","confidence","","","2","19","","","","","","","","","","6"
"","","","","","","","","","","","preload","289","545846","0.0-289.0","","","","","true","","","","","","","","","","","preload","","","2","20","false","[]","[]","[]","","","","","",""
"","","","","","","","","","","","canvas-keyboard-response","290","546149","0.0-290.0","null","null","","","","","","","","","","","","","","fixation","","","2","20","","","","","","","","","",""
"","","","","","","","","","","","canvas-keyboard-response","291","546453","0.0-291.0","null","null","","","","","","","","","","","","","","stimulus","","","2","20","","","","","","","","","",""
"","","","","","","","","","","","canvas-button-response","292","547210","0.0-292.0","755","flower","","","","","","","","","","","","","","perceptual","","","2","20","","","","","217","flower","6","0","1",""
"","","","","","","","","","","","canvas-button-response","293","548127","0.0-293.0","915","7","","","","","","","","","","","","","","confidence","","","2","20","","","","","","","","","","7"
"","","","","","","","","","","","preload","294","548128","0.0-294.0","","","","","true","","","","","","","","","","","preload","","","2","21","false","[]","[]","[]","","","","","",""
"","","","","","","","","","","","canvas-keyboard-response","295","548431","0.0-295.0","null","null","","","","","","","","","","","","","","fixation","","","2","21","","","","","","","","","",""
"","","","","","","","","","","","canvas-keyboard-response","296","548734","0.0-296.0","null","null","","","","","","","","","","","","","","stimulus","","","2","21","","","","","","","","","",""
"","","","","","","","","","","","canvas-button-response","297","549927","0.0-297.0","1190","cat","","","","","","","","","","","","","","perceptual","","","2","21","","","","","150","bed","10","0","0",""
"","","","","","","","","","","","canvas-button-response","298","550744","0.0-298.0","814","0","","","","","","","","","","","","","","confidence","","","2","21","","","","","","","","","","7"
"","","","","","","","","","","","preload","299","550745","0.0-299.0","","","","","true","","","","","","","","","","","preload","","","2","22","false","[]","[]","[]","","","","","",""
"","","","","","","","","","","","canvas-keyboard-response","300","551047","0.0-300.0","null","null","","","","","","","","","","","","","","fixation","","","2","22","","","","","","","","","",""
"","","","","","","","","","","","canvas-keyboard-response","301","551349","0.0-301.0","null","null","","","","","","","","","","","","","","stimulus","","","2","22","","","","","","","","","",""
"","","","","","","","","","","","canvas-button-response","302","553944","0.0-302.0","2591","bridge","","","","","","","","","","","","","","perceptual","","","2","22","","","","","161","bridge","6","0","1",""
"","","","","","","","","","","","canvas-button-response","303","555327","0.0-303.0","1380","2","","","","","","","","","","","","","","confidence","","","2","22","","","","","","","","","","8"
"","","","","","","","","","","","preload","304","555328","0.0-304.0","","","","","true","","","","","","","","","","","preload","","","2","23","false","[]","[]","[]","","","","","",""
"","","","","","","","","","","","canvas-keyboard-response","305","555630","0.0-305.0","null","null","","","","","","","","","","","","","","fixation","","","2","23","","","","","","","","","",""
"","","","","","","","","","","","canvas-keyboard-response","306","555934","0.0-306.0","null","null","","","","","","","","","","","","","","stimulus","","","2","23","","","","","","","","","",""
"","","","","","","","","","","","canvas-button-response","307","557211","0.0-307.0","1275","phone","","","","","","","","","","","","","","perceptual","","","2","23","","","","","130","bed","6","0","0",""
"","","","","","","","","","","","canvas-button-response","308","557895","0.0-308.0","681","2","","","","","","","","","","","","","","confidence","","","2","23","","","","","","","","","","8"
"","","","","","","","","","","","preload","309","557896","0.0-309.0","","","","","true","","","","","","","","","","","preload","","","2","24","false","[]","[]","[]","","","","","",""
"","","","","","","","","","","","canvas-keyboard-response","310","558199","0.0-310.0","null","null","","","","","","","","","","","","","","fixation","","","2","24","","","","","","","","","",""
"","","","","","","","","","","","canvas-keyboard-response","311","558503","0.0-311.0","null","null","","","","","","","","","","","","","","stimulus","","","2","24","","","","","","","","","",""
"","","","","","","","","","","","canvas-button-response","312","559944","0.0-312.0","1438","bridge","","","","","","","","","","","","","","perceptual","","","2","24","","","","","172","bridge","6","0","1",""
"","","","","","","","","","","","canvas-button-response","313","560528","0.0-313.0","581","6","","","","","","","","","","","","","","confidence","","","2","24","","","","","","","","","","9"
"","","","","","","","","","","","preload","314","560529","0.0-314.0","","","","","true","","","","","","","","","","","preload","","","2","25","false","[]","[]","[]","","","","","",""
"","","","","","","","","","","","canvas-keyboard-response","315","560831","0.0-315.0","null","null","","","","","","","","","","","","","","fixation","","","2","25","","","","","","","","","",""
"","","","","","","","","","","","canvas-keyboard-response","316","561134","0.0-316.0","null","null","","","","","","","","","","","","","","stimulus","","","2","25","","","","","","","","","",""
"","","","","","","","","","","","canvas-button-response","317","562328","0.0-317.0","1191","phone","","","","","","","","","","","","","","perceptual","","","2","25","","","","","144","bed","10","0","0",""
"","","","","","","","","","","","canvas-button-response","318","562895","0.0-318.0","564","3","","","","","","","","","","","","","","confidence","","","2","25","","","","","","","","","","9"
"","","","","","","","","","","","preload","319","562896","0.0-319.0","","","","","true","","","","","","","","","","","preload","","","2","26","false","[]","[]","[]","","","","","",""
"","","","","","","","","","","","canvas-keyboard-response","320","563199","0.0-320.0","null","null","","","","","","","","","","","","","","fixation","","","2","26","","","","","","","","","",""
"","","","","","","","","","","","canvas-keyboard-response","321","563502","0.0-321.0","null","null","","","","","","","","","","","","","","stimulus","","","2","26","","","","","","","","","",""
"","","","","","","","","","","","canvas-button-response","322","564810","0.0-322.0","1306","elephant","","","","","","","","","","","","","","perceptual","","","2","26","","","","","328","elephant","6","0","1",""
"","","","","","","","","","","","canvas-button-response","323","565511","0.0-323.0","698","3","","","","","","","","","","","","","","confidence","","","2","26","","","","","","","","","","10"
"","","","","","","","","","","","preload","324","565512","0.0-324.0","","","","","true","","","","","","","","","","","preload","","","2","27","false","[]","[]","[]","","","","","",""
"","","","","","","","","","","","canvas-keyboard-response","325","565815","0.0-325.0","null","null","","","","","","","","","","","","","","fixation","","","2","27","","","","","","","","","",""
"","","","","","","","","","","","canvas-keyboard-response","326","566118","0.0-326.0","null","null","","","","","","","","","","","","","","stimulus","","","2","27","","","","","","","","","",""
"","","","","","","","","","","","canvas-button-response","327","567461","0.0-327.0","1339","car","","","","","","","","","","","","","","perceptual","","","2","27","","","","","103","phone","10","0","0",""
"","","","","","","","","","","","canvas-button-response","328","568128","0.0-328.0","664","3","","","","","","","","","","","","","","confidence","","","2","27","","","","","","","","","","10"
"","","","","","","","","","","","preload","329","568129","0.0-329.0","","","","","true","","","","","","","","","","","preload","","","2","28","false","[]","[]","[]","","","","","",""
"","","","","","","","","","","","canvas-keyboard-response","330","568432","0.0-330.0","null","null","","","","","","","","","","","","","","fixation","","","2","28","","","","","","","","","",""
"","","","","","","","","","","","canvas-keyboard-response","331","568734","0.0-331.0","null","null","","","","","","","","","","","","","","stimulus","","","2","28","","","","","","","","","",""
"","","","","","","","","","","","canvas-button-response","332","569661","0.0-332.0","924","bed","","","","","","","","","","","","","","perceptual","","","2","28","","","","","189","bridge","10","0","0",""
"","","","","","","","","","","","canvas-button-response","333","570276","0.0-333.0","613","0","","","","","","","","","","","","","","confidence","","","2","28","","","","","","","","","","10"
"","","","","","","","","","","","preload","334","570277","0.0-334.0","","","","","true","","","","","","","","","","","preload","","","2","29","false","[]","[]","[]","","","","","",""
"","","","","","","","","","","","canvas-keyboard-response","335","570579","0.0-335.0","null","null","","","","","","","","","","","","","","fixation","","","2","29","","","","","","","","","",""
"","","","","","","","","","","","canvas-keyboard-response","336","570881","0.0-336.0","null","null","","","","","","","","","","","","","","stimulus","","","2","29","","","","","","","","","",""
"","","","","","","","","","","","canvas-button-response","337","572395","0.0-337.0","1511","train","","","","","","","","","","","","","","perceptual","","","2","29","","","","","255","train","6","0","1",""
"","","","","","","","","","","","canvas-button-response","338","572895","0.0-338.0","497","8","","","","","","","","","","","","","","confidence","","","2","29","","","","","","","","","","11"
"","","","","","","","","","","","preload","339","572896","0.0-339.0","","","","","true","","","","","","","","","","","preload","","","2","30","false","[]","[]","[]","","","","","",""
"","","","","","","","","","","","canvas-keyboard-response","340","573199","0.0-340.0","null","null","","","","","","","","","","","","","","fixation","","","2","30","","","","","","","","","",""
"","","","","","","","","","","","canvas-keyboard-response","341","573502","0.0-341.0","null","null","","","","","","","","","","","","","","stimulus","","","2","30","","","","","","","","","",""
"","","","","","","","","","","","canvas-button-response","342","574511","0.0-342.0","1006","car","","","","","","","","","","","","","","perceptual","","","2","30","","","","","78","car","10","0","1",""
"","","","","","","","","","","","canvas-button-response","343","575478","0.0-343.0","964","9","","","","","","","","","","","","","","confidence","","","2","30","","","","","","","","","","12"
"","","","","","","","","","","","preload","344","575480","0.0-344.0","","","","","true","","","","","","","","","","","preload","","","2","31","false","[]","[]","[]","","","","","",""
"","","","","","","","","","","","canvas-keyboard-response","345","575781","0.0-345.0","null","null","","","","","","","","","","","","","","fixation","","","2","31","","","","","","","","","",""
"","","","","","","","","","","","canvas-keyboard-response","346","576084","0.0-346.0","null","null","","","","","","","","","","","","","","stimulus","","","2","31","","","","","","","","","",""
"","","","","","","","","","","","canvas-button-response","347","578342","0.0-347.0","2256","house","","","","","","","","","","","","","","perceptual","","","2","31","","","","","310","cat","10","0","0",""
"","","","","","","","","","","","canvas-button-response","348","579311","0.0-348.0","967","1","","","","","","","","","","","","","","confidence","","","2","31","","","","","","","","","","12"
"","","","","","","","","","","","preload","349","579313","0.0-349.0","","","","","true","","","","","","","","","","","preload","","","2","32","false","[]","[]","[]","","","","","",""
"","","","","","","","","","","","canvas-keyboard-response","350","579615","0.0-350.0","null","null","","","","","","","","","","","","","","fixation","","","2","32","","","","","","","","","",""
"","","","","","","","","","","","canvas-keyboard-response","351","579923","0.0-351.0","null","null","","","","","","","","","","","","","","stimulus","","","2","32","","","","","","","","","",""
"","","","","","","","","","","","canvas-button-response","352","581227","0.0-352.0","1303","bridge","","","","","","","","","","","","","","perceptual","","","2","32","","","","","170","bridge","6","0","1",""
"","","","","","","","","","","","canvas-button-response","353","582044","0.0-353.0","814","5","","","","","","","","","","","","","","confidence","","","2","32","","","","","","","","","","13"
"","","","","","","","","","","","preload","354","582045","0.0-354.0","","","","","true","","","","","","","","","","","preload","","","2","33","false","[]","[]","[]","","","","","",""
"","","","","","","","","","","","canvas-keyboard-response","355","582348","0.0-355.0","null","null","","","","","","","","","","","","","","fixation","","","2","33","","","","","","","","","",""
"","","","","","","","","","","","canvas-keyboard-response","356","582652","0.0-356.0","null","null","","","","","","","","","","","","","","stimulus","","","2","33","","","","","","","","","",""
"","","","","","","","","","","","canvas-button-response","357","584345","0.0-357.0","1690","bed","","","","","","","","","","","","","","perceptual","","","2","33","","","","","124","bed","6","0","1",""
"","","","","","","","","","","","canvas-button-response","358","584979","0.0-358.0","632","7","","","","","","","","","","","","","","confidence","","","2","33","","","","","","","","","","14"
"","","","","","","","","","","","preload","359","584980","0.0-359.0","","","","","true","","","","","","","","","","","preload","","","2","34","false","[]","[]","[]","","","","","",""
"","","","","","","","","","","","canvas-keyboard-response","360","585284","0.0-360.0","null","null","","","","","","","","","","","","","","fixation","","","2","34","","","","","","","","","",""
"","","","","","","","","","","","canvas-keyboard-response","361","585587","0.0-361.0","null","null","","","","","","","","","","","","","","stimulus","","","2","34","","","","","","","","","",""
"","","","","","","","","","","","canvas-button-response","362","586628","0.0-362.0","1038","knife","","","","","","","","","","","","","","perceptual","","","2","34","","","","","379","knife","6","0","1",""
"","","","","","","","","","","","canvas-button-response","363","587294","0.0-363.0","663","8","","","","","","","","","","","","","","confidence","","","2","34","","","","","","","","","","15"
"","","","","","","","","","","","preload","364","587295","0.0-364.0","","","","","true","","","","","","","","","","","preload","","","2","35","false","[]","[]","[]","","","","","",""
"","","","","","","","","","","","canvas-keyboard-response","365","587598","0.0-365.0","null","null","","","","","","","","","","","","","","fixation","","","2","35","","","","","","","","","",""
"","","","","","","","","","","","canvas-keyboard-response","366","587901","0.0-366.0","null","null","","","","","","","","","","","","","","stimulus","","","2","35","","","","","","","","","",""
"","","","","","","","","","","","canvas-button-response","367","588844","0.0-367.0","941","car","","","","","","","","","","","","","","perceptual","","","2","35","","","","","346","elephant","10","0","0",""
"","","","","","","","","","","","canvas-button-response","368","589478","0.0-368.0","631","6","","","","","","","","","","","","","","confidence","","","2","35","","","","","","","","","","15"
"","","","","","","","","","","","preload","369","589480","0.0-369.0","","","","","true","","","","","","","","","","","preload","","","2","36","false","[]","[]","[]","","","","","",""
"","","","","","","","","","","","canvas-keyboard-response","370","589782","0.0-370.0","null","null","","","","","","","","","","","","","","fixation","","","2","36","","","","","","","","","",""
"","","","","","","","","","","","canvas-keyboard-response","371","590085","0.0-371.0","null","null","","","","","","","","","","","","","","stimulus","","","2","36","","","","","","","","","",""
"","","","","","","","","","","","canvas-button-response","372","590978","0.0-372.0","890","bed","","","","","","","","","","","","","","perceptual","","","2","36","","","","","373","knife","6","0","0",""
"","","","","","","","","","","","canvas-button-response","373","592011","0.0-373.0","1030","0","","","","","","","","","","","","","","confidence","","","2","36","","","","","","","","","","15"
"","","","","","","","","","","","preload","374","592012","0.0-374.0","","","","","true","","","","","","","","","","","preload","","","2","37","false","[]","[]","[]","","","","","",""
"","","","","","","","","","","","canvas-keyboard-response","375","592313","0.0-375.0","null","null","","","","","","","","","","","","","","fixation","","","2","37","","","","","","","","","",""
"","","","","","","","","","","","canvas-keyboard-response","376","592615","0.0-376.0","null","null","","","","","","","","","","","","","","stimulus","","","2","37","","","","","","","","","",""
"","","","","","","","","","","","canvas-button-response","377","593745","0.0-377.0","1128","house","","","","","","","","","","","","","","perceptual","","","2","37","","","","","11","house","6","0","1",""
"","","","","","","","","","","","canvas-button-response","378","594295","0.0-378.0","548","2","","","","","","","","","","","","","","confidence","","","2","37","","","","","","","","","","16"
"","","","","","","","","","","","preload","379","594296","0.0-379.0","","","","","true","","","","","","","","","","","preload","","","2","38","false","[]","[]","[]","","","","","",""
"","","","","","","","","","","","canvas-keyboard-response","380","594599","0.0-380.0","null","null","","","","","","","","","","","","","","fixation","","","2","38","","","","","","","","","",""
"","","","","","","","","","","","canvas-keyboard-response","381","594902","0.0-381.0","null","null","","","","","","","","","","","","","","stimulus","","","2","38","","","","","","","","","",""
"","","","","","","","","","","","canvas-button-response","382","595644","0.0-382.0","738","flower","","","","","","","","","","","","","","perceptual","","","2","38","","","","","334","elephant","6","0","0",""
"","","","","","","","","","","","canvas-button-response","383","596361","0.0-383.0","715","0","","","","","","","","","","","","","","confidence","","","2","38","","","","","","","","","","16"
"","","","","","","","","","","","preload","384","596362","0.0-384.0","","","","","true","","","","","","","","","","","preload","","","2","39","false","[]","[]","[]","","","","","",""
"","","","","","","","","","","","canvas-keyboard-response","385","596664","0.0-385.0","null","null","","","","","","","","","","","","","","fixation","","","2","39","","","","","","","","","",""
"","","","","","","","","","","","canvas-keyboard-response","386","596966","0.0-386.0","null","null","","","","","","","","","","","","","","stimulus","","","2","39","","","","","","","","","",""
"","","","","","","","","","","","canvas-button-response","387","597794","0.0-387.0","826","car","","","","","","","","","","","","","","perceptual","","","2","39","","","","","75","car","10","0","1",""
"","","","","","","","","","","","canvas-button-response","388","598377","0.0-388.0","580","8","","","","","","","","","","","","","","confidence","","","2","39","","","","","","","","","","17"
"","","","","","","","","","","","preload","389","598377","0.0-389.0","","","","","true","","","","","","","","","","","preload","","","2","40","false","[]","[]","[]","","","","","",""
"","","","","","","","","","","","canvas-keyboard-response","390","598680","0.0-390.0","null","null","","","","","","","","","","","","","","fixation","","","2","40","","","","","","","","","",""
"","","","","","","","","","","","canvas-keyboard-response","391","598983","0.0-391.0","null","null","","","","","","","","","","","","","","stimulus","","","2","40","","","","","","","","","",""
"","","","","","","","","","","","canvas-button-response","392","599861","0.0-392.0","875","bridge","","","","","","","","","","","","","","perceptual","","","2","40","","","","","180","bridge","10","0","1",""
"","","","","","","","","","","","canvas-button-response","393","600829","0.0-393.0","965","8","","","","","","","","","","","","","","confidence","","","2","40","","","","","","","","","","18"
"","","","","","","","","","","","preload","394","600830","0.0-394.0","","","","","true","","","","","","","","","","","preload","","","2","41","false","[]","[]","[]","","","","","",""
"","","","","","","","","","","","canvas-keyboard-response","395","601133","0.0-395.0","null","null","","","","","","","","","","","","","","fixation","","","2","41","","","","","","","","","",""
"","","","","","","","","","","","canvas-keyboard-response","396","601435","0.0-396.0","null","null","","","","","","","","","","","","","","stimulus","","","2","41","","","","","","","","","",""
"","","","","","","","","","","","canvas-button-response","397","602661","0.0-397.0","1223","bed","","","","","","","","","","","","","","perceptual","","","2","41","","","","","135","bed","6","0","1",""
"","","","","","","","","","","","canvas-button-response","398","603245","0.0-398.0","582","5","","","","","","","","","","","","","","confidence","","","2","41","","","","","","","","","","19"
"","","","","","","","","","","","preload","399","603246","0.0-399.0","","","","","true","","","","","","","","","","","preload","","","2","42","false","[]","[]","[]","","","","","",""
"","","","","","","","","","","","canvas-keyboard-response","400","603549","0.0-400.0","null","null","","","","","","","","","","","","","","fixation","","","2","42","","","","","","","","","",""
"","","","","","","","","","","","canvas-keyboard-response","401","603853","0.0-401.0","null","null","","","","","","","","","","","","","","stimulus","","","2","42","","","","","","","","","",""
"","","","","","","","","","","","canvas-button-response","402","604611","0.0-402.0","756","bed","","","","","","","","","","","","","","perceptual","","","2","42","","","","","137","bed","6","0","1",""
"","","","","","","","","","","","canvas-button-response","403","605078","0.0-403.0","464","5","","","","","","","","","","","","","","confidence","","","2","42","","","","","","","","","","20"
"","","","","","","","","","","","preload","404","605079","0.0-404.0","","","","","true","","","","","","","","","","","preload","","","2","43","false","[]","[]","[]","","","","","",""
"","","","","","","","","","","","canvas-keyboard-response","405","605383","0.0-405.0","null","null","","","","","","","","","","","","","","fixation","","","2","43","","","","","","","","","",""
"","","","","","","","","","","","canvas-keyboard-response","406","605686","0.0-406.0","null","null","","","","","","","","","","","","","","stimulus","","","2","43","","","","","","","","","",""
"","","","","","","","","","","","canvas-button-response","407","606761","0.0-407.0","1072","flower","","","","","","","","","","","","","","perceptual","","","2","43","","","","","227","flower","10","0","1",""
"","","","","","","","","","","","canvas-button-response","408","607211","0.0-408.0","447","6","","","","","","","","","","","","","","confidence","","","2","43","","","","","","","","","","21"
"","","","","","","","","","","","preload","409","607212","0.0-409.0","","","","","true","","","","","","","","","","","preload","","","2","44","false","[]","[]","[]","","","","","",""
"","","","","","","","","","","","canvas-keyboard-response","410","607515","0.0-410.0","null","null","","","","","","","","","","","","","","fixation","","","2","44","","","","","","","","","",""
"","","","","","","","","","","","canvas-keyboard-response","411","607818","0.0-411.0","null","null","","","","","","","","","","","","","","stimulus","","","2","44","","","","","","","","","",""
"","","","","","","","","","","","canvas-button-response","412","608511","0.0-412.0","690","flower","","","","","","","","","","","","","","perceptual","","","2","44","","","","","221","flower","10","0","1",""
"","","","","","","","","","","","canvas-button-response","413","609345","0.0-413.0","831","6","","","","","","","","","","","","","","confidence","","","2","44","","","","","","","","","","22"
"","","","","","","","","","","","preload","414","609346","0.0-414.0","","","","","true","","","","","","","","","","","preload","","","2","45","false","[]","[]","[]","","","","","",""
"","","","","","","","","","","","canvas-keyboard-response","415","609649","0.0-415.0","null","null","","","","","","","","","","","","","","fixation","","","2","45","","","","","","","","","",""
"","","","","","","","","","","","canvas-keyboard-response","416","609952","0.0-416.0","null","null","","","","","","","","","","","","","","stimulus","","","2","45","","","","","","","","","",""
"","","","","","","","","","","","canvas-button-response","417","610744","0.0-417.0","789","car","","","","","","","","","","","","","","perceptual","","","2","45","","","","","44","car","6","0","1",""
"","","","","","","","","","","","canvas-button-response","418","611329","0.0-418.0","582","7","","","","","","","","","","","","","","confidence","","","2","45","","","","","","","","","","23"
"","","","","","","","","","","","preload","419","611330","0.0-419.0","","","","","true","","","","","","","","","","","preload","","","2","46","false","[]","[]","[]","","","","","",""
"","","","","","","","","","","","canvas-keyboard-response","420","611632","0.0-420.0","null","null","","","","","","","","","","","","","","fixation","","","2","46","","","","","","","","","",""
"","","","","","","","","","","","canvas-keyboard-response","421","611936","0.0-421.0","null","null","","","","","","","","","","","","","","stimulus","","","2","46","","","","","","","","","",""
"","","","","","","","","","","","canvas-button-response","422","614546","0.0-422.0","2607","house","","","","","","","","","","","","","","perceptual","","","2","46","","","","","15","house","6","0","1",""
"","","","","","","","","","","","canvas-button-response","423","615361","0.0-423.0","812","8","","","","","","","","","","","","","","confidence","","","2","46","","","","","","","","","","24"
"","","","","","","","","","","","preload","424","615362","0.0-424.0","","","","","true","","","","","","","","","","","preload","","","2","47","false","[]","[]","[]","","","","","",""
"","","","","","","","","","","","canvas-keyboard-response","425","615665","0.0-425.0","null","null","","","","","","","","","","","","","","fixation","","","2","47","","","","","","","","","",""
"","","","","","","","","","","","canvas-keyboard-response","426","615968","0.0-426.0","null","null","","","","","","","","","","","","","","stimulus","","","2","47","","","","","","","","","",""
"","","","","","","","","","","","canvas-button-response","427","617012","0.0-427.0","1042","house","","","","","","","","","","","","","","perceptual","","","2","47","","","","","249","train","6","0","0",""
"","","","","","","","","","","","canvas-button-response","428","617479","0.0-428.0","464","7","","","","","","","","","","","","","","confidence","","","2","47","","","","","","","","","","24"
"","","","","","","","","","","","preload","429","617480","0.0-429.0","","","","","true","","","","","","","","","","","preload","","","2","48","false","[]","[]","[]","","","","","",""
"","","","","","","","","","","","canvas-keyboard-response","430","617782","0.0-430.0","null","null","","","","","","","","","","","","","","fixation","","","2","48","","","","","","","","","",""
"","","","","","","","","","","","canvas-keyboard-response","431","618085","0.0-431.0","null","null","","","","","","","","","","","","","","stimulus","","","2","48","","","","","","","","","",""
"","","","","","","","","","","","canvas-button-response","432","618745","0.0-432.0","658","car","","","","","","","","","","","","","","perceptual","","","2","48","","","","","53","car","6","0","1",""
"","","","","","","","","","","","canvas-button-response","433","619445","0.0-433.0","697","7","","","","","","","","","","","","","","confidence","","","2","48","","","","","","","","","","25"
"","","","","","","","","","","","preload","434","619446","0.0-434.0","","","","","true","","","","","","","","","","","preload","","","2","49","false","[]","[]","[]","","","","","",""
"","","","","","","","","","","","canvas-keyboard-response","435","619748","0.0-435.0","null","null","","","","","","","","","","","","","","fixation","","","2","49","","","","","","","","","",""
"","","","","","","","","","","","canvas-keyboard-response","436","620052","0.0-436.0","null","null","","","","","","","","","","","","","","stimulus","","","2","49","","","","","","","","","",""
"","","","","","","","","","","","canvas-button-response","437","622912","0.0-437.0","2857","bed","","","","","","","","","","","","","","perceptual","","","2","49","","","","","136","bed","6","0","1",""
"","","","","","","","","","","","canvas-button-response","438","624095","0.0-438.0","1181","7","","","","","","","","","","","","","","confidence","","","2","49","","","","","","","","","","26"
"","","","","","","","","","","","html-button-response","439","632394","0.0-439.0","8297","0","","","","","","","","","","","","","","<p style=""font-size:20px;color:#000000"">You got 26 out of 50 trials correct in this block.<br><br>You have completed 6% of the experiment.<br><br>Take a short break.<br><br>When you are ready, click Continue to proceed.","","","2","49","","","","","","","","","",""
"","","","","","","","","","","","html-keyboard-response","440","633398","0.0-440.0","null","null","","","","","","","","","","","","","","<p style=""font-size:32px;color:#000000""><br><br> RUN: &nbsp 1/4 <br><br> BLOCK: 2/4 ","","","2","49","","","","","","","","","",""
"","","","","","","","","","","","preload","441","633399","0.0-441.0","","","","","true","","","","","","","","","","","preload","","","2","50","false","[]","[]","[]","","","","","",""
"","","","","","","","","","","","canvas-keyboard-response","442","633702","0.0-442.0","null","null","","","","","","","","","","","","","","fixation","","","2","50","","","","","","","","","",""
"","","","","","","","","","","","canvas-keyboard-response","443","634005","0.0-443.0","null","null","","","","","","","","","","","","","","stimulus","","","2","50","","","","","","","","","",""
"","","","","","","","","","","","canvas-button-response","444","651395","0.0-444.0","17387","bridge","","","","","","","","","","","","","","perceptual","","","2","50","","","","","378","knife","6","0","0",""
"","","","","","","","","","","","canvas-button-response","445","652079","0.0-445.0","682","0","","","","","","","","","","","","","","confidence","","","2","50","","","","","","","","","","0"
"","","","","","","","","","","","preload","446","652080","0.0-446.0","","","","","true","","","","","","","","","","","preload","","","2","51","false","[]","[]","[]","","","","","",""
"","","","","","","","","","","","canvas-keyboard-response","447","652382","0.0-447.0","null","null","","","","","","","","","","","","","","fixation","","","2","51","","","","","","","","","",""
"","","","","","","","","","","","canvas-keyboard-response","448","652684","0.0-448.0","null","null","","","","","","","","","","","","","","stimulus","","","2","51","","","","","","","","","",""
"","","","","","","","","","","","canvas-button-response","449","653979","0.0-449.0","1293","knife","","","","","","","","","","","","","","perceptual","","","2","51","","","","","107","phone","10","0","0",""
"","","","","","","","","","","","canvas-button-response","450","654661","0.0-450.0","680","0","","","","","","","","","","","","","","confidence","","","2","51","","","","","","","","","","0"
"","","","","","","","","","","","preload","451","654663","0.0-451.0","","","","","true","","","","","","","","","","","preload","","","2","52","false","[]","[]","[]","","","","","",""
"","","","","","","","","","","","canvas-keyboard-response","452","654964","0.0-452.0","null","null","","","","","","","","","","","","","","fixation","","","2","52","","","","","","","","","",""
"","","","","","","","","","","","canvas-keyboard-response","453","655266","0.0-453.0","null","null","","","","","","","","","","","","","","stimulus","","","2","52","","","","","","","","","",""
"","","","","","","","","","","","canvas-button-response","454","656128","0.0-454.0","859","bridge","","","","","","","","","","","","","","perceptual","","","2","52","","","","","166","bridge","6","0","1",""
"","","","","","","","","","","","canvas-button-response","455","657062","0.0-455.0","931","7","","","","","","","","","","","","","","confidence","","","2","52","","","","","","","","","","1"
"","","","","","","","","","","","preload","456","657063","0.0-456.0","","","","","true","","","","","","","","","","","preload","","","2","53","false","[]","[]","[]","","","","","",""
"","","","","","","","","","","","canvas-keyboard-response","457","657365","0.0-457.0","null","null","","","","","","","","","","","","","","fixation","","","2","53","","","","","","","","","",""
"","","","","","","","","","","","canvas-keyboard-response","458","657668","0.0-458.0","null","null","","","","","","","","","","","","","","stimulus","","","2","53","","","","","","","","","",""
"","","","","","","","","","","","canvas-button-response","459","659545","0.0-459.0","1874","house","","","","","","","","","","","","","","perceptual","","","2","53","","","","","2","house","6","0","1",""
"","","","","","","","","","","","canvas-button-response","460","660578","0.0-460.0","1031","6","","","","","","","","","","","","","","confidence","","","2","53","","","","","","","","","","2"
"","","","","","","","","","","","preload","461","660579","0.0-461.0","","","","","true","","","","","","","","","","","preload","","","2","54","false","[]","[]","[]","","","","","",""
"","","","","","","","","","","","canvas-keyboard-response","462","660882","0.0-462.0","null","null","","","","","","","","","","","","","","fixation","","","2","54","","","","","","","","","",""
"","","","","","","","","","","","canvas-keyboard-response","463","661186","0.0-463.0","null","null","","","","","","","","","","","","","","stimulus","","","2","54","","","","","","","","","",""
"","","","","","","","","","","","canvas-button-response","464","661895","0.0-464.0","706","bridge","","","","","","","","","","","","","","perceptual","","","2","54","","","","","162","bridge","6","0","1",""
"","","","","","","","","","","","canvas-button-response","465","662378","0.0-465.0","480","6","","","","","","","","","","","","","","confidence","","","2","54","","","","","","","","","","3"
"","","","","","","","","","","","preload","466","662379","0.0-466.0","","","","","true","","","","","","","","","","","preload","","","2","55","false","[]","[]","[]","","","","","",""
"","","","","","","","","","","","canvas-keyboard-response","467","662682","0.0-467.0","null","null","","","","","","","","","","","","","","fixation","","","2","55","","","","","","","","","",""
"","","","","","","","","","","","canvas-keyboard-response","468","662986","0.0-468.0","null","null","","","","","","","","","","","","","","stimulus","","","2","55","","","","","","","","","",""
"","","","","","","","","","","","canvas-button-response","469","664462","0.0-469.0","1473","house","","","","","","","","","","","","","","perceptual","","","2","55","","","","","4","house","6","0","1",""
"","","","","","","","","","","","canvas-button-response","470","665029","0.0-470.0","564","6","","","","","","","","","","","","","","confidence","","","2","55","","","","","","","","","","4"
"","","","","","","","","","","","preload","471","665030","0.0-471.0","","","","","true","","","","","","","","","","","preload","","","2","56","false","[]","[]","[]","","","","","",""
"","","","","","","","","","","","canvas-keyboard-response","472","665332","0.0-472.0","null","null","","","","","","","","","","","","","","fixation","","","2","56","","","","","","","","","",""
"","","","","","","","","","","","canvas-keyboard-response","473","665636","0.0-473.0","null","null","","","","","","","","","","","","","","stimulus","","","2","56","","","","","","","","","",""
"","","","","","","","","","","","canvas-button-response","474","667280","0.0-474.0","1641","cat","","","","","","","","","","","","","","perceptual","","","2","56","","","","","283","cat","6","0","1",""
"","","","","","","","","","","","canvas-button-response","475","668196","0.0-475.0","913","8","","","","","","","","","","","","","","confidence","","","2","56","","","","","","","","","","5"
"","","","","","","","","","","","preload","476","668197","0.0-476.0","","","","","true","","","","","","","","","","","preload","","","2","57","false","[]","[]","[]","","","","","",""
"","","","","","","","","","","","canvas-keyboard-response","477","668499","0.0-477.0","null","null","","","","","","","","","","","","","","fixation","","","2","57","","","","","","","","","",""
"","","","","","","","","","","","canvas-keyboard-response","478","668803","0.0-478.0","null","null","","","","","","","","","","","","","","stimulus","","","2","57","","","","","","","","","",""
"","","","","","","","","","","","canvas-button-response","479","670995","0.0-479.0","2190","train","","","","","","","","","","","","","","perceptual","","","2","57","","","","","250","train","6","0","1",""
"","","","","","","","","","","","canvas-button-response","480","671712","0.0-480.0","714","6","","","","","","","","","","","","","","confidence","","","2","57","","","","","","","","","","6"
"","","","","","","","","","","","preload","481","671713","0.0-481.0","","","","","true","","","","","","","","","","","preload","","","2","58","false","[]","[]","[]","","","","","",""
"","","","","","","","","","","","canvas-keyboard-response","482","672016","0.0-482.0","null","null","","","","","","","","","","","","","","fixation","","","2","58","","","","","","","","","",""
"","","","","","","","","","","","canvas-keyboard-response","483","672320","0.0-483.0","null","null","","","","","","","","","","","","","","stimulus","","","2","58","","","","","","","","","",""
"","","","","","","","","","","","canvas-button-response","484","673062","0.0-484.0","740","bridge","","","","","","","","","","","","","","perceptual","","","2","58","","","","","145","bed","10","0","0",""
"","","","","","","","","","","","canvas-button-response","485","673845","0.0-485.0","780","0","","","","","","","","","","","","","","confidence","","","2","58","","","","","","","","","","6"
"","","","","","","","","","","","preload","486","673846","0.0-486.0","","","","","true","","","","","","","","","","","preload","","","2","59","false","[]","[]","[]","","","","","",""
"","","","","","","","","","","","canvas-keyboard-response","487","674148","0.0-487.0","null","null","","","","","","","","","","","","","","fixation","","","2","59","","","","","","","","","",""
"","","","","","","","","","","","canvas-keyboard-response","488","674451","0.0-488.0","null","null","","","","","","","","","","","","","","stimulus","","","2","59","","","","","","","","","",""
"","","","","","","","","","","","canvas-button-response","489","675795","0.0-489.0","1342","phone","","","","","","","","","","","","","","perceptual","","","2","59","","","","","89","phone","6","0","1",""
"","","","","","","","","","","","canvas-button-response","490","676229","0.0-490.0","432","7","","","","","","","","","","","","","","confidence","","","2","59","","","","","","","","","","7"
"","","","","","","","","","","","preload","491","676231","0.0-491.0","","","","","true","","","","","","","","","","","preload","","","2","60","false","[]","[]","[]","","","","","",""
"","","","","","","","","","","","canvas-keyboard-response","492","676533","0.0-492.0","null","null","","","","","","","","","","","","","","fixation","","","2","60","","","","","","","","","",""
