"width","height","webaudio","browser","browser_version","mobile","os","fullscreen","vsync_rate","webcam","microphone","trial_type","trial_index","time_elapsed","internal_node_id","rt","response","accuracy","view_history","success","item_width_mm","item_height_mm","item_width_px","px2mm","view_dist_mm","item_width_deg","px2deg","scale_factor","win_width_deg","win_height_deg","stimulus","datetime","subjectID","curr_triallist","trial_no","timeout","failed_images","failed_audio","failed_video","image_index","category","blur","reps","correct","running_score"
"1470","797","true","chrome","140.0.0","false","Mac OS","true","60","true","true","browser-check","0","1007","0.0-0.0","","","","","","","","","","","","","","","","","","","","","","","","","","","","","",""
"","","","","","","","","","","","survey","1","94062","0.0-1.0","93022","{""P0_Q0"":""903938725"",""P0_Q1"":""20"",""P1_Q0"":""Female"",""P1_Q1"":""Hispanic or Latino"",""P1_Q2"":""White"",""P1_Q3"":""Normal"",""P1_Q4"":""Right-Handed""}","[]","","","","","","","","","","","","","","","","","","","","","","","","","","",""
"","","","","","","","","","","","instructions","2","143150","0.0-2.0","49087","","","[{""page_index"":0,""viewing_time"":6421},{""page_index"":1,""viewing_time"":12967},{""page_index"":2,""viewing_time"":14466},{""page_index"":3,""viewing_time"":15234}]","","","","","","","","","","","","","","","","","","","","","","","","","",""
"","","","","","","","","","","","fullscreen","3","147902","0.0-3.0","3749","","","","true","","","","","","","","","","","","","","","","","","","","","","","","",""
"","","","","","","","","","","","virtual-chinrest","4","288422","0.0-4.0","140519","","","","","85.6","53.98","251.07928446635069","2.931204669816466","584.97","8.369309482211689","30","1.712606441881222","49","30.633333333333333","","","","","","","","","","","","","","",""
"","","","","","","","","","","","instructions","5","419265","0.0-5.0","130842","","","[{""page_index"":0,""viewing_time"":18275},{""page_index"":1,""viewing_time"":19884},{""page_index"":2,""viewing_time"":8267},{""page_index"":3,""viewing_time"":8333},{""page_index"":4,""viewing_time"":23117},{""page_index"":5,""viewing_time"":48134},{""page_index"":6,""viewing_time"":4833}]","","","","","","","","","","","","","","","","","","","","","","","","","",""
"","","","","","","","","","","","html-button-response","6","426649","0.0-6.0","7381","0","","","","","","","","","","","","","","start_practice","Fri Oct 10 2025 17:41:58 GMT-0400 (Eastern Daylight Time)","23024","","","","","","","","","","","",""
"","","","","","","","","","","","preload","7","426650","0.0-7.0","","","","","true","","","","","","","","","","","preload","","","0","0","false","[]","[]","[]","","","","","",""
"","","","","","","","","","","","canvas-keyboard-response","8","426954","0.0-8.0","null","null","","","","","","","","","","","","","","fixation","","","0","0","","","","","","","","","",""
"","","","","","","","","","","","canvas-keyboard-response","9","427257","0.0-9.0","null","null","","","","","","","","","","","","","","stimulus","","","0","0","","","","","","","","","",""
"","","","","","","","","","","","canvas-button-response","10","429149","0.0-10.0","1887","car","","","","","","","","","","","","","","perceptual","","","0","0","","","","","12","car","1","","1",""
"","","","","","","","","","","","canvas-button-response","11","432465","0.0-11.0","3314","10","","","","","","","","","","","","","","confidence","","","0","0","","","","","","","","","","1"
"","","","","","","","","","","","html-keyboard-response","12","433468","0.0-12.0","null","null","","","","","","","","","","","","","","feedback","Fri Oct 10 2025 17:42:12 GMT-0400 (Eastern Daylight Time)","23024","0","0","","","","","","","","","",""
"","","","","","","","","","","","preload","13","433469","0.0-13.0","","","","","true","","","","","","","","","","","preload","","","0","1","false","[]","[]","[]","","","","","",""
"","","","","","","","","","","","canvas-keyboard-response","14","433772","0.0-14.0","null","null","","","","","","","","","","","","","","fixation","","","0","1","","","","","","","","","",""
"","","","","","","","","","","","canvas-keyboard-response","15","434074","0.0-15.0","null","null","","","","","","","","","","","","","","stimulus","","","0","1","","","","","","","","","",""
"","","","","","","","","","","","canvas-button-response","16","437549","0.0-16.0","3472","phone","","","","","","","","","","","","","","perceptual","","","0","1","","","","","22","phone","1","","1",""
"","","","","","","","","","","","canvas-button-response","17","438932","0.0-17.0","1381","10","","","","","","","","","","","","","","confidence","","","0","1","","","","","","","","","","2"
"","","","","","","","","","","","html-keyboard-response","18","439934","0.0-18.0","null","null","","","","","","","","","","","","","","feedback","Fri Oct 10 2025 17:42:18 GMT-0400 (Eastern Daylight Time)","23024","0","1","","","","","","","","","",""
"","","","","","","","","","","","preload","19","439935","0.0-19.0","","","","","true","","","","","","","","","","","preload","","","0","2","false","[]","[]","[]","","","","","",""
"","","","","","","","","","","","canvas-keyboard-response","20","440238","0.0-20.0","null","null","","","","","","","","","","","","","","fixation","","","0","2","","","","","","","","","",""
"","","","","","","","","","","","canvas-keyboard-response","21","440541","0.0-21.0","null","null","","","","","","","","","","","","","","stimulus","","","0","2","","","","","","","","","",""
"","","","","","","","","","","","canvas-button-response","22","442065","0.0-22.0","1523","house","","","","","","","","","","","","","","perceptual","","","0","2","","","","","2","house","1","","1",""
"","","","","","","","","","","","canvas-button-response","23","443265","0.0-23.0","1197","10","","","","","","","","","","","","","","confidence","","","0","2","","","","","","","","","","3"
"","","","","","","","","","","","html-keyboard-response","24","444267","0.0-24.0","null","null","","","","","","","","","","","","","","feedback","Fri Oct 10 2025 17:42:22 GMT-0400 (Eastern Daylight Time)","23024","0","2","","","","","","","","","",""
"","","","","","","","","","","","preload","25","444268","0.0-25.0","","","","","true","","","","","","","","","","","preload","","","0","3","false","[]","[]","[]","","","","","",""
"","","","","","","","","","","","canvas-keyboard-response","26","444571","0.0-26.0","null","null","","","","","","","","","","","","","","fixation","","","0","3","","","","","","","","","",""
"","","","","","","","","","","","canvas-keyboard-response","27","444873","0.0-27.0","null","null","","","","","","","","","","","","","","stimulus","","","0","3","","","","","","","","","",""
"","","","","","","","","","","","canvas-button-response","28","446915","0.0-28.0","2040","bridge","","","","","","","","","","","","","","perceptual","","","0","3","","","","","42","bridge","1","","1",""
"","","","","","","","","","","","canvas-button-response","29","448149","0.0-29.0","1231","10","","","","","","","","","","","","","","confidence","","","0","3","","","","","","","","","","4"
"","","","","","","","","","","","html-keyboard-response","30","449152","0.0-30.0","null","null","","","","","","","","","","","","","","feedback","Fri Oct 10 2025 17:42:27 GMT-0400 (Eastern Daylight Time)","23024","0","3","","","","","","","","","",""
"","","","","","","","","","","","preload","31","449153","0.0-31.0","","","","","true","","","","","","","","","","","preload","","","0","4","false","[]","[]","[]","","","","","",""
"","","","","","","","","","","","canvas-keyboard-response","32","449455","0.0-32.0","null","null","","","","","","","","","","","","","","fixation","","","0","4","","","","","","","","","",""
"","","","","","","","","","","","canvas-keyboard-response","33","449758","0.0-33.0","null","null","","","","","","","","","","","","","","stimulus","","","0","4","","","","","","","","","",""
"","","","","","","","","","","","canvas-button-response","34","452865","0.0-34.0","3105","knife","","","","","","","","","","","","","","perceptual","","","0","4","","","","","92","knife","1","","1",""
"","","","","","","","","","","","canvas-button-response","35","454748","0.0-35.0","1881","10","","","","","","","","","","","","","","confidence","","","0","4","","","","","","","","","","5"
"","","","","","","","","","","","html-keyboard-response","36","455750","0.0-36.0","null","null","","","","","","","","","","","","","","feedback","Fri Oct 10 2025 17:42:34 GMT-0400 (Eastern Daylight Time)","23024","0","4","","","","","","","","","",""
"","","","","","","","","","","","preload","37","455751","0.0-37.0","","","","","true","","","","","","","","","","","preload","","","0","5","false","[]","[]","[]","","","","","",""
"","","","","","","","","","","","canvas-keyboard-response","38","456054","0.0-38.0","null","null","","","","","","","","","","","","","","fixation","","","0","5","","","","","","","","","",""
"","","","","","","","","","","","canvas-keyboard-response","39","456356","0.0-39.0","null","null","","","","","","","","","","","","","","stimulus","","","0","5","","","","","","","","","",""
"","","","","","","","","","","","canvas-button-response","40","459097","0.0-40.0","2740","bed","","","","","","","","","","","","","","perceptual","","","0","5","","","","","32","bed","1","","1",""
"","","","","","","","","","","","canvas-button-response","41","460115","0.0-41.0","1016","10","","","","","","","","","","","","","","confidence","","","0","5","","","","","","","","","","6"
"","","","","","","","","","","","html-keyboard-response","42","461119","0.0-42.0","null","null","","","","","","","","","","","","","","feedback","Fri Oct 10 2025 17:42:39 GMT-0400 (Eastern Daylight Time)","23024","0","5","","","","","","","","","",""
"","","","","","","","","","","","preload","43","461120","0.0-43.0","","","","","true","","","","","","","","","","","preload","","","0","6","false","[]","[]","[]","","","","","",""
"","","","","","","","","","","","canvas-keyboard-response","44","461422","0.0-44.0","null","null","","","","","","","","","","","","","","fixation","","","0","6","","","","","","","","","",""
"","","","","","","","","","","","canvas-keyboard-response","45","461724","0.0-45.0","null","null","","","","","","","","","","","","","","stimulus","","","0","6","","","","","","","","","",""
"","","","","","","","","","","","canvas-button-response","46","490463","0.0-46.0","28738","cat","","","","","","","","","","","","","","perceptual","","","0","6","","","","","82","elephant","1","","0",""
"","","","","","","","","","","","canvas-button-response","47","491698","0.0-47.0","1233","1","","","","","","","","","","","","","","confidence","","","0","6","","","","","","","","","","6"
"","","","","","","","","","","","html-keyboard-response","48","492701","0.0-48.0","null","null","","","","","","","","","","","","","","feedback","Fri Oct 10 2025 17:43:11 GMT-0400 (Eastern Daylight Time)","23024","0","6","","","","","","","","","",""
"","","","","","","","","","","","preload","49","492702","0.0-49.0","","","","","true","","","","","","","","","","","preload","","","0","7","false","[]","[]","[]","","","","","",""
"","","","","","","","","","","","canvas-keyboard-response","50","493005","0.0-50.0","null","null","","","","","","","","","","","","","","fixation","","","0","7","","","","","","","","","",""
"","","","","","","","","","","","canvas-keyboard-response","51","493307","0.0-51.0","null","null","","","","","","","","","","","","","","stimulus","","","0","7","","","","","","","","","",""
"","","","","","","","","","","","canvas-button-response","52","498715","0.0-52.0","5405","house","","","","","","","","","","","","","","perceptual","","","0","7","","","","","52","flower","1","","0",""
"","","","","","","","","","","","canvas-button-response","53","502080","0.0-53.0","3364","4","","","","","","","","","","","","","","confidence","","","0","7","","","","","","","","","","6"
"","","","","","","","","","","","html-keyboard-response","54","503084","0.0-54.0","null","null","","","","","","","","","","","","","","feedback","Fri Oct 10 2025 17:43:21 GMT-0400 (Eastern Daylight Time)","23024","0","7","","","","","","","","","",""
"","","","","","","","","","","","preload","55","503085","0.0-55.0","","","","","true","","","","","","","","","","","preload","","","0","8","false","[]","[]","[]","","","","","",""
"","","","","","","","","","","","canvas-keyboard-response","56","503387","0.0-56.0","null","null","","","","","","","","","","","","","","fixation","","","0","8","","","","","","","","","",""
"","","","","","","","","","","","canvas-keyboard-response","57","503690","0.0-57.0","null","null","","","","","","","","","","","","","","stimulus","","","0","8","","","","","","","","","",""
"","","","","","","","","","","","canvas-button-response","58","505014","0.0-58.0","1322","cat","","","","","","","","","","","","","","perceptual","","","0","8","","","","","72","cat","1","","1",""
"","","","","","","","","","","","canvas-button-response","59","506397","0.0-59.0","1381","10","","","","","","","","","","","","","","confidence","","","0","8","","","","","","","","","","7"
"","","","","","","","","","","","html-keyboard-response","60","507400","0.0-60.0","null","null","","","","","","","","","","","","","","feedback","Fri Oct 10 2025 17:43:26 GMT-0400 (Eastern Daylight Time)","23024","0","8","","","","","","","","","",""
"","","","","","","","","","","","preload","61","507401","0.0-61.0","","","","","true","","","","","","","","","","","preload","","","0","9","false","[]","[]","[]","","","","","",""
"","","","","","","","","","","","canvas-keyboard-response","62","507704","0.0-62.0","null","null","","","","","","","","","","","","","","fixation","","","0","9","","","","","","","","","",""
"","","","","","","","","","","","canvas-keyboard-response","63","508006","0.0-63.0","null","null","","","","","","","","","","","","","","stimulus","","","0","9","","","","","","","","","",""
"","","","","","","","","","","","canvas-button-response","64","510615","0.0-64.0","2606","train","","","","","","","","","","","","","","perceptual","","","0","9","","","","","62","train","1","","1",""
"","","","","","","","","","","","canvas-button-response","65","511815","0.0-65.0","1198","10","","","","","","","","","","","","","","confidence","","","0","9","","","","","","","","","","8"
"","","","","","","","","","","","html-keyboard-response","66","512817","0.0-66.0","null","null","","","","","","","","","","","","","","feedback","Fri Oct 10 2025 17:43:31 GMT-0400 (Eastern Daylight Time)","23024","0","9","","","","","","","","","",""
"","","","","","","","","","","","html-button-response","67","524914","0.0-67.0","12095","0","","","","","","","","","","","","","","start_practice","Fri Oct 10 2025 17:43:32 GMT-0400 (Eastern Daylight Time)","23024","0","9","","","","","","","","","",""
"","","","","","","","","","","","preload","68","524915","0.0-68.0","","","","","true","","","","","","","","","","","preload","","","1","0","false","[]","[]","[]","","","","","",""
"","","","","","","","","","","","canvas-keyboard-response","69","525217","0.0-69.0","null","null","","","","","","","","","","","","","","fixation","","","1","0","","","","","","","","","",""
"","","","","","","","","","","","canvas-keyboard-response","70","525519","0.0-70.0","null","null","","","","","","","","","","","","","","stimulus","","","1","0","","","","","","","","","",""
"","","","","","","","","","","","canvas-button-response","71","530347","0.0-71.0","4826","train","","","","","","","","","","","","","","perceptual","","","1","0","","","","","67","train","10","","1",""
"","","","","","","","","","","","canvas-button-response","72","532381","0.0-72.0","2032","5","","","","","","","","","","","","","","confidence","","","1","0","","","","","","","","","","1"
"","","","","","","","","","","","html-keyboard-response","73","533385","0.0-73.0","null","null","","","","","","","","","","","","","","feedback","Fri Oct 10 2025 17:43:52 GMT-0400 (Eastern Daylight Time)","23024","1","0","","","","","","","","","",""
"","","","","","","","","","","","preload","74","533385","0.0-74.0","","","","","true","","","","","","","","","","","preload","","","1","1","false","[]","[]","[]","","","","","",""
"","","","","","","","","","","","canvas-keyboard-response","75","533688","0.0-75.0","null","null","","","","","","","","","","","","","","fixation","","","1","1","","","","","","","","","",""
"","","","","","","","","","","","canvas-keyboard-response","76","533991","0.0-76.0","null","null","","","","","","","","","","","","","","stimulus","","","1","1","","","","","","","","","",""
"","","","","","","","","","","","canvas-button-response","77","540081","0.0-77.0","6088","house","","","","","","","","","","","","","","perceptual","","","1","1","","","","","37","bed","10","","0",""
"","","","","","","","","","","","canvas-button-response","78","541464","0.0-78.0","1381","1","","","","","","","","","","","","","","confidence","","","1","1","","","","","","","","","","1"
"","","","","","","","","","","","html-keyboard-response","79","542468","0.0-79.0","null","null","","","","","","","","","","","","","","feedback","Fri Oct 10 2025 17:44:01 GMT-0400 (Eastern Daylight Time)","23024","1","1","","","","","","","","","",""
"","","","","","","","","","","","preload","80","542469","0.0-80.0","","","","","true","","","","","","","","","","","preload","","","1","2","false","[]","[]","[]","","","","","",""
"","","","","","","","","","","","canvas-keyboard-response","81","542771","0.0-81.0","null","null","","","","","","","","","","","","","","fixation","","","1","2","","","","","","","","","",""
"","","","","","","","","","","","canvas-keyboard-response","82","543073","0.0-82.0","null","null","","","","","","","","","","","","","","stimulus","","","1","2","","","","","","","","","",""
"","","","","","","","","","","","canvas-button-response","83","546947","0.0-83.0","3872","train","","","","","","","","","","","","","","perceptual","","","1","2","","","","","47","bridge","10","","0",""
"","","","","","","","","","","","canvas-button-response","84","550597","0.0-84.0","3648","1","","","","","","","","","","","","","","confidence","","","1","2","","","","","","","","","","1"
"","","","","","","","","","","","html-keyboard-response","85","551600","0.0-85.0","null","null","","","","","","","","","","","","","","feedback","Fri Oct 10 2025 17:44:10 GMT-0400 (Eastern Daylight Time)","23024","1","2","","","","","","","","","",""
"","","","","","","","","","","","preload","86","551601","0.0-86.0","","","","","true","","","","","","","","","","","preload","","","1","3","false","[]","[]","[]","","","","","",""
"","","","","","","","","","","","canvas-keyboard-response","87","551903","0.0-87.0","null","null","","","","","","","","","","","","","","fixation","","","1","3","","","","","","","","","",""
"","","","","","","","","","","","canvas-keyboard-response","88","552206","0.0-88.0","null","null","","","","","","","","","","","","","","stimulus","","","1","3","","","","","","","","","",""
"","","","","","","","","","","","canvas-button-response","89","553831","0.0-89.0","1623","flower","","","","","","","","","","","","","","perceptual","","","1","3","","","","","57","flower","10","","1",""
"","","","","","","","","","","","canvas-button-response","90","555431","0.0-90.0","1598","5","","","","","","","","","","","","","","confidence","","","1","3","","","","","","","","","","2"
"","","","","","","","","","","","html-keyboard-response","91","556433","0.0-91.0","null","null","","","","","","","","","","","","","","feedback","Fri Oct 10 2025 17:44:15 GMT-0400 (Eastern Daylight Time)","23024","1","3","","","","","","","","","",""
"","","","","","","","","","","","preload","92","556434","0.0-92.0","","","","","true","","","","","","","","","","","preload","","","1","4","false","[]","[]","[]","","","","","",""
"","","","","","","","","","","","canvas-keyboard-response","93","556737","0.0-93.0","null","null","","","","","","","","","","","","","","fixation","","","1","4","","","","","","","","","",""
"","","","","","","","","","","","canvas-keyboard-response","94","557040","0.0-94.0","null","null","","","","","","","","","","","","","","stimulus","","","1","4","","","","","","","","","",""
"","","","","","","","","","","","canvas-button-response","95","560464","0.0-95.0","3423","house","","","","","","","","","","","","","","perceptual","","","1","4","","","","","4","house","6","","1",""
"","","","","","","","","","","","canvas-button-response","96","563713","0.0-96.0","3247","10","","","","","","","","","","","","","","confidence","","","1","4","","","","","","","","","","3"
"","","","","","","","","","","","html-keyboard-response","97","564716","0.0-97.0","null","null","","","","","","","","","","","","","","feedback","Fri Oct 10 2025 17:44:23 GMT-0400 (Eastern Daylight Time)","23024","1","4","","","","","","","","","",""
"","","","","","","","","","","","preload","98","564717","0.0-98.0","","","","","true","","","","","","","","","","","preload","","","1","5","false","[]","[]","[]","","","","","",""
"","","","","","","","","","","","canvas-keyboard-response","99","565019","0.0-99.0","null","null","","","","","","","","","","","","","","fixation","","","1","5","","","","","","","","","",""
"","","","","","","","","","","","canvas-keyboard-response","100","565321","0.0-100.0","null","null","","","","","","","","","","","","","","stimulus","","","1","5","","","","","","","","","",""
"","","","","","","","","","","","canvas-button-response","101","566514","0.0-101.0","1191","knife","","","","","","","","","","","","","","perceptual","","","1","5","","","","","97","knife","10","","1",""
"","","","","","","","","","","","canvas-button-response","102","567414","0.0-102.0","898","10","","","","","","","","","","","","","","confidence","","","1","5","","","","","","","","","","4"
"","","","","","","","","","","","html-keyboard-response","103","568417","0.0-103.0","null","null","","","","","","","","","","","","","","feedback","Fri Oct 10 2025 17:44:27 GMT-0400 (Eastern Daylight Time)","23024","1","5","","","","","","","","","",""
"","","","","","","","","","","","preload","104","568418","0.0-104.0","","","","","true","","","","","","","","","","","preload","","","1","6","false","[]","[]","[]","","","","","",""
"","","","","","","","","","","","canvas-keyboard-response","105","568720","0.0-105.0","null","null","","","","","","","","","","","","","","fixation","","","1","6","","","","","","","","","",""
"","","","","","","","","","","","canvas-keyboard-response","106","569023","0.0-106.0","null","null","","","","","","","","","","","","","","stimulus","","","1","6","","","","","","","","","",""
"","","","","","","","","","","","canvas-button-response","107","570213","0.0-107.0","1189","bed","","","","","","","","","","","","","","perceptual","","","1","6","","","","","34","bed","6","","1",""
"","","","","","","","","","","","canvas-button-response","108","571648","0.0-108.0","1432","6","","","","","","","","","","","","","","confidence","","","1","6","","","","","","","","","","5"
"","","","","","","","","","","","html-keyboard-response","109","572651","0.0-109.0","null","null","","","","","","","","","","","","","","feedback","Fri Oct 10 2025 17:44:31 GMT-0400 (Eastern Daylight Time)","23024","1","6","","","","","","","","","",""
"","","","","","","","","","","","preload","110","572652","0.0-110.0","","","","","true","","","","","","","","","","","preload","","","1","7","false","[]","[]","[]","","","","","",""
"","","","","","","","","","","","canvas-keyboard-response","111","572955","0.0-111.0","null","null","","","","","","","","","","","","","","fixation","","","1","7","","","","","","","","","",""
"","","","","","","","","","","","canvas-keyboard-response","112","573257","0.0-112.0","null","null","","","","","","","","","","","","","","stimulus","","","1","7","","","","","","","","","",""
"","","","","","","","","","","","canvas-button-response","113","577879","0.0-113.0","4621","bridge","","","","","","","","","","","","","","perceptual","","","1","7","","","","","27","phone","10","","0",""
"","","","","","","","","","","","canvas-button-response","114","580330","0.0-114.0","2449","1","","","","","","","","","","","","","","confidence","","","1","7","","","","","","","","","","5"
"","","","","","","","","","","","html-keyboard-response","115","581333","0.0-115.0","null","null","","","","","","","","","","","","","","feedback","Fri Oct 10 2025 17:44:40 GMT-0400 (Eastern Daylight Time)","23024","1","7","","","","","","","","","",""
"","","","","","","","","","","","preload","116","581334","0.0-116.0","","","","","true","","","","","","","","","","","preload","","","1","8","false","[]","[]","[]","","","","","",""
"","","","","","","","","","","","canvas-keyboard-response","117","581636","0.0-117.0","null","null","","","","","","","","","","","","","","fixation","","","1","8","","","","","","","","","",""
"","","","","","","","","","","","canvas-keyboard-response","118","581939","0.0-118.0","null","null","","","","","","","","","","","","","","stimulus","","","1","8","","","","","","","","","",""
"","","","","","","","","","","","canvas-button-response","119","583864","0.0-119.0","1923","elephant","","","","","","","","","","","","","","perceptual","","","1","8","","","","","84","elephant","6","","1",""
"","","","","","","","","","","","canvas-button-response","120","585214","0.0-120.0","1348","10","","","","","","","","","","","","","","confidence","","","1","8","","","","","","","","","","6"
"","","","","","","","","","","","html-keyboard-response","121","586216","0.0-121.0","null","null","","","","","","","","","","","","","","feedback","Fri Oct 10 2025 17:44:44 GMT-0400 (Eastern Daylight Time)","23024","1","8","","","","","","","","","",""
"","","","","","","","","","","","preload","122","586216","0.0-122.0","","","","","true","","","","","","","","","","","preload","","","1","9","false","[]","[]","[]","","","","","",""
"","","","","","","","","","","","canvas-keyboard-response","123","586518","0.0-123.0","null","null","","","","","","","","","","","","","","fixation","","","1","9","","","","","","","","","",""
"","","","","","","","","","","","canvas-keyboard-response","124","586821","0.0-124.0","null","null","","","","","","","","","","","","","","stimulus","","","1","9","","","","","","","","","",""
"","","","","","","","","","","","canvas-button-response","125","590897","0.0-125.0","4074","car","","","","","","","","","","","","","","perceptual","","","1","9","","","","","77","cat","10","","0",""
"","","","","","","","","","","","canvas-button-response","126","592063","0.0-126.0","1164","1","","","","","","","","","","","","","","confidence","","","1","9","","","","","","","","","","6"
"","","","","","","","","","","","html-keyboard-response","127","593065","0.0-127.0","null","null","","","","","","","","","","","","","","feedback","Fri Oct 10 2025 17:44:51 GMT-0400 (Eastern Daylight Time)","23024","1","9","","","","","","","","","",""
"","","","","","","","","","","","preload","128","593066","0.0-128.0","","","","","true","","","","","","","","","","","preload","","","1","10","false","[]","[]","[]","","","","","",""
"","","","","","","","","","","","canvas-keyboard-response","129","593369","0.0-129.0","null","null","","","","","","","","","","","","","","fixation","","","1","10","","","","","","","","","",""
"","","","","","","","","","","","canvas-keyboard-response","130","593672","0.0-130.0","null","null","","","","","","","","","","","","","","stimulus","","","1","10","","","","","","","","","",""
"","","","","","","","","","","","canvas-button-response","131","598096","0.0-131.0","4423","phone","","","","","","","","","","","","","","perceptual","","","1","10","","","","","94","knife","6","","0",""
"","","","","","","","","","","","canvas-button-response","132","599414","0.0-132.0","1316","2","","","","","","","","","","","","","","confidence","","","1","10","","","","","","","","","","6"
"","","","","","","","","","","","html-keyboard-response","133","600418","0.0-133.0","null","null","","","","","","","","","","","","","","feedback","Fri Oct 10 2025 17:44:59 GMT-0400 (Eastern Daylight Time)","23024","1","10","","","","","","","","","",""
"","","","","","","","","","","","preload","134","600418","0.0-134.0","","","","","true","","","","","","","","","","","preload","","","1","11","false","[]","[]","[]","","","","","",""
"","","","","","","","","","","","canvas-keyboard-response","135","600721","0.0-135.0","null","null","","","","","","","","","","","","","","fixation","","","1","11","","","","","","","","","",""
"","","","","","","","","","","","canvas-keyboard-response","136","601024","0.0-136.0","null","null","","","","","","","","","","","","","","stimulus","","","1","11","","","","","","","","","",""
"","","","","","","","","","","","canvas-button-response","137","608213","0.0-137.0","7188","car","","","","","","","","","","","","","","perceptual","","","1","11","","","","","44","bridge","6","","0",""
"","","","","","","","","","","","canvas-button-response","138","609264","0.0-138.0","1049","1","","","","","","","","","","","","","","confidence","","","1","11","","","","","","","","","","6"
"","","","","","","","","","","","html-keyboard-response","139","610266","0.0-139.0","null","null","","","","","","","","","","","","","","feedback","Fri Oct 10 2025 17:45:08 GMT-0400 (Eastern Daylight Time)","23024","1","11","","","","","","","","","",""
"","","","","","","","","","","","preload","140","610267","0.0-140.0","","","","","true","","","","","","","","","","","preload","","","1","12","false","[]","[]","[]","","","","","",""
"","","","","","","","","","","","canvas-keyboard-response","141","610570","0.0-141.0","null","null","","","","","","","","","","","","","","fixation","","","1","12","","","","","","","","","",""
"","","","","","","","","","","","canvas-keyboard-response","142","610872","0.0-142.0","null","null","","","","","","","","","","","","","","stimulus","","","1","12","","","","","","","","","",""
"","","","","","","","","","","","canvas-button-response","143","611980","0.0-143.0","1106","flower","","","","","","","","","","","","","","perceptual","","","1","12","","","","","54","flower","6","","1",""
"","","","","","","","","","","","canvas-button-response","144","613964","0.0-144.0","1982","9","","","","","","","","","","","","","","confidence","","","1","12","","","","","","","","","","7"
"","","","","","","","","","","","html-keyboard-response","145","614967","0.0-145.0","null","null","","","","","","","","","","","","","","feedback","Fri Oct 10 2025 17:45:13 GMT-0400 (Eastern Daylight Time)","23024","1","12","","","","","","","","","",""
"","","","","","","","","","","","preload","146","614968","0.0-146.0","","","","","true","","","","","","","","","","","preload","","","1","13","false","[]","[]","[]","","","","","",""
"","","","","","","","","","","","canvas-keyboard-response","147","615271","0.0-147.0","null","null","","","","","","","","","","","","","","fixation","","","1","13","","","","","","","","","",""
"","","","","","","","","","","","canvas-keyboard-response","148","615574","0.0-148.0","null","null","","","","","","","","","","","","","","stimulus","","","1","13","","","","","","","","","",""
"","","","","","","","","","","","canvas-button-response","149","616897","0.0-149.0","1322","car","","","","","","","","","","","","","","perceptual","","","1","13","","","","","14","car","6","","1",""
"","","","","","","","","","","","canvas-button-response","150","618398","0.0-150.0","1499","6","","","","","","","","","","","","","","confidence","","","1","13","","","","","","","","","","8"
"","","","","","","","","","","","html-keyboard-response","151","619401","0.0-151.0","null","null","","","","","","","","","","","","","","feedback","Fri Oct 10 2025 17:45:18 GMT-0400 (Eastern Daylight Time)","23024","1","13","","","","","","","","","",""
"","","","","","","","","","","","preload","152","619402","0.0-152.0","","","","","true","","","","","","","","","","","preload","","","1","14","false","[]","[]","[]","","","","","",""
"","","","","","","","","","","","canvas-keyboard-response","153","619704","0.0-153.0","null","null","","","","","","","","","","","","","","fixation","","","1","14","","","","","","","","","",""
"","","","","","","","","","","","canvas-keyboard-response","154","620007","0.0-154.0","null","null","","","","","","","","","","","","","","stimulus","","","1","14","","","","","","","","","",""
"","","","","","","","","","","","canvas-button-response","155","628081","0.0-155.0","8072","house","","","","","","","","","","","","","","perceptual","","","1","14","","","","","87","elephant","10","","0",""
"","","","","","","","","","","","canvas-button-response","156","629730","0.0-156.0","1648","1","","","","","","","","","","","","","","confidence","","","1","14","","","","","","","","","","8"
"","","","","","","","","","","","html-keyboard-response","157","630733","0.0-157.0","null","null","","","","","","","","","","","","","","feedback","Fri Oct 10 2025 17:45:29 GMT-0400 (Eastern Daylight Time)","23024","1","14","","","","","","","","","",""
"","","","","","","","","","","","preload","158","630734","0.0-158.0","","","","","true","","","","","","","","","","","preload","","","1","15","false","[]","[]","[]","","","","","",""
"","","","","","","","","","","","canvas-keyboard-response","159","631037","0.0-159.0","null","null","","","","","","","","","","","","","","fixation","","","1","15","","","","","","","","","",""
"","","","","","","","","","","","canvas-keyboard-response","160","631340","0.0-160.0","null","null","","","","","","","","","","","","","","stimulus","","","1","15","","","","","","","","","",""
"","","","","","","","","","","","canvas-button-response","161","632547","0.0-161.0","1205","cat","","","","","","","","","","","","","","perceptual","","","1","15","","","","","74","cat","6","","1",""
"","","","","","","","","","","","canvas-button-response","162","633547","0.0-162.0","998","10","","","","","","","","","","","","","","confidence","","","1","15","","","","","","","","","","9"
"","","","","","","","","","","","html-keyboard-response","163","634550","0.0-163.0","null","null","","","","","","","","","","","","","","feedback","Fri Oct 10 2025 17:45:33 GMT-0400 (Eastern Daylight Time)","23024","1","15","","","","","","","","","",""
"","","","","","","","","","","","preload","164","634551","0.0-164.0","","","","","true","","","","","","","","","","","preload","","","1","16","false","[]","[]","[]","","","","","",""
"","","","","","","","","","","","canvas-keyboard-response","165","634854","0.0-165.0","null","null","","","","","","","","","","","","","","fixation","","","1","16","","","","","","","","","",""
"","","","","","","","","","","","canvas-keyboard-response","166","635157","0.0-166.0","null","null","","","","","","","","","","","","","","stimulus","","","1","16","","","","","","","","","",""
"","","","","","","","","","","","canvas-button-response","167","636480","0.0-167.0","1321","car","","","","","","","","","","","","","","perceptual","","","1","16","","","","","17","car","10","","1",""
"","","","","","","","","","","","canvas-button-response","168","638131","0.0-168.0","1649","3","","","","","","","","","","","","","","confidence","","","1","16","","","","","","","","","","10"
"","","","","","","","","","","","html-keyboard-response","169","639134","0.0-169.0","null","null","","","","","","","","","","","","","","feedback","Fri Oct 10 2025 17:45:37 GMT-0400 (Eastern Daylight Time)","23024","1","16","","","","","","","","","",""
"","","","","","","","","","","","preload","170","639135","0.0-170.0","","","","","true","","","","","","","","","","","preload","","","1","17","false","[]","[]","[]","","","","","",""
"","","","","","","","","","","","canvas-keyboard-response","171","639438","0.0-171.0","null","null","","","","","","","","","","","","","","fixation","","","1","17","","","","","","","","","",""
"","","","","","","","","","","","canvas-keyboard-response","172","639740","0.0-172.0","null","null","","","","","","","","","","","","","","stimulus","","","1","17","","","","","","","","","",""
"","","","","","","","","","","","canvas-button-response","173","643081","0.0-173.0","3339","phone","","","","","","","","","","","","","","perceptual","","","1","17","","","","","24","phone","6","","1",""
"","","","","","","","","","","","canvas-button-response","174","644380","0.0-174.0","1298","1","","","","","","","","","","","","","","confidence","","","1","17","","","","","","","","","","11"
"","","","","","","","","","","","html-keyboard-response","175","645383","0.0-175.0","null","null","","","","","","","","","","","","","","feedback","Fri Oct 10 2025 17:45:44 GMT-0400 (Eastern Daylight Time)","23024","1","17","","","","","","","","","",""
"","","","","","","","","","","","preload","176","645384","0.0-176.0","","","","","true","","","","","","","","","","","preload","","","1","18","false","[]","[]","[]","","","","","",""
"","","","","","","","","","","","canvas-keyboard-response","177","645687","0.0-177.0","null","null","","","","","","","","","","","","","","fixation","","","1","18","","","","","","","","","",""
"","","","","","","","","","","","canvas-keyboard-response","178","645989","0.0-178.0","null","null","","","","","","","","","","","","","","stimulus","","","1","18","","","","","","","","","",""
"","","","","","","","","","","","canvas-button-response","179","647714","0.0-179.0","1722","house","","","","","","","","","","","","","","perceptual","","","1","18","","","","","7","house","10","","1",""
"","","","","","","","","","","","canvas-button-response","180","650978","0.0-180.0","3263","6","","","","","","","","","","","","","","confidence","","","1","18","","","","","","","","","","12"
"","","","","","","","","","","","html-keyboard-response","181","651981","0.0-181.0","null","null","","","","","","","","","","","","","","feedback","Fri Oct 10 2025 17:45:50 GMT-0400 (Eastern Daylight Time)","23024","1","18","","","","","","","","","",""
"","","","","","","","","","","","preload","182","651981","0.0-182.0","","","","","true","","","","","","","","","","","preload","","","1","19","false","[]","[]","[]","","","","","",""
"","","","","","","","","","","","canvas-keyboard-response","183","652284","0.0-183.0","null","null","","","","","","","","","","","","","","fixation","","","1","19","","","","","","","","","",""
"","","","","","","","","","","","canvas-keyboard-response","184","652587","0.0-184.0","null","null","","","","","","","","","","","","","","stimulus","","","1","19","","","","","","","","","",""
"","","","","","","","","","","","canvas-button-response","185","654264","0.0-185.0","1675","train","","","","","","","","","","","","","","perceptual","","","1","19","","","","","64","train","6","","1",""
"","","","","","","","","","","","canvas-button-response","186","655063","0.0-186.0","798","10","","","","","","","","","","","","","","confidence","","","1","19","","","","","","","","","","13"
"","","","","","","","","","","","html-keyboard-response","187","656066","0.0-187.0","null","null","","","","","","","","","","","","","","feedback","Fri Oct 10 2025 17:45:54 GMT-0400 (Eastern Daylight Time)","23024","1","19","","","","","","","","","",""
"","","","","","","","","","","","html-button-response","188","687796","0.0-188.0","31728","0","","","","","","","","","","","","","","start experiment","Fri Oct 10 2025 17:45:55 GMT-0400 (Eastern Daylight Time)","23024","1","19","","","","","","","","","",""
"","","","","","","","","","","","preload","189","687797","0.0-189.0","","","","","true","","","","","","","","","","","preload","","","2","0","false","[]","[]","[]","","","","","",""
"","","","","","","","","","","","canvas-keyboard-response","190","688099","0.0-190.0","null","null","","","","","","","","","","","","","","fixation","","","2","0","","","","","","","","","",""
"","","","","","","","","","","","canvas-keyboard-response","191","688401","0.0-191.0","null","null","","","","","","","","","","","","","","stimulus","","","2","0","","","","","","","","","",""
"","","","","","","","","","","","canvas-button-response","192","690580","0.0-192.0","2177","bridge","","","","","","","","","","","","","","perceptual","","","2","0","","","","","161","bridge","6","0","1",""
"","","","","","","","","","","","canvas-button-response","193","691797","0.0-193.0","1215","8","","","","","","","","","","","","","","confidence","","","2","0","","","","","","","","","","1"
"","","","","","","","","","","","preload","194","691798","0.0-194.0","","","","","true","","","","","","","","","","","preload","","","2","1","false","[]","[]","[]","","","","","",""
"","","","","","","","","","","","canvas-keyboard-response","195","692100","0.0-195.0","null","null","","","","","","","","","","","","","","fixation","","","2","1","","","","","","","","","",""
"","","","","","","","","","","","canvas-keyboard-response","196","692402","0.0-196.0","null","null","","","","","","","","","","","","","","stimulus","","","2","1","","","","","","","","","",""
"","","","","","","","","","","","canvas-button-response","197","694197","0.0-197.0","1793","car","","","","","","","","","","","","","","perceptual","","","2","1","","","","","70","car","10","0","1",""
"","","","","","","","","","","","canvas-button-response","198","696830","0.0-198.0","2631","10","","","","","","","","","","","","","","confidence","","","2","1","","","","","","","","","","2"
"","","","","","","","","","","","preload","199","696831","0.0-199.0","","","","","true","","","","","","","","","","","preload","","","2","2","false","[]","[]","[]","","","","","",""
"","","","","","","","","","","","canvas-keyboard-response","200","697133","0.0-200.0","null","null","","","","","","","","","","","","","","fixation","","","2","2","","","","","","","","","",""
"","","","","","","","","","","","canvas-keyboard-response","201","697435","0.0-201.0","null","null","","","","","","","","","","","","","","stimulus","","","2","2","","","","","","","","","",""
"","","","","","","","","","","","canvas-button-response","202","700463","0.0-202.0","3026","train","","","","","","","","","","","","","","perceptual","","","2","2","","","","","334","elephant","6","0","0",""
"","","","","","","","","","","","canvas-button-response","203","701546","0.0-203.0","1082","3","","","","","","","","","","","","","","confidence","","","2","2","","","","","","","","","","2"
"","","","","","","","","","","","preload","204","701547","0.0-204.0","","","","","true","","","","","","","","","","","preload","","","2","3","false","[]","[]","[]","","","","","",""
"","","","","","","","","","","","canvas-keyboard-response","205","701850","0.0-205.0","null","null","","","","","","","","","","","","","","fixation","","","2","3","","","","","","","","","",""
"","","","","","","","","","","","canvas-keyboard-response","206","702152","0.0-206.0","null","null","","","","","","","","","","","","","","stimulus","","","2","3","","","","","","","","","",""
"","","","","","","","","","","","canvas-button-response","207","704914","0.0-207.0","2759","bed","","","","","","","","","","","","","","perceptual","","","2","3","","","","","146","bed","10","0","1",""
"","","","","","","","","","","","canvas-button-response","208","705663","0.0-208.0","748","1","","","","","","","","","","","","","","confidence","","","2","3","","","","","","","","","","3"
"","","","","","","","","","","","preload","209","705664","0.0-209.0","","","","","true","","","","","","","","","","","preload","","","2","4","false","[]","[]","[]","","","","","",""
"","","","","","","","","","","","canvas-keyboard-response","210","705966","0.0-210.0","null","null","","","","","","","","","","","","","","fixation","","","2","4","","","","","","","","","",""
"","","","","","","","","","","","canvas-keyboard-response","211","706269","0.0-211.0","null","null","","","","","","","","","","","","","","stimulus","","","2","4","","","","","","","","","",""
"","","","","","","","","","","","canvas-button-response","212","707613","0.0-212.0","1343","house","","","","","","","","","","","","","","perceptual","","","2","4","","","","","5","house","6","0","1",""
"","","","","","","","","","","","canvas-button-response","213","708546","0.0-213.0","931","7","","","","","","","","","","","","","","confidence","","","2","4","","","","","","","","","","4"
"","","","","","","","","","","","preload","214","708547","0.0-214.0","","","","","true","","","","","","","","","","","preload","","","2","5","false","[]","[]","[]","","","","","",""
"","","","","","","","","","","","canvas-keyboard-response","215","708850","0.0-215.0","null","null","","","","","","","","","","","","","","fixation","","","2","5","","","","","","","","","",""
"","","","","","","","","","","","canvas-keyboard-response","216","709152","0.0-216.0","null","null","","","","","","","","","","","","","","stimulus","","","2","5","","","","","","","","","",""
"","","","","","","","","","","","canvas-button-response","217","712264","0.0-217.0","3110","train","","","","","","","","","","","","","","perceptual","","","2","5","","","","","368","knife","6","0","0",""
"","","","","","","","","","","","canvas-button-response","218","714896","0.0-218.0","2629","1","","","","","","","","","","","","","","confidence","","","2","5","","","","","","","","","","4"
"","","","","","","","","","","","preload","219","714897","0.0-219.0","","","","","true","","","","","","","","","","","preload","","","2","6","false","[]","[]","[]","","","","","",""
"","","","","","","","","","","","canvas-keyboard-response","220","715199","0.0-220.0","null","null","","","","","","","","","","","","","","fixation","","","2","6","","","","","","","","","",""
"","","","","","","","","","","","canvas-keyboard-response","221","715502","0.0-221.0","null","null","","","","","","","","","","","","","","stimulus","","","2","6","","","","","","","","","",""
"","","","","","","","","","","","canvas-button-response","222","724880","0.0-222.0","9376","phone","","","","","","","","","","","","","","perceptual","","","2","6","","","","","369","knife","6","0","0",""
"","","","","","","","","","","","canvas-button-response","223","726080","0.0-223.0","1198","1","","","","","","","","","","","","","","confidence","","","2","6","","","","","","","","","","4"
"","","","","","","","","","","","preload","224","726081","0.0-224.0","","","","","true","","","","","","","","","","","preload","","","2","7","false","[]","[]","[]","","","","","",""
"","","","","","","","","","","","canvas-keyboard-response","225","726384","0.0-225.0","null","null","","","","","","","","","","","","","","fixation","","","2","7","","","","","","","","","",""
"","","","","","","","","","","","canvas-keyboard-response","226","726687","0.0-226.0","null","null","","","","","","","","","","","","","","stimulus","","","2","7","","","","","","","","","",""
"","","","","","","","","","","","canvas-button-response","227","730747","0.0-227.0","4058","train","","","","","","","","","","","","","","perceptual","","","2","7","","","","","246","train","6","0","1",""
"","","","","","","","","","","","canvas-button-response","228","732113","0.0-228.0","1364","10","","","","","","","","","","","","","","confidence","","","2","7","","","","","","","","","","5"
"","","","","","","","","","","","preload","229","732114","0.0-229.0","","","","","true","","","","","","","","","","","preload","","","2","8","false","[]","[]","[]","","","","","",""
"","","","","","","","","","","","canvas-keyboard-response","230","732416","0.0-230.0","null","null","","","","","","","","","","","","","","fixation","","","2","8","","","","","","","","","",""
"","","","","","","","","","","","canvas-keyboard-response","231","732719","0.0-231.0","null","null","","","","","","","","","","","","","","stimulus","","","2","8","","","","","","","","","",""
"","","","","","","","","","","","canvas-button-response","232","734696","0.0-232.0","1976","train","","","","","","","","","","","","","","perceptual","","","2","8","","","","","279","train","10","0","1",""
"","","","","","","","","","","","canvas-button-response","233","736046","0.0-233.0","1348","2","","","","","","","","","","","","","","confidence","","","2","8","","","","","","","","","","6"
"","","","","","","","","","","","preload","234","736047","0.0-234.0","","","","","true","","","","","","","","","","","preload","","","2","9","false","[]","[]","[]","","","","","",""
"","","","","","","","","","","","canvas-keyboard-response","235","736349","0.0-235.0","null","null","","","","","","","","","","","","","","fixation","","","2","9","","","","","","","","","",""
"","","","","","","","","","","","canvas-keyboard-response","236","736652","0.0-236.0","null","null","","","","","","","","","","","","","","stimulus","","","2","9","","","","","","","","","",""
"","","","","","","","","","","","canvas-button-response","237","740296","0.0-237.0","3643","bridge","","","","","","","","","","","","","","perceptual","","","2","9","","","","","382","knife","10","0","0",""
"","","","","","","","","","","","canvas-button-response","238","745729","0.0-238.0","5430","1","","","","","","","","","","","","","","confidence","","","2","9","","","","","","","","","","6"
"","","","","","","","","","","","preload","239","745730","0.0-239.0","","","","","true","","","","","","","","","","","preload","","","2","10","false","[]","[]","[]","","","","","",""
"","","","","","","","","","","","canvas-keyboard-response","240","746032","0.0-240.0","null","null","","","","","","","","","","","","","","fixation","","","2","10","","","","","","","","","",""
"","","","","","","","","","","","canvas-keyboard-response","241","746334","0.0-241.0","null","null","","","","","","","","","","","","","","stimulus","","","2","10","","","","","","","","","",""
"","","","","","","","","","","","canvas-button-response","242","747279","0.0-242.0","944","bed","","","","","","","","","","","","","","perceptual","","","2","10","","","","","127","bed","6","0","1",""
"","","","","","","","","","","","canvas-button-response","243","748613","0.0-243.0","1331","10","","","","","","","","","","","","","","confidence","","","2","10","","","","","","","","","","7"
"","","","","","","","","","","","preload","244","748614","0.0-244.0","","","","","true","","","","","","","","","","","preload","","","2","11","false","[]","[]","[]","","","","","",""
"","","","","","","","","","","","canvas-keyboard-response","245","748916","0.0-245.0","null","null","","","","","","","","","","","","","","fixation","","","2","11","","","","","","","","","",""
"","","","","","","","","","","","canvas-keyboard-response","246","749219","0.0-246.0","null","null","","","","","","","","","","","","","","stimulus","","","2","11","","","","","","","","","",""
"","","","","","","","","","","","canvas-button-response","247","753463","0.0-247.0","4242","phone","","","","","","","","","","","","","","perceptual","","","2","11","","","","","193","bridge","10","0","0",""
"","","","","","","","","","","","canvas-button-response","248","757147","0.0-248.0","3682","0","","","","","","","","","","","","","","confidence","","","2","11","","","","","","","","","","7"
"","","","","","","","","","","","preload","249","757148","0.0-249.0","","","","","true","","","","","","","","","","","preload","","","2","12","false","[]","[]","[]","","","","","",""
"","","","","","","","","","","","canvas-keyboard-response","250","757450","0.0-250.0","null","null","","","","","","","","","","","","","","fixation","","","2","12","","","","","","","","","",""
"","","","","","","","","","","","canvas-keyboard-response","251","757753","0.0-251.0","null","null","","","","","","","","","","","","","","stimulus","","","2","12","","","","","","","","","",""
"","","","","","","","","","","","canvas-button-response","252","758880","0.0-252.0","1125","flower","","","","","","","","","","","","","","perceptual","","","2","12","","","","","213","flower","6","0","1",""
"","","","","","","","","","","","canvas-button-response","253","760229","0.0-253.0","1347","10","","","","","","","","","","","","","","confidence","","","2","12","","","","","","","","","","8"
"","","","","","","","","","","","preload","254","760230","0.0-254.0","","","","","true","","","","","","","","","","","preload","","","2","13","false","[]","[]","[]","","","","","",""
"","","","","","","","","","","","canvas-keyboard-response","255","760532","0.0-255.0","null","null","","","","","","","","","","","","","","fixation","","","2","13","","","","","","","","","",""
"","","","","","","","","","","","canvas-keyboard-response","256","760835","0.0-256.0","null","null","","","","","","","","","","","","","","stimulus","","","2","13","","","","","","","","","",""
"","","","","","","","","","","","canvas-button-response","257","768529","0.0-257.0","7692","phone","","","","","","","","","","","","","","perceptual","","","2","13","","","","","98","phone","6","0","1",""
"","","","","","","","","","","","canvas-button-response","258","769813","0.0-258.0","1282","3","","","","","","","","","","","","","","confidence","","","2","13","","","","","","","","","","9"
"","","","","","","","","","","","preload","259","769814","0.0-259.0","","","","","true","","","","","","","","","","","preload","","","2","14","false","[]","[]","[]","","","","","",""
"","","","","","","","","","","","canvas-keyboard-response","260","770116","0.0-260.0","null","null","","","","","","","","","","","","","","fixation","","","2","14","","","","","","","","","",""
"","","","","","","","","","","","canvas-keyboard-response","261","770418","0.0-261.0","null","null","","","","","","","","","","","","","","stimulus","","","2","14","","","","","","","","","",""
"","","","","","","","","","","","canvas-button-response","262","771895","0.0-262.0","1476","flower","","","","","","","","","","","","","","perceptual","","","2","14","","","","","210","flower","6","0","1",""
"","","","","","","","","","","","canvas-button-response","263","773246","0.0-263.0","1349","10","","","","","","","","","","","","","","confidence","","","2","14","","","","","","","","","","10"
"","","","","","","","","","","","preload","264","773247","0.0-264.0","","","","","true","","","","","","","","","","","preload","","","2","15","false","[]","[]","[]","","","","","",""
"","","","","","","","","","","","canvas-keyboard-response","265","773550","0.0-265.0","null","null","","","","","","","","","","","","","","fixation","","","2","15","","","","","","","","","",""
"","","","","","","","","","","","canvas-keyboard-response","266","773853","0.0-266.0","null","null","","","","","","","","","","","","","","stimulus","","","2","15","","","","","","","","","",""
"","","","","","","","","","","","canvas-button-response","267","776496","0.0-267.0","2641","house","","","","","","","","","","","","","","perceptual","","","2","15","","","","","19","house","6","0","1",""
"","","","","","","","","","","","canvas-button-response","268","777662","0.0-268.0","1164","3","","","","","","","","","","","","","","confidence","","","2","15","","","","","","","","","","11"
"","","","","","","","","","","","preload","269","777663","0.0-269.0","","","","","true","","","","","","","","","","","preload","","","2","16","false","[]","[]","[]","","","","","",""
"","","","","","","","","","","","canvas-keyboard-response","270","777965","0.0-270.0","null","null","","","","","","","","","","","","","","fixation","","","2","16","","","","","","","","","",""
"","","","","","","","","","","","canvas-keyboard-response","271","778269","0.0-271.0","null","null","","","","","","","","","","","","","","stimulus","","","2","16","","","","","","","","","",""
"","","","","","","","","","","","canvas-button-response","272","779429","0.0-272.0","1159","flower","","","","","","","","","","","","","","perceptual","","","2","16","","","","","219","flower","6","0","1",""
"","","","","","","","","","","","canvas-button-response","273","780646","0.0-273.0","1215","10","","","","","","","","","","","","","","confidence","","","2","16","","","","","","","","","","12"
"","","","","","","","","","","","preload","274","780647","0.0-274.0","","","","","true","","","","","","","","","","","preload","","","2","17","false","[]","[]","[]","","","","","",""
"","","","","","","","","","","","canvas-keyboard-response","275","780950","0.0-275.0","null","null","","","","","","","","","","","","","","fixation","","","2","17","","","","","","","","","",""
"","","","","","","","","","","","canvas-keyboard-response","276","781252","0.0-276.0","null","null","","","","","","","","","","","","","","stimulus","","","2","17","","","","","","","","","",""
"","","","","","","","","","","","canvas-button-response","277","785529","0.0-277.0","4275","train","","","","","","","","","","","","","","perceptual","","","2","17","","","","","263","train","10","0","1",""
"","","","","","","","","","","","canvas-button-response","278","787463","0.0-278.0","1932","2","","","","","","","","","","","","","","confidence","","","2","17","","","","","","","","","","13"
"","","","","","","","","","","","preload","279","787464","0.0-279.0","","","","","true","","","","","","","","","","","preload","","","2","18","false","[]","[]","[]","","","","","",""
"","","","","","","","","","","","canvas-keyboard-response","280","787767","0.0-280.0","null","null","","","","","","","","","","","","","","fixation","","","2","18","","","","","","","","","",""
"","","","","","","","","","","","canvas-keyboard-response","281","788069","0.0-281.0","null","null","","","","","","","","","","","","","","stimulus","","","2","18","","","","","","","","","",""
"","","","","","","","","","","","canvas-button-response","282","789829","0.0-282.0","1758","house","","","","","","","","","","","","","","perceptual","","","2","18","","","","","33","house","10","0","1",""
"","","","","","","","","","","","canvas-button-response","283","793679","0.0-283.0","3848","3","","","","","","","","","","","","","","confidence","","","2","18","","","","","","","","","","14"
"","","","","","","","","","","","preload","284","793680","0.0-284.0","","","","","true","","","","","","","","","","","preload","","","2","19","false","[]","[]","[]","","","","","",""
"","","","","","","","","","","","canvas-keyboard-response","285","793983","0.0-285.0","null","null","","","","","","","","","","","","","","fixation","","","2","19","","","","","","","","","",""
"","","","","","","","","","","","canvas-keyboard-response","286","794285","0.0-286.0","null","null","","","","","","","","","","","","","","stimulus","","","2","19","","","","","","","","","",""
"","","","","","","","","","","","canvas-button-response","287","797046","0.0-287.0","2759","bridge","","","","","","","","","","","","","","perceptual","","","2","19","","","","","173","bridge","6","0","1",""
"","","","","","","","","","","","canvas-button-response","288","799664","0.0-288.0","2615","2","","","","","","","","","","","","","","confidence","","","2","19","","","","","","","","","","15"
"","","","","","","","","","","","preload","289","799664","0.0-289.0","","","","","true","","","","","","","","","","","preload","","","2","20","false","[]","[]","[]","","","","","",""
"","","","","","","","","","","","canvas-keyboard-response","290","799966","0.0-290.0","null","null","","","","","","","","","","","","","","fixation","","","2","20","","","","","","","","","",""
"","","","","","","","","","","","canvas-keyboard-response","291","800269","0.0-291.0","null","null","","","","","","","","","","","","","","stimulus","","","2","20","","","","","","","","","",""
"","","","","","","","","","","","canvas-button-response","292","805913","0.0-292.0","5642","flower","","","","","","","","","","","","","","perceptual","","","2","20","","","","","294","cat","6","0","0",""
"","","","","","","","","","","","canvas-button-response","293","807146","0.0-293.0","1231","1","","","","","","","","","","","","","","confidence","","","2","20","","","","","","","","","","15"
"","","","","","","","","","","","preload","294","807147","0.0-294.0","","","","","true","","","","","","","","","","","preload","","","2","21","false","[]","[]","[]","","","","","",""
"","","","","","","","","","","","canvas-keyboard-response","295","807450","0.0-295.0","null","null","","","","","","","","","","","","","","fixation","","","2","21","","","","","","","","","",""
"","","","","","","","","","","","canvas-keyboard-response","296","807753","0.0-296.0","null","null","","","","","","","","","","","","","","stimulus","","","2","21","","","","","","","","","",""
"","","","","","","","","","","","canvas-button-response","297","808779","0.0-297.0","1025","car","","","","","","","","","","","","","","perceptual","","","2","21","","","","","64","car","10","0","1",""
"","","","","","","","","","","","canvas-button-response","298","810879","0.0-298.0","2099","7","","","","","","","","","","","","","","confidence","","","2","21","","","","","","","","","","16"
"","","","","","","","","","","","preload","299","810880","0.0-299.0","","","","","true","","","","","","","","","","","preload","","","2","22","false","[]","[]","[]","","","","","",""
"","","","","","","","","","","","canvas-keyboard-response","300","811183","0.0-300.0","null","null","","","","","","","","","","","","","","fixation","","","2","22","","","","","","","","","",""
"","","","","","","","","","","","canvas-keyboard-response","301","811486","0.0-301.0","null","null","","","","","","","","","","","","","","stimulus","","","2","22","","","","","","","","","",""
"","","","","","","","","","","","canvas-button-response","302","812729","0.0-302.0","1241","bed","","","","","","","","","","","","","","perceptual","","","2","22","","","","","137","bed","6","0","1",""
"","","","","","","","","","","","canvas-button-response","303","813546","0.0-303.0","815","10","","","","","","","","","","","","","","confidence","","","2","22","","","","","","","","","","17"
"","","","","","","","","","","","preload","304","813547","0.0-304.0","","","","","true","","","","","","","","","","","preload","","","2","23","false","[]","[]","[]","","","","","",""
"","","","","","","","","","","","canvas-keyboard-response","305","813849","0.0-305.0","null","null","","","","","","","","","","","","","","fixation","","","2","23","","","","","","","","","",""
"","","","","","","","","","","","canvas-keyboard-response","306","814152","0.0-306.0","null","null","","","","","","","","","","","","","","stimulus","","","2","23","","","","","","","","","",""
"","","","","","","","","","","","canvas-button-response","307","815811","0.0-307.0","1658","flower","","","","","","","","","","","","","","perceptual","","","2","23","","","","","204","flower","6","0","1",""
"","","","","","","","","","","","canvas-button-response","308","817046","0.0-308.0","1233","5","","","","","","","","","","","","","","confidence","","","2","23","","","","","","","","","","18"
"","","","","","","","","","","","preload","309","817047","0.0-309.0","","","","","true","","","","","","","","","","","preload","","","2","24","false","[]","[]","[]","","","","","",""
"","","","","","","","","","","","canvas-keyboard-response","310","817349","0.0-310.0","null","null","","","","","","","","","","","","","","fixation","","","2","24","","","","","","","","","",""
"","","","","","","","","","","","canvas-keyboard-response","311","817652","0.0-311.0","null","null","","","","","","","","","","","","","","stimulus","","","2","24","","","","","","","","","",""
"","","","","","","","","","","","canvas-button-response","312","819729","0.0-312.0","2075","cat","","","","","","","","","","","","","","perceptual","","","2","24","","","","","192","bridge","10","0","0",""
"","","","","","","","","","","","canvas-button-response","313","821995","0.0-313.0","2265","1","","","","","","","","","","","","","","confidence","","","2","24","","","","","","","","","","18"
"","","","","","","","","","","","preload","314","821996","0.0-314.0","","","","","true","","","","","","","","","","","preload","","","2","25","false","[]","[]","[]","","","","","",""
"","","","","","","","","","","","canvas-keyboard-response","315","822299","0.0-315.0","null","null","","","","","","","","","","","","","","fixation","","","2","25","","","","","","","","","",""
"","","","","","","","","","","","canvas-keyboard-response","316","822602","0.0-316.0","null","null","","","","","","","","","","","","","","stimulus","","","2","25","","","","","","","","","",""
"","","","","","","","","","","","canvas-button-response","317","824479","0.0-317.0","1875","train","","","","","","","","","","","","","","perceptual","","","2","25","","","","","254","train","6","0","1",""
"","","","","","","","","","","","canvas-button-response","318","826212","0.0-318.0","1731","6","","","","","","","","","","","","","","confidence","","","2","25","","","","","","","","","","19"
"","","","","","","","","","","","preload","319","826213","0.0-319.0","","","","","true","","","","","","","","","","","preload","","","2","26","false","[]","[]","[]","","","","","",""
"","","","","","","","","","","","canvas-keyboard-response","320","826515","0.0-320.0","null","null","","","","","","","","","","","","","","fixation","","","2","26","","","","","","","","","",""
"","","","","","","","","","","","canvas-keyboard-response","321","826818","0.0-321.0","null","null","","","","","","","","","","","","","","stimulus","","","2","26","","","","","","","","","",""
"","","","","","","","","","","","canvas-button-response","322","828229","0.0-322.0","1410","knife","","","","","","","","","","","","","","perceptual","","","2","26","","","","","109","phone","10","0","0",""
"","","","","","","","","","","","canvas-button-response","323","830229","0.0-323.0","1998","3","","","","","","","","","","","","","","confidence","","","2","26","","","","","","","","","","19"
"","","","","","","","","","","","preload","324","830230","0.0-324.0","","","","","true","","","","","","","","","","","preload","","","2","27","false","[]","[]","[]","","","","","",""
"","","","","","","","","","","","canvas-keyboard-response","325","830532","0.0-325.0","null","null","","","","","","","","","","","","","","fixation","","","2","27","","","","","","","","","",""
"","","","","","","","","","","","canvas-keyboard-response","326","830834","0.0-326.0","null","null","","","","","","","","","","","","","","stimulus","","","2","27","","","","","","","","","",""
"","","","","","","","","","","","canvas-button-response","327","832495","0.0-327.0","1658","elephant","","","","","","","","","","","","","","perceptual","","","2","27","","","","","287","cat","6","0","0",""
"","","","","","","","","","","","canvas-button-response","328","834212","0.0-328.0","1716","8","","","","","","","","","","","","","","confidence","","","2","27","","","","","","","","","","19"
"","","","","","","","","","","","preload","329","834213","0.0-329.0","","","","","true","","","","","","","","","","","preload","","","2","28","false","[]","[]","[]","","","","","",""
"","","","","","","","","","","","canvas-keyboard-response","330","834516","0.0-330.0","null","null","","","","","","","","","","","","","","fixation","","","2","28","","","","","","","","","",""
"","","","","","","","","","","","canvas-keyboard-response","331","834818","0.0-331.0","null","null","","","","","","","","","","","","","","stimulus","","","2","28","","","","","","","","","",""
"","","","","","","","","","","","canvas-button-response","332","836362","0.0-332.0","1542","house","","","","","","","","","","","","","","perceptual","","","2","28","","","","","11","house","6","0","1",""
"","","","","","","","","","","","canvas-button-response","333","837846","0.0-333.0","1482","10","","","","","","","","","","","","","","confidence","","","2","28","","","","","","","","","","20"
"","","","","","","","","","","","preload","334","837847","0.0-334.0","","","","","true","","","","","","","","","","","preload","","","2","29","false","[]","[]","[]","","","","","",""
"","","","","","","","","","","","canvas-keyboard-response","335","838149","0.0-335.0","null","null","","","","","","","","","","","","","","fixation","","","2","29","","","","","","","","","",""
"","","","","","","","","","","","canvas-keyboard-response","336","838452","0.0-336.0","null","null","","","","","","","","","","","","","","stimulus","","","2","29","","","","","","","","","",""
"","","","","","","","","","","","canvas-button-response","337","839561","0.0-337.0","1108","car","","","","","","","","","","","","","","perceptual","","","2","29","","","","","79","car","10","0","1",""
"","","","","","","","","","","","canvas-button-response","338","840729","0.0-338.0","1166","10","","","","","","","","","","","","","","confidence","","","2","29","","","","","","","","","","21"
"","","","","","","","","","","","preload","339","840730","0.0-339.0","","","","","true","","","","","","","","","","","preload","","","2","30","false","[]","[]","[]","","","","","",""
"","","","","","","","","","","","canvas-keyboard-response","340","841032","0.0-340.0","null","null","","","","","","","","","","","","","","fixation","","","2","30","","","","","","","","","",""
"","","","","","","","","","","","canvas-keyboard-response","341","841334","0.0-341.0","null","null","","","","","","","","","","","","","","stimulus","","","2","30","","","","","","","","","",""
"","","","","","","","","","","","canvas-button-response","342","842496","0.0-342.0","1159","knife","","","","","","","","","","","","","","perceptual","","","2","30","","","","","380","knife","10","0","1",""
"","","","","","","","","","","","canvas-button-response","343","843362","0.0-343.0","864","10","","","","","","","","","","","","","","confidence","","","2","30","","","","","","","","","","22"
"","","","","","","","","","","","preload","344","843363","0.0-344.0","","","","","true","","","","","","","","","","","preload","","","2","31","false","[]","[]","[]","","","","","",""
"","","","","","","","","","","","canvas-keyboard-response","345","843666","0.0-345.0","null","null","","","","","","","","","","","","","","fixation","","","2","31","","","","","","","","","",""
"","","","","","","","","","","","canvas-keyboard-response","346","843969","0.0-346.0","null","null","","","","","","","","","","","","","","stimulus","","","2","31","","","","","","","","","",""
"","","","","","","","","","","","canvas-button-response","347","845112","0.0-347.0","1142","train","","","","","","","","","","","","","","perceptual","","","2","31","","","","","259","train","6","0","1",""
"","","","","","","","","","","","canvas-button-response","348","845979","0.0-348.0","865","10","","","","","","","","","","","","","","confidence","","","2","31","","","","","","","","","","23"
"","","","","","","","","","","","preload","349","845980","0.0-349.0","","","","","true","","","","","","","","","","","preload","","","2","32","false","[]","[]","[]","","","","","",""
"","","","","","","","","","","","canvas-keyboard-response","350","846282","0.0-350.0","null","null","","","","","","","","","","","","","","fixation","","","2","32","","","","","","","","","",""
"","","","","","","","","","","","canvas-keyboard-response","351","846584","0.0-351.0","null","null","","","","","","","","","","","","","","stimulus","","","2","32","","","","","","","","","",""
"","","","","","","","","","","","canvas-button-response","352","847596","0.0-352.0","1009","knife","","","","","","","","","","","","","","perceptual","","","2","32","","","","","367","knife","6","0","1",""
"","","","","","","","","","","","canvas-button-response","353","848863","0.0-353.0","1265","10","","","","","","","","","","","","","","confidence","","","2","32","","","","","","","","","","24"
"","","","","","","","","","","","preload","354","848864","0.0-354.0","","","","","true","","","","","","","","","","","preload","","","2","33","false","[]","[]","[]","","","","","",""
"","","","","","","","","","","","canvas-keyboard-response","355","849166","0.0-355.0","null","null","","","","","","","","","","","","","","fixation","","","2","33","","","","","","","","","",""
"","","","","","","","","","","","canvas-keyboard-response","356","849468","0.0-356.0","null","null","","","","","","","","","","","","","","stimulus","","","2","33","","","","","","","","","",""
"","","","","","","","","","","","canvas-button-response","357","850712","0.0-357.0","1242","bed","","","","","","","","","","","","","","perceptual","","","2","33","","","","","145","bed","10","0","1",""
"","","","","","","","","","","","canvas-button-response","358","851446","0.0-358.0","732","9","","","","","","","","","","","","","","confidence","","","2","33","","","","","","","","","","25"
"","","","","","","","","","","","preload","359","851446","0.0-359.0","","","","","true","","","","","","","","","","","preload","","","2","34","false","[]","[]","[]","","","","","",""
"","","","","","","","","","","","canvas-keyboard-response","360","851748","0.0-360.0","null","null","","","","","","","","","","","","","","fixation","","","2","34","","","","","","","","","",""
"","","","","","","","","","","","canvas-keyboard-response","361","852051","0.0-361.0","null","null","","","","","","","","","","","","","","stimulus","","","2","34","","","","","","","","","",""
"","","","","","","","","","","","canvas-button-response","362","857177","0.0-362.0","5125","house","","","","","","","","","","","","","","perceptual","","","2","34","","","","","142","bed","10","0","0",""
"","","","","","","","","","","","canvas-button-response","363","858412","0.0-363.0","1233","1","","","","","","","","","","","","","","confidence","","","2","34","","","","","","","","","","25"
"","","","","","","","","","","","preload","364","858413","0.0-364.0","","","","","true","","","","","","","","","","","preload","","","2","35","false","[]","[]","[]","","","","","",""
"","","","","","","","","","","","canvas-keyboard-response","365","858715","0.0-365.0","null","null","","","","","","","","","","","","","","fixation","","","2","35","","","","","","","","","",""
"","","","","","","","","","","","canvas-keyboard-response","366","859017","0.0-366.0","null","null","","","","","","","","","","","","","","stimulus","","","2","35","","","","","","","","","",""
"","","","","","","","","","","","canvas-button-response","367","863862","0.0-367.0","4844","car","","","","","","","","","","","","","","perceptual","","","2","35","","","","","293","cat","6","0","0",""
"","","","","","","","","","","","canvas-button-response","368","866562","0.0-368.0","2698","0","","","","","","","","","","","","","","confidence","","","2","35","","","","","","","","","","25"
"","","","","","","","","","","","preload","369","866563","0.0-369.0","","","","","true","","","","","","","","","","","preload","","","2","36","false","[]","[]","[]","","","","","",""
"","","","","","","","","","","","canvas-keyboard-response","370","866866","0.0-370.0","null","null","","","","","","","","","","","","","","fixation","","","2","36","","","","","","","","","",""
"","","","","","","","","","","","canvas-keyboard-response","371","867169","0.0-371.0","null","null","","","","","","","","","","","","","","stimulus","","","2","36","","","","","","","","","",""
"","","","","","","","","","","","canvas-button-response","372","868445","0.0-372.0","1274","train","","","","","","","","","","","","","","perceptual","","","2","36","","","","","267","train","10","0","1",""
"","","","","","","","","","","","canvas-button-response","373","870429","0.0-373.0","1982","6","","","","","","","","","","","","","","confidence","","","2","36","","","","","","","","","","26"
"","","","","","","","","","","","preload","374","870430","0.0-374.0","","","","","true","","","","","","","","","","","preload","","","2","37","false","[]","[]","[]","","","","","",""
"","","","","","","","","","","","canvas-keyboard-response","375","870731","0.0-375.0","null","null","","","","","","","","","","","","","","fixation","","","2","37","","","","","","","","","",""
"","","","","","","","","","","","canvas-keyboard-response","376","871034","0.0-376.0","null","null","","","","","","","","","","","","","","stimulus","","","2","37","","","","","","","","","",""
"","","","","","","","","","","","canvas-button-response","377","871879","0.0-377.0","843","elephant","","","","","","","","","","","","","","perceptual","","","2","37","","","","","356","elephant","10","0","1",""
"","","","","","","","","","","","canvas-button-response","378","872562","0.0-378.0","681","10","","","","","","","","","","","","","","confidence","","","2","37","","","","","","","","","","27"
"","","","","","","","","","","","preload","379","872563","0.0-379.0","","","","","true","","","","","","","","","","","preload","","","2","38","false","[]","[]","[]","","","","","",""
"","","","","","","","","","","","canvas-keyboard-response","380","872865","0.0-380.0","null","null","","","","","","","","","","","","","","fixation","","","2","38","","","","","","","","","",""
"","","","","","","","","","","","canvas-keyboard-response","381","873167","0.0-381.0","null","null","","","","","","","","","","","","","","stimulus","","","2","38","","","","","","","","","",""
"","","","","","","","","","","","canvas-button-response","382","873945","0.0-382.0","776","elephant","","","","","","","","","","","","","","perceptual","","","2","38","","","","","335","elephant","6","0","1",""
"","","","","","","","","","","","canvas-button-response","383","874595","0.0-383.0","648","10","","","","","","","","","","","","","","confidence","","","2","38","","","","","","","","","","28"
"","","","","","","","","","","","preload","384","874596","0.0-384.0","","","","","true","","","","","","","","","","","preload","","","2","39","false","[]","[]","[]","","","","","",""
"","","","","","","","","","","","canvas-keyboard-response","385","874898","0.0-385.0","null","null","","","","","","","","","","","","","","fixation","","","2","39","","","","","","","","","",""
"","","","","","","","","","","","canvas-keyboard-response","386","875200","0.0-386.0","null","null","","","","","","","","","","","","","","stimulus","","","2","39","","","","","","","","","",""
"","","","","","","","","","","","canvas-button-response","387","879712","0.0-387.0","4510","bridge","","","","","","","","","","","","","","perceptual","","","2","39","","","","","342","elephant","10","0","0",""
"","","","","","","","","","","","canvas-button-response","388","881379","0.0-388.0","1665","1","","","","","","","","","","","","","","confidence","","","2","39","","","","","","","","","","28"
"","","","","","","","","","","","preload","389","881380","0.0-389.0","","","","","true","","","","","","","","","","","preload","","","2","40","false","[]","[]","[]","","","","","",""
"","","","","","","","","","","","canvas-keyboard-response","390","881681","0.0-390.0","null","null","","","","","","","","","","","","","","fixation","","","2","40","","","","","","","","","",""
"","","","","","","","","","","","canvas-keyboard-response","391","881984","0.0-391.0","null","null","","","","","","","","","","","","","","stimulus","","","2","40","","","","","","","","","",""
"","","","","","","","","","","","canvas-button-response","392","883228","0.0-392.0","1243","train","","","","","","","","","","","","","","perceptual","","","2","40","","","","","260","train","10","0","1",""
"","","","","","","","","","","","canvas-button-response","393","884112","0.0-393.0","882","9","","","","","","","","","","","","","","confidence","","","2","40","","","","","","","","","","29"
"","","","","","","","","","","","preload","394","884113","0.0-394.0","","","","","true","","","","","","","","","","","preload","","","2","41","false","[]","[]","[]","","","","","",""
"","","","","","","","","","","","canvas-keyboard-response","395","884415","0.0-395.0","null","null","","","","","","","","","","","","","","fixation","","","2","41","","","","","","","","","",""
"","","","","","","","","","","","canvas-keyboard-response","396","884718","0.0-396.0","null","null","","","","","","","","","","","","","","stimulus","","","2","41","","","","","","","","","",""
"","","","","","","","","","","","canvas-button-response","397","886179","0.0-397.0","1459","flower","","","","","","","","","","","","","","perceptual","","","2","41","","","","","229","flower","10","0","1",""
"","","","","","","","","","","","canvas-button-response","398","888695","0.0-398.0","2514","1","","","","","","","","","","","","","","confidence","","","2","41","","","","","","","","","","30"
"","","","","","","","","","","","preload","399","888697","0.0-399.0","","","","","true","","","","","","","","","","","preload","","","2","42","false","[]","[]","[]","","","","","",""
"","","","","","","","","","","","canvas-keyboard-response","400","888999","0.0-400.0","null","null","","","","","","","","","","","","","","fixation","","","2","42","","","","","","","","","",""
"","","","","","","","","","","","canvas-keyboard-response","401","889302","0.0-401.0","null","null","","","","","","","","","","","","","","stimulus","","","2","42","","","","","","","","","",""
"","","","","","","","","","","","canvas-button-response","402","890528","0.0-402.0","1225","bridge","","","","","","","","","","","","","","perceptual","","","2","42","","","","","163","bridge","6","0","1",""
"","","","","","","","","","","","canvas-button-response","403","891828","0.0-403.0","1298","10","","","","","","","","","","","","","","confidence","","","2","42","","","","","","","","","","31"
"","","","","","","","","","","","preload","404","891829","0.0-404.0","","","","","true","","","","","","","","","","","preload","","","2","43","false","[]","[]","[]","","","","","",""
"","","","","","","","","","","","canvas-keyboard-response","405","892132","0.0-405.0","null","null","","","","","","","","","","","","","","fixation","","","2","43","","","","","","","","","",""
"","","","","","","","","","","","canvas-keyboard-response","406","892434","0.0-406.0","null","null","","","","","","","","","","","","","","stimulus","","","2","43","","","","","","","","","",""
"","","","","","","","","","","","canvas-button-response","407","899795","0.0-407.0","7359","flower","","","","","","","","","","","","","","perceptual","","","2","43","","","","","34","house","10","0","0",""
"","","","","","","","","","","","canvas-button-response","408","902795","0.0-408.0","2998","1","","","","","","","","","","","","","","confidence","","","2","43","","","","","","","","","","31"
"","","","","","","","","","","","preload","409","902796","0.0-409.0","","","","","true","","","","","","","","","","","preload","","","2","44","false","[]","[]","[]","","","","","",""
"","","","","","","","","","","","canvas-keyboard-response","410","903099","0.0-410.0","null","null","","","","","","","","","","","","","","fixation","","","2","44","","","","","","","","","",""
"","","","","","","","","","","","canvas-keyboard-response","411","903403","0.0-411.0","null","null","","","","","","","","","","","","","","stimulus","","","2","44","","","","","","","","","",""
"","","","","","","","","","","","canvas-button-response","412","904495","0.0-412.0","1091","elephant","","","","","","","","","","","","","","perceptual","","","2","44","","","","","339","elephant","6","0","1",""
"","","","","","","","","","","","canvas-button-response","413","905195","0.0-413.0","698","10","","","","","","","","","","","","","","confidence","","","2","44","","","","","","","","","","32"
"","","","","","","","","","","","preload","414","905196","0.0-414.0","","","","","true","","","","","","","","","","","preload","","","2","45","false","[]","[]","[]","","","","","",""
"","","","","","","","","","","","canvas-keyboard-response","415","905498","0.0-415.0","null","null","","","","","","","","","","","","","","fixation","","","2","45","","","","","","","","","",""
"","","","","","","","","","","","canvas-keyboard-response","416","905801","0.0-416.0","null","null","","","","","","","","","","","","","","stimulus","","","2","45","","","","","","","","","",""
"","","","","","","","","","","","canvas-button-response","417","906828","0.0-417.0","1026","cat","","","","","","","","","","","","","","perceptual","","","2","45","","","","","297","cat","6","0","1",""
"","","","","","","","","","","","canvas-button-response","418","907695","0.0-418.0","865","10","","","","","","","","","","","","","","confidence","","","2","45","","","","","","","","","","33"
"","","","","","","","","","","","preload","419","907696","0.0-419.0","","","","","true","","","","","","","","","","","preload","","","2","46","false","[]","[]","[]","","","","","",""
"","","","","","","","","","","","canvas-keyboard-response","420","907998","0.0-420.0","null","null","","","","","","","","","","","","","","fixation","","","2","46","","","","","","","","","",""
"","","","","","","","","","","","canvas-keyboard-response","421","908301","0.0-421.0","null","null","","","","","","","","","","","","","","stimulus","","","2","46","","","","","","","","","",""
"","","","","","","","","","","","canvas-button-response","422","909362","0.0-422.0","1059","flower","","","","","","","","","","","","","","perceptual","","","2","46","","","","","224","flower","10","0","1",""
"","","","","","","","","","","","canvas-button-response","423","910979","0.0-423.0","1615","9","","","","","","","","","","","","","","confidence","","","2","46","","","","","","","","","","34"
"","","","","","","","","","","","preload","424","910980","0.0-424.0","","","","","true","","","","","","","","","","","preload","","","2","47","false","[]","[]","[]","","","","","",""
"","","","","","","","","","","","canvas-keyboard-response","425","911281","0.0-425.0","null","null","","","","","","","","","","","","","","fixation","","","2","47","","","","","","","","","",""
"","","","","","","","","","","","canvas-keyboard-response","426","911584","0.0-426.0","null","null","","","","","","","","","","","","","","stimulus","","","2","47","","","","","","","","","",""
"","","","","","","","","","","","canvas-button-response","427","912878","0.0-427.0","1292","cat","","","","","","","","","","","","","","perceptual","","","2","47","","","","","307","cat","10","0","1",""
"","","","","","","","","","","","canvas-button-response","428","913645","0.0-428.0","766","10","","","","","","","","","","","","","","confidence","","","2","47","","","","","","","","","","35"
"","","","","","","","","","","","preload","429","913646","0.0-429.0","","","","","true","","","","","","","","","","","preload","","","2","48","false","[]","[]","[]","","","","","",""
"","","","","","","","","","","","canvas-keyboard-response","430","913949","0.0-430.0","null","null","","","","","","","","","","","","","","fixation","","","2","48","","","","","","","","","",""
"","","","","","","","","","","","canvas-keyboard-response","431","914251","0.0-431.0","null","null","","","","","","","","","","","","","","stimulus","","","2","48","","","","","","","","","",""
"","","","","","","","","","","","canvas-button-response","432","917345","0.0-432.0","3092","car","","","","","","","","","","","","","","perceptual","","","2","48","","","","","38","house","10","0","0",""
"","","","","","","","","","","","canvas-button-response","433","918445","0.0-433.0","1098","1","","","","","","","","","","","","","","confidence","","","2","48","","","","","","","","","","35"
"","","","","","","","","","","","preload","434","918446","0.0-434.0","","","","","true","","","","","","","","","","","preload","","","2","49","false","[]","[]","[]","","","","","",""
"","","","","","","","","","","","canvas-keyboard-response","435","918748","0.0-435.0","null","null","","","","","","","","","","","","","","fixation","","","2","49","","","","","","","","","",""
"","","","","","","","","","","","canvas-keyboard-response","436","919051","0.0-436.0","null","null","","","","","","","","","","","","","","stimulus","","","2","49","","","","","","","","","",""
"","","","","","","","","","","","canvas-button-response","437","920279","0.0-437.0","1226","car","","","","","","","","","","","","","","perceptual","","","2","49","","","","","47","car","6","0","1",""
"","","","","","","","","","","","canvas-button-response","438","921279","0.0-438.0","998","10","","","","","","","","","","","","","","confidence","","","2","49","","","","","","","","","","36"
"","","","","","","","","","","","html-button-response","439","1030046","0.0-439.0","108766","0","","","","","","","","","","","","","","<p style=""font-size:20px;color:#000000"">You got 36 out of 50 trials correct in this block.<br><br>You have completed 6% of the experiment.<br><br>Take a short break.<br><br>When you are ready, click Continue to proceed.","","","2","49","","","","","","","","","",""
"","","","","","","","","","","","html-keyboard-response","440","1031048","0.0-440.0","null","null","","","","","","","","","","","","","","<p style=""font-size:32px;color:#000000""><br><br> RUN: &nbsp 1/4 <br><br> BLOCK: 2/4 ","","","2","49","","","","","","","","","",""
"","","","","","","","","","","","preload","441","1031049","0.0-441.0","","","","","true","","","","","","","","","","","preload","","","2","50","false","[]","[]","[]","","","","","",""
"","","","","","","","","","","","canvas-keyboard-response","442","1031352","0.0-442.0","null","null","","","","","","","","","","","","","","fixation","","","2","50","","","","","","","","","",""
"","","","","","","","","","","","canvas-keyboard-response","443","1031655","0.0-443.0","null","null","","","","","","","","","","","","","","stimulus","","","2","50","","","","","","","","","",""
"","","","","","","","","","","","canvas-button-response","444","1033678","0.0-444.0","2020","train","","","","","","","","","","","","","","perceptual","","","2","50","","","","","1","house","6","0","0",""
"","","","","","","","","","","","canvas-button-response","445","1034894","0.0-445.0","1214","3","","","","","","","","","","","","","","confidence","","","2","50","","","","","","","","","","0"
"","","","","","","","","","","","preload","446","1034894","0.0-446.0","","","","","true","","","","","","","","","","","preload","","","2","51","false","[]","[]","[]","","","","","",""
"","","","","","","","","","","","canvas-keyboard-response","447","1035197","0.0-447.0","null","null","","","","","","","","","","","","","","fixation","","","2","51","","","","","","","","","",""
"","","","","","","","","","","","canvas-keyboard-response","448","1035500","0.0-448.0","null","null","","","","","","","","","","","","","","stimulus","","","2","51","","","","","","","","","",""
"","","","","","","","","","","","canvas-button-response","449","1037444","0.0-449.0","1943","car","","","","","","","","","","","","","","perceptual","","","2","51","","","","","103","phone","10","0","0",""
"","","","","","","","","","","","canvas-button-response","450","1038278","0.0-450.0","832","1","","","","","","","","","","","","","","confidence","","","2","51","","","","","","","","","","0"
"","","","","","","","","","","","preload","451","1038279","0.0-451.0","","","","","true","","","","","","","","","","","preload","","","2","52","false","[]","[]","[]","","","","","",""
"","","","","","","","","","","","canvas-keyboard-response","452","1038581","0.0-452.0","null","null","","","","","","","","","","","","","","fixation","","","2","52","","","","","","","","","",""
"","","","","","","","","","","","canvas-keyboard-response","453","1038884","0.0-453.0","null","null","","","","","","","","","","","","","","stimulus","","","2","52","","","","","","","","","",""
"","","","","","","","","","","","canvas-button-response","454","1040228","0.0-454.0","1341","elephant","","","","","","","","","","","","","","perceptual","","","2","52","","","","","355","elephant","10","0","1",""
"","","","","","","","","","","","canvas-button-response","455","1041294","0.0-455.0","1064","6","","","","","","","","","","","","","","confidence","","","2","52","","","","","","","","","","1"
"","","","","","","","","","","","preload","456","1041295","0.0-456.0","","","","","true","","","","","","","","","","","preload","","","2","53","false","[]","[]","[]","","","","","",""
"","","","","","","","","","","","canvas-keyboard-response","457","1041597","0.0-457.0","null","null","","","","","","","","","","","","","","fixation","","","2","53","","","","","","","","","",""
"","","","","","","","","","","","canvas-keyboard-response","458","1041900","0.0-458.0","null","null","","","","","","","","","","","","","","stimulus","","","2","53","","","","","","","","","",""
"","","","","","","","","","","","canvas-button-response","459","1043144","0.0-459.0","1242","car","","","","","","","","","","","","","","perceptual","","","2","53","","","","","42","car","6","0","1",""
"","","","","","","","","","","","canvas-button-response","460","1044528","0.0-460.0","1381","9","","","","","","","","","","","","","","confidence","","","2","53","","","","","","","","","","2"
"","","","","","","","","","","","preload","461","1044529","0.0-461.0","","","","","true","","","","","","","","","","","preload","","","2","54","false","[]","[]","[]","","","","","",""
"","","","","","","","","","","","canvas-keyboard-response","462","1044831","0.0-462.0","null","null","","","","","","","","","","","","","","fixation","","","2","54","","","","","","","","","",""
"","","","","","","","","","","","canvas-keyboard-response","463","1045133","0.0-463.0","null","null","","","","","","","","","","","","","","stimulus","","","2","54","","","","","","","","","",""
"","","","","","","","","","","","canvas-button-response","464","1049578","0.0-464.0","4443","elephant","","","","","","","","","","","","","","perceptual","","","2","54","","","","","309","cat","10","0","0",""
"","","","","","","","","","","","canvas-button-response","465","1051461","0.0-465.0","1882","3","","","","","","","","","","","","","","confidence","","","2","54","","","","","","","","","","2"
"","","","","","","","","","","","preload","466","1051462","0.0-466.0","","","","","true","","","","","","","","","","","preload","","","2","55","false","[]","[]","[]","","","","","",""
"","","","","","","","","","","","canvas-keyboard-response","467","1051764","0.0-467.0","null","null","","","","","","","","","","","","","","fixation","","","2","55","","","","","","","","","",""
"","","","","","","","","","","","canvas-keyboard-response","468","1052067","0.0-468.0","null","null","","","","","","","","","","","","","","stimulus","","","2","55","","","","","","","","","",""
"","","","","","","","","","","","canvas-button-response","469","1052894","0.0-469.0","825","car","","","","","","","","","","","","","","perceptual","","","2","55","","","","","49","car","6","0","1",""
"","","","","","","","","","","","canvas-button-response","470","1053878","0.0-470.0","982","10","","","","","","","","","","","","","","confidence","","","2","55","","","","","","","","","","3"
"","","","","","","","","","","","preload","471","1053879","0.0-471.0","","","","","true","","","","","","","","","","","preload","","","2","56","false","[]","[]","[]","","","","","",""
"","","","","","","","","","","","canvas-keyboard-response","472","1054181","0.0-472.0","null","null","","","","","","","","","","","","","","fixation","","","2","56","","","","","","","","","",""
"","","","","","","","","","","","canvas-keyboard-response","473","1054483","0.0-473.0","null","null","","","","","","","","","","","","","","stimulus","","","2","56","","","","","","","","","",""
"","","","","","","","","","","","canvas-button-response","474","1055844","0.0-474.0","1359","bridge","","","","","","","","","","","","","","perceptual","","","2","56","","","","","172","bridge","6","0","1",""
"","","","","","","","","","","","canvas-button-response","475","1056811","0.0-475.0","965","9","","","","","","","","","","","","","","confidence","","","2","56","","","","","","","","","","4"
"","","","","","","","","","","","preload","476","1056812","0.0-476.0","","","","","true","","","","","","","","","","","preload","","","2","57","false","[]","[]","[]","","","","","",""
"","","","","","","","","","","","canvas-keyboard-response","477","1057115","0.0-477.0","null","null","","","","","","","","","","","","","","fixation","","","2","57","","","","","","","","","",""
"","","","","","","","","","","","canvas-keyboard-response","478","1057417","0.0-478.0","null","null","","","","","","","","","","","","","","stimulus","","","2","57","","","","","","","","","",""
"","","","","","","","","","","","canvas-button-response","479","1062944","0.0-479.0","5524","knife","","","","","","","","","","","","","","perceptual","","","2","57","","","","","362","knife","6","0","1",""
"","","","","","","","","","","","canvas-button-response","480","1063911","0.0-480.0","965","0","","","","","","","","","","","","","","confidence","","","2","57","","","","","","","","","","5"
"","","","","","","","","","","","preload","481","1063912","0.0-481.0","","","","","true","","","","","","","","","","","preload","","","2","58","false","[]","[]","[]","","","","","",""
"","","","","","","","","","","","canvas-keyboard-response","482","1064214","0.0-482.0","null","null","","","","","","","","","","","","","","fixation","","","2","58","","","","","","","","","",""
"","","","","","","","","","","","canvas-keyboard-response","483","1064517","0.0-483.0","null","null","","","","","","","","","","","","","","stimulus","","","2","58","","","","","","","","","",""
"","","","","","","","","","","","canvas-button-response","484","1065427","0.0-484.0","908","car","","","","","","","","","","","","","","perceptual","","","2","58","","","","","58","car","6","0","1",""
"","","","","","","","","","","","canvas-button-response","485","1066378","0.0-485.0","948","10","","","","","","","","","","","","","","confidence","","","2","58","","","","","","","","","","6"
"","","","","","","","","","","","preload","486","1066379","0.0-486.0","","","","","true","","","","","","","","","","","preload","","","2","59","false","[]","[]","[]","","","","","",""
"","","","","","","","","","","","canvas-keyboard-response","487","1066681","0.0-487.0","null","null","","","","","","","","","","","","","","fixation","","","2","59","","","","","","","","","",""
"","","","","","","","","","","","canvas-keyboard-response","488","1066983","0.0-488.0","null","null","","","","","","","","","","","","","","stimulus","","","2","59","","","","","","","","","",""
"","","","","","","","","","","","canvas-button-response","489","1067977","0.0-489.0","992","car","","","","","","","","","","","","","","perceptual","","","2","59","","","","","51","car","6","0","1",""
"","","","","","","","","","","","canvas-button-response","490","1069194","0.0-490.0","1215","9","","","","","","","","","","","","","","confidence","","","2","59","","","","","","","","","","7"
"","","","","","","","","","","","preload","491","1069195","0.0-491.0","","","","","true","","","","","","","","","","","preload","","","2","60","false","[]","[]","[]","","","","","",""
