"width","height","webaudio","browser","browser_version","mobile","os","fullscreen","vsync_rate","webcam","microphone","trial_type","trial_index","time_elapsed","internal_node_id","rt","response","accuracy","view_history","success","item_width_mm","item_height_mm","item_width_px","px2mm","view_dist_mm","item_width_deg","px2deg","scale_factor","win_width_deg","win_height_deg","stimulus","datetime","subjectID","curr_triallist","trial_no","timeout","failed_images","failed_audio","failed_video","image_index","category","blur","reps","correct","running_score"
"1470","831","true","chrome","140.0.0","false","Mac OS","true","60.2","true","true","browser-check","0","998","0.0-0.0","","","","","","","","","","","","","","","","","","","","","","","","","","","","","",""
"","","","","","","","","","","","survey","1","30608","0.0-1.0","29605","{""P0_Q0"":""904185048"",""P0_Q1"":""21"",""P1_Q0"":""Female"",""P1_Q1"":""Not Hispanic or Latino"",""P1_Q2"":""Asian"",""P1_Q3"":""Corrected-to-Normal (using glasses/contacts)"",""P1_Q4"":""Right-Handed""}","[]","","","","","","","","","","","","","","","","","","","","","","","","","","",""
"","","","","","","","","","","","instructions","2","109220","0.0-2.0","78618","","","[{""page_index"":0,""viewing_time"":13368},{""page_index"":1,""viewing_time"":24534},{""page_index"":2,""viewing_time"":30099},{""page_index"":3,""viewing_time"":10616}]","","","","","","","","","","","","","","","","","","","","","","","","","",""
"","","","","","","","","","","","fullscreen","3","112105","0.0-3.0","1882","","","","true","","","","","","","","","","","","","","","","","","","","","","","","",""
"","","","","","","","","","","","virtual-chinrest","4","267690","0.0-4.0","155585","","","","","85.6","53.98","145.38319806526346","1.6972643122967963","1011.45","4.846106602175448","30","2.957700791579576","49","30.633333333333333","","","","","","","","","","","","","","",""
"","","","","","","","","","","","instructions","5","380464","0.0-5.0","112775","","","[{""page_index"":0,""viewing_time"":14757},{""page_index"":1,""viewing_time"":20134},{""page_index"":2,""viewing_time"":38050},{""page_index"":3,""viewing_time"":11701},{""page_index"":4,""viewing_time"":11500},{""page_index"":5,""viewing_time"":13032},{""page_index"":6,""viewing_time"":3601}]","","","","","","","","","","","","","","","","","","","","","","","","","",""
"","","","","","","","","","","","html-button-response","6","384315","0.0-6.0","3847","0","","","","","","","","","","","","","","start_practice","Tue Oct 14 2025 20:56:35 GMT-0400 (북미 동부 하계 표준시)","27390","","","","","","","","","","","",""
"","","","","","","","","","","","preload","7","384316","0.0-7.0","","","","","true","","","","","","","","","","","preload","","","0","0","false","[]","[]","[]","","","","","",""
"","","","","","","","","","","","canvas-keyboard-response","8","384618","0.0-8.0","null","null","","","","","","","","","","","","","","fixation","","","0","0","","","","","","","","","",""
"","","","","","","","","","","","canvas-keyboard-response","9","384921","0.0-9.0","null","null","","","","","","","","","","","","","","stimulus","","","0","0","","","","","","","","","",""
"","","","","","","","","","","","canvas-button-response","10","390214","0.0-10.0","5289","house","","","","","","","","","","","","","","perceptual","","","0","0","","","","","52","flower","1","","0",""
"","","","","","","","","","","","canvas-button-response","11","392414","0.0-11.0","2197","4","","","","","","","","","","","","","","confidence","","","0","0","","","","","","","","","","0"
"","","","","","","","","","","","html-keyboard-response","12","393416","0.0-12.0","null","null","","","","","","","","","","","","","","feedback","Tue Oct 14 2025 20:56:47 GMT-0400 (북미 동부 하계 표준시)","27390","0","0","","","","","","","","","",""
"","","","","","","","","","","","preload","13","393417","0.0-13.0","","","","","true","","","","","","","","","","","preload","","","0","1","false","[]","[]","[]","","","","","",""
"","","","","","","","","","","","canvas-keyboard-response","14","393719","0.0-14.0","null","null","","","","","","","","","","","","","","fixation","","","0","1","","","","","","","","","",""
"","","","","","","","","","","","canvas-keyboard-response","15","394022","0.0-15.0","null","null","","","","","","","","","","","","","","stimulus","","","0","1","","","","","","","","","",""
"","","","","","","","","","","","canvas-button-response","16","396281","0.0-16.0","2258","phone","","","","","","","","","","","","","","perceptual","","","0","1","","","","","22","phone","1","","1",""
"","","","","","","","","","","","canvas-button-response","17","397348","0.0-17.0","1064","10","","","","","","","","","","","","","","confidence","","","0","1","","","","","","","","","","1"
"","","","","","","","","","","","html-keyboard-response","18","398350","0.0-18.0","null","null","","","","","","","","","","","","","","feedback","Tue Oct 14 2025 20:56:52 GMT-0400 (북미 동부 하계 표준시)","27390","0","1","","","","","","","","","",""
"","","","","","","","","","","","preload","19","398351","0.0-19.0","","","","","true","","","","","","","","","","","preload","","","0","2","false","[]","[]","[]","","","","","",""
"","","","","","","","","","","","canvas-keyboard-response","20","398653","0.0-20.0","null","null","","","","","","","","","","","","","","fixation","","","0","2","","","","","","","","","",""
"","","","","","","","","","","","canvas-keyboard-response","21","398955","0.0-21.0","null","null","","","","","","","","","","","","","","stimulus","","","0","2","","","","","","","","","",""
"","","","","","","","","","","","canvas-button-response","22","400448","0.0-22.0","1491","bridge","","","","","","","","","","","","","","perceptual","","","0","2","","","","","42","bridge","1","","1",""
"","","","","","","","","","","","canvas-button-response","23","401647","0.0-23.0","1196","10","","","","","","","","","","","","","","confidence","","","0","2","","","","","","","","","","2"
"","","","","","","","","","","","html-keyboard-response","24","402649","0.0-24.0","null","null","","","","","","","","","","","","","","feedback","Tue Oct 14 2025 20:56:56 GMT-0400 (북미 동부 하계 표준시)","27390","0","2","","","","","","","","","",""
"","","","","","","","","","","","preload","25","402650","0.0-25.0","","","","","true","","","","","","","","","","","preload","","","0","3","false","[]","[]","[]","","","","","",""
"","","","","","","","","","","","canvas-keyboard-response","26","402953","0.0-26.0","null","null","","","","","","","","","","","","","","fixation","","","0","3","","","","","","","","","",""
"","","","","","","","","","","","canvas-keyboard-response","27","403256","0.0-27.0","null","null","","","","","","","","","","","","","","stimulus","","","0","3","","","","","","","","","",""
"","","","","","","","","","","","canvas-button-response","28","404297","0.0-28.0","1039","cat","","","","","","","","","","","","","","perceptual","","","0","3","","","","","72","cat","1","","1",""
"","","","","","","","","","","","canvas-button-response","29","405214","0.0-29.0","915","10","","","","","","","","","","","","","","confidence","","","0","3","","","","","","","","","","3"
"","","","","","","","","","","","html-keyboard-response","30","406216","0.0-30.0","null","null","","","","","","","","","","","","","","feedback","Tue Oct 14 2025 20:57:00 GMT-0400 (북미 동부 하계 표준시)","27390","0","3","","","","","","","","","",""
"","","","","","","","","","","","preload","31","406217","0.0-31.0","","","","","true","","","","","","","","","","","preload","","","0","4","false","[]","[]","[]","","","","","",""
"","","","","","","","","","","","canvas-keyboard-response","32","406520","0.0-32.0","null","null","","","","","","","","","","","","","","fixation","","","0","4","","","","","","","","","",""
"","","","","","","","","","","","canvas-keyboard-response","33","406822","0.0-33.0","null","null","","","","","","","","","","","","","","stimulus","","","0","4","","","","","","","","","",""
"","","","","","","","","","","","canvas-button-response","34","408214","0.0-34.0","1389","bed","","","","","","","","","","","","","","perceptual","","","0","4","","","","","32","bed","1","","1",""
"","","","","","","","","","","","canvas-button-response","35","409364","0.0-35.0","1148","10","","","","","","","","","","","","","","confidence","","","0","4","","","","","","","","","","4"
"","","","","","","","","","","","html-keyboard-response","36","410367","0.0-36.0","null","null","","","","","","","","","","","","","","feedback","Tue Oct 14 2025 20:57:04 GMT-0400 (북미 동부 하계 표준시)","27390","0","4","","","","","","","","","",""
"","","","","","","","","","","","preload","37","410368","0.0-37.0","","","","","true","","","","","","","","","","","preload","","","0","5","false","[]","[]","[]","","","","","",""
"","","","","","","","","","","","canvas-keyboard-response","38","410670","0.0-38.0","null","null","","","","","","","","","","","","","","fixation","","","0","5","","","","","","","","","",""
"","","","","","","","","","","","canvas-keyboard-response","39","410973","0.0-39.0","null","null","","","","","","","","","","","","","","stimulus","","","0","5","","","","","","","","","",""
"","","","","","","","","","","","canvas-button-response","40","414531","0.0-40.0","3555","car","","","","","","","","","","","","","","perceptual","","","0","5","","","","","12","car","1","","1",""
"","","","","","","","","","","","canvas-button-response","41","415281","0.0-41.0","747","10","","","","","","","","","","","","","","confidence","","","0","5","","","","","","","","","","5"
"","","","","","","","","","","","html-keyboard-response","42","416285","0.0-42.0","null","null","","","","","","","","","","","","","","feedback","Tue Oct 14 2025 20:57:10 GMT-0400 (북미 동부 하계 표준시)","27390","0","5","","","","","","","","","",""
"","","","","","","","","","","","preload","43","416286","0.0-43.0","","","","","true","","","","","","","","","","","preload","","","0","6","false","[]","[]","[]","","","","","",""
"","","","","","","","","","","","canvas-keyboard-response","44","416589","0.0-44.0","null","null","","","","","","","","","","","","","","fixation","","","0","6","","","","","","","","","",""
"","","","","","","","","","","","canvas-keyboard-response","45","416892","0.0-45.0","null","null","","","","","","","","","","","","","","stimulus","","","0","6","","","","","","","","","",""
"","","","","","","","","","","","canvas-button-response","46","418248","0.0-46.0","1353","house","","","","","","","","","","","","","","perceptual","","","0","6","","","","","2","house","1","","1",""
"","","","","","","","","","","","canvas-button-response","47","419981","0.0-47.0","1730","9","","","","","","","","","","","","","","confidence","","","0","6","","","","","","","","","","6"
"","","","","","","","","","","","html-keyboard-response","48","420982","0.0-48.0","null","null","","","","","","","","","","","","","","feedback","Tue Oct 14 2025 20:57:15 GMT-0400 (북미 동부 하계 표준시)","27390","0","6","","","","","","","","","",""
"","","","","","","","","","","","preload","49","420983","0.0-49.0","","","","","true","","","","","","","","","","","preload","","","0","7","false","[]","[]","[]","","","","","",""
"","","","","","","","","","","","canvas-keyboard-response","50","421285","0.0-50.0","null","null","","","","","","","","","","","","","","fixation","","","0","7","","","","","","","","","",""
"","","","","","","","","","","","canvas-keyboard-response","51","421589","0.0-51.0","null","null","","","","","","","","","","","","","","stimulus","","","0","7","","","","","","","","","",""
"","","","","","","","","","","","canvas-button-response","52","423012","0.0-52.0","1421","train","","","","","","","","","","","","","","perceptual","","","0","7","","","","","62","train","1","","1",""
"","","","","","","","","","","","canvas-button-response","53","424180","0.0-53.0","1166","10","","","","","","","","","","","","","","confidence","","","0","7","","","","","","","","","","7"
"","","","","","","","","","","","html-keyboard-response","54","425182","0.0-54.0","null","null","","","","","","","","","","","","","","feedback","Tue Oct 14 2025 20:57:19 GMT-0400 (북미 동부 하계 표준시)","27390","0","7","","","","","","","","","",""
"","","","","","","","","","","","preload","55","425183","0.0-55.0","","","","","true","","","","","","","","","","","preload","","","0","8","false","[]","[]","[]","","","","","",""
"","","","","","","","","","","","canvas-keyboard-response","56","425486","0.0-56.0","null","null","","","","","","","","","","","","","","fixation","","","0","8","","","","","","","","","",""
"","","","","","","","","","","","canvas-keyboard-response","57","425789","0.0-57.0","null","null","","","","","","","","","","","","","","stimulus","","","0","8","","","","","","","","","",""
"","","","","","","","","","","","canvas-button-response","58","426980","0.0-58.0","1189","knife","","","","","","","","","","","","","","perceptual","","","0","8","","","","","92","knife","1","","1",""
"","","","","","","","","","","","canvas-button-response","59","428615","0.0-59.0","1631","6","","","","","","","","","","","","","","confidence","","","0","8","","","","","","","","","","8"
"","","","","","","","","","","","html-keyboard-response","60","429618","0.0-60.0","null","null","","","","","","","","","","","","","","feedback","Tue Oct 14 2025 20:57:23 GMT-0400 (북미 동부 하계 표준시)","27390","0","8","","","","","","","","","",""
"","","","","","","","","","","","preload","61","429619","0.0-61.0","","","","","true","","","","","","","","","","","preload","","","0","9","false","[]","[]","[]","","","","","",""
"","","","","","","","","","","","canvas-keyboard-response","62","429922","0.0-62.0","null","null","","","","","","","","","","","","","","fixation","","","0","9","","","","","","","","","",""
"","","","","","","","","","","","canvas-keyboard-response","63","430225","0.0-63.0","null","null","","","","","","","","","","","","","","stimulus","","","0","9","","","","","","","","","",""
"","","","","","","","","","","","canvas-button-response","64","432580","0.0-64.0","2352","elephant","","","","","","","","","","","","","","perceptual","","","0","9","","","","","82","elephant","1","","1",""
"","","","","","","","","","","","canvas-button-response","65","433397","0.0-65.0","814","10","","","","","","","","","","","","","","confidence","","","0","9","","","","","","","","","","9"
"","","","","","","","","","","","html-keyboard-response","66","434400","0.0-66.0","null","null","","","","","","","","","","","","","","feedback","Tue Oct 14 2025 20:57:28 GMT-0400 (북미 동부 하계 표준시)","27390","0","9","","","","","","","","","",""
"","","","","","","","","","","","html-button-response","67","441330","0.0-67.0","6929","0","","","","","","","","","","","","","","start_practice","Tue Oct 14 2025 20:57:29 GMT-0400 (북미 동부 하계 표준시)","27390","0","9","","","","","","","","","",""
"","","","","","","","","","","","preload","68","441331","0.0-68.0","","","","","true","","","","","","","","","","","preload","","","1","0","false","[]","[]","[]","","","","","",""
"","","","","","","","","","","","canvas-keyboard-response","69","441634","0.0-69.0","null","null","","","","","","","","","","","","","","fixation","","","1","0","","","","","","","","","",""
"","","","","","","","","","","","canvas-keyboard-response","70","441936","0.0-70.0","null","null","","","","","","","","","","","","","","stimulus","","","1","0","","","","","","","","","",""
"","","","","","","","","","","","canvas-button-response","71","443579","0.0-71.0","1641","car","","","","","","","","","","","","","","perceptual","","","1","0","","","","","47","bridge","10","","0",""
"","","","","","","","","","","","canvas-button-response","72","444897","0.0-72.0","1316","4","","","","","","","","","","","","","","confidence","","","1","0","","","","","","","","","","0"
"","","","","","","","","","","","html-keyboard-response","73","445900","0.0-73.0","null","null","","","","","","","","","","","","","","feedback","Tue Oct 14 2025 20:57:40 GMT-0400 (북미 동부 하계 표준시)","27390","1","0","","","","","","","","","",""
"","","","","","","","","","","","preload","74","445901","0.0-74.0","","","","","true","","","","","","","","","","","preload","","","1","1","false","[]","[]","[]","","","","","",""
"","","","","","","","","","","","canvas-keyboard-response","75","446203","0.0-75.0","null","null","","","","","","","","","","","","","","fixation","","","1","1","","","","","","","","","",""
"","","","","","","","","","","","canvas-keyboard-response","76","446507","0.0-76.0","null","null","","","","","","","","","","","","","","stimulus","","","1","1","","","","","","","","","",""
"","","","","","","","","","","","canvas-button-response","77","448845","0.0-77.0","2336","elephant","","","","","","","","","","","","","","perceptual","","","1","1","","","","","84","elephant","6","","1",""
"","","","","","","","","","","","canvas-button-response","78","450379","0.0-78.0","1532","10","","","","","","","","","","","","","","confidence","","","1","1","","","","","","","","","","1"
"","","","","","","","","","","","html-keyboard-response","79","451383","0.0-79.0","null","null","","","","","","","","","","","","","","feedback","Tue Oct 14 2025 20:57:45 GMT-0400 (북미 동부 하계 표준시)","27390","1","1","","","","","","","","","",""
"","","","","","","","","","","","preload","80","451384","0.0-80.0","","","","","true","","","","","","","","","","","preload","","","1","2","false","[]","[]","[]","","","","","",""
"","","","","","","","","","","","canvas-keyboard-response","81","451686","0.0-81.0","null","null","","","","","","","","","","","","","","fixation","","","1","2","","","","","","","","","",""
"","","","","","","","","","","","canvas-keyboard-response","82","451989","0.0-82.0","null","null","","","","","","","","","","","","","","stimulus","","","1","2","","","","","","","","","",""
"","","","","","","","","","","","canvas-button-response","83","453547","0.0-83.0","1555","bed","","","","","","","","","","","","","","perceptual","","","1","2","","","","","34","bed","6","","1",""
"","","","","","","","","","","","canvas-button-response","84","454546","0.0-84.0","997","10","","","","","","","","","","","","","","confidence","","","1","2","","","","","","","","","","2"
"","","","","","","","","","","","html-keyboard-response","85","455550","0.0-85.0","null","null","","","","","","","","","","","","","","feedback","Tue Oct 14 2025 20:57:49 GMT-0400 (북미 동부 하계 표준시)","27390","1","2","","","","","","","","","",""
"","","","","","","","","","","","preload","86","455551","0.0-86.0","","","","","true","","","","","","","","","","","preload","","","1","3","false","[]","[]","[]","","","","","",""
"","","","","","","","","","","","canvas-keyboard-response","87","455854","0.0-87.0","null","null","","","","","","","","","","","","","","fixation","","","1","3","","","","","","","","","",""
"","","","","","","","","","","","canvas-keyboard-response","88","456157","0.0-88.0","null","null","","","","","","","","","","","","","","stimulus","","","1","3","","","","","","","","","",""
"","","","","","","","","","","","canvas-button-response","89","458079","0.0-89.0","1920","car","","","","","","","","","","","","","","perceptual","","","1","3","","","","","14","car","6","","1",""
"","","","","","","","","","","","canvas-button-response","90","460295","0.0-90.0","2214","4","","","","","","","","","","","","","","confidence","","","1","3","","","","","","","","","","3"
"","","","","","","","","","","","html-keyboard-response","91","461299","0.0-91.0","null","null","","","","","","","","","","","","","","feedback","Tue Oct 14 2025 20:57:55 GMT-0400 (북미 동부 하계 표준시)","27390","1","3","","","","","","","","","",""
"","","","","","","","","","","","preload","92","461300","0.0-92.0","","","","","true","","","","","","","","","","","preload","","","1","4","false","[]","[]","[]","","","","","",""
"","","","","","","","","","","","canvas-keyboard-response","93","461602","0.0-93.0","null","null","","","","","","","","","","","","","","fixation","","","1","4","","","","","","","","","",""
"","","","","","","","","","","","canvas-keyboard-response","94","461905","0.0-94.0","null","null","","","","","","","","","","","","","","stimulus","","","1","4","","","","","","","","","",""
"","","","","","","","","","","","canvas-button-response","95","462730","0.0-95.0","822","knife","","","","","","","","","","","","","","perceptual","","","1","4","","","","","97","knife","10","","1",""
"","","","","","","","","","","","canvas-button-response","96","463447","0.0-96.0","715","10","","","","","","","","","","","","","","confidence","","","1","4","","","","","","","","","","4"
"","","","","","","","","","","","html-keyboard-response","97","464449","0.0-97.0","null","null","","","","","","","","","","","","","","feedback","Tue Oct 14 2025 20:57:58 GMT-0400 (북미 동부 하계 표준시)","27390","1","4","","","","","","","","","",""
"","","","","","","","","","","","preload","98","464450","0.0-98.0","","","","","true","","","","","","","","","","","preload","","","1","5","false","[]","[]","[]","","","","","",""
"","","","","","","","","","","","canvas-keyboard-response","99","464753","0.0-99.0","null","null","","","","","","","","","","","","","","fixation","","","1","5","","","","","","","","","",""
"","","","","","","","","","","","canvas-keyboard-response","100","465056","0.0-100.0","null","null","","","","","","","","","","","","","","stimulus","","","1","5","","","","","","","","","",""
"","","","","","","","","","","","canvas-button-response","101","472112","0.0-101.0","7054","knife","","","","","","","","","","","","","","perceptual","","","1","5","","","","","77","cat","10","","0",""
"","","","","","","","","","","","canvas-button-response","102","473913","0.0-102.0","1799","1","","","","","","","","","","","","","","confidence","","","1","5","","","","","","","","","","4"
"","","","","","","","","","","","html-keyboard-response","103","474915","0.0-103.0","null","null","","","","","","","","","","","","","","feedback","Tue Oct 14 2025 20:58:09 GMT-0400 (북미 동부 하계 표준시)","27390","1","5","","","","","","","","","",""
"","","","","","","","","","","","preload","104","474916","0.0-104.0","","","","","true","","","","","","","","","","","preload","","","1","6","false","[]","[]","[]","","","","","",""
"","","","","","","","","","","","canvas-keyboard-response","105","475218","0.0-105.0","null","null","","","","","","","","","","","","","","fixation","","","1","6","","","","","","","","","",""
"","","","","","","","","","","","canvas-keyboard-response","106","475521","0.0-106.0","null","null","","","","","","","","","","","","","","stimulus","","","1","6","","","","","","","","","",""
"","","","","","","","","","","","canvas-button-response","107","476962","0.0-107.0","1438","car","","","","","","","","","","","","","","perceptual","","","1","6","","","","","67","train","10","","0",""
"","","","","","","","","","","","canvas-button-response","108","479412","0.0-108.0","2449","2","","","","","","","","","","","","","","confidence","","","1","6","","","","","","","","","","4"
"","","","","","","","","","","","html-keyboard-response","109","480414","0.0-109.0","null","null","","","","","","","","","","","","","","feedback","Tue Oct 14 2025 20:58:14 GMT-0400 (북미 동부 하계 표준시)","27390","1","6","","","","","","","","","",""
"","","","","","","","","","","","preload","110","480415","0.0-110.0","","","","","true","","","","","","","","","","","preload","","","1","7","false","[]","[]","[]","","","","","",""
"","","","","","","","","","","","canvas-keyboard-response","111","480718","0.0-111.0","null","null","","","","","","","","","","","","","","fixation","","","1","7","","","","","","","","","",""
"","","","","","","","","","","","canvas-keyboard-response","112","481020","0.0-112.0","null","null","","","","","","","","","","","","","","stimulus","","","1","7","","","","","","","","","",""
"","","","","","","","","","","","canvas-button-response","113","485863","0.0-113.0","4840","elephant","","","","","","","","","","","","","","perceptual","","","1","7","","","","","87","elephant","10","","1",""
"","","","","","","","","","","","canvas-button-response","114","487079","0.0-114.0","1214","4","","","","","","","","","","","","","","confidence","","","1","7","","","","","","","","","","5"
"","","","","","","","","","","","html-keyboard-response","115","488082","0.0-115.0","null","null","","","","","","","","","","","","","","feedback","Tue Oct 14 2025 20:58:22 GMT-0400 (북미 동부 하계 표준시)","27390","1","7","","","","","","","","","",""
"","","","","","","","","","","","preload","116","488083","0.0-116.0","","","","","true","","","","","","","","","","","preload","","","1","8","false","[]","[]","[]","","","","","",""
"","","","","","","","","","","","canvas-keyboard-response","117","488387","0.0-117.0","null","null","","","","","","","","","","","","","","fixation","","","1","8","","","","","","","","","",""
"","","","","","","","","","","","canvas-keyboard-response","118","488690","0.0-118.0","null","null","","","","","","","","","","","","","","stimulus","","","1","8","","","","","","","","","",""
"","","","","","","","","","","","canvas-button-response","119","490277","0.0-119.0","1586","house","","","","","","","","","","","","","","perceptual","","","1","8","","","","","4","house","6","","1",""
"","","","","","","","","","","","canvas-button-response","120","491046","0.0-120.0","766","10","","","","","","","","","","","","","","confidence","","","1","8","","","","","","","","","","6"
"","","","","","","","","","","","html-keyboard-response","121","492049","0.0-121.0","null","null","","","","","","","","","","","","","","feedback","Tue Oct 14 2025 20:58:26 GMT-0400 (북미 동부 하계 표준시)","27390","1","8","","","","","","","","","",""
"","","","","","","","","","","","preload","122","492049","0.0-122.0","","","","","true","","","","","","","","","","","preload","","","1","9","false","[]","[]","[]","","","","","",""
"","","","","","","","","","","","canvas-keyboard-response","123","492352","0.0-123.0","null","null","","","","","","","","","","","","","","fixation","","","1","9","","","","","","","","","",""
"","","","","","","","","","","","canvas-keyboard-response","124","492655","0.0-124.0","null","null","","","","","","","","","","","","","","stimulus","","","1","9","","","","","","","","","",""
"","","","","","","","","","","","canvas-button-response","125","493762","0.0-125.0","1105","cat","","","","","","","","","","","","","","perceptual","","","1","9","","","","","74","cat","6","","1",""
"","","","","","","","","","","","canvas-button-response","126","494613","0.0-126.0","848","10","","","","","","","","","","","","","","confidence","","","1","9","","","","","","","","","","7"
"","","","","","","","","","","","html-keyboard-response","127","495615","0.0-127.0","null","null","","","","","","","","","","","","","","feedback","Tue Oct 14 2025 20:58:29 GMT-0400 (북미 동부 하계 표준시)","27390","1","9","","","","","","","","","",""
"","","","","","","","","","","","preload","128","495616","0.0-128.0","","","","","true","","","","","","","","","","","preload","","","1","10","false","[]","[]","[]","","","","","",""
"","","","","","","","","","","","canvas-keyboard-response","129","495918","0.0-129.0","null","null","","","","","","","","","","","","","","fixation","","","1","10","","","","","","","","","",""
"","","","","","","","","","","","canvas-keyboard-response","130","496221","0.0-130.0","null","null","","","","","","","","","","","","","","stimulus","","","1","10","","","","","","","","","",""
"","","","","","","","","","","","canvas-button-response","131","497545","0.0-131.0","1322","flower","","","","","","","","","","","","","","perceptual","","","1","10","","","","","54","flower","6","","1",""
"","","","","","","","","","","","canvas-button-response","132","498279","0.0-132.0","731","10","","","","","","","","","","","","","","confidence","","","1","10","","","","","","","","","","8"
"","","","","","","","","","","","html-keyboard-response","133","499282","0.0-133.0","null","null","","","","","","","","","","","","","","feedback","Tue Oct 14 2025 20:58:33 GMT-0400 (북미 동부 하계 표준시)","27390","1","10","","","","","","","","","",""
"","","","","","","","","","","","preload","134","499283","0.0-134.0","","","","","true","","","","","","","","","","","preload","","","1","11","false","[]","[]","[]","","","","","",""
"","","","","","","","","","","","canvas-keyboard-response","135","499585","0.0-135.0","null","null","","","","","","","","","","","","","","fixation","","","1","11","","","","","","","","","",""
"","","","","","","","","","","","canvas-keyboard-response","136","499888","0.0-136.0","null","null","","","","","","","","","","","","","","stimulus","","","1","11","","","","","","","","","",""
"","","","","","","","","","","","canvas-button-response","137","503412","0.0-137.0","3522","house","","","","","","","","","","","","","","perceptual","","","1","11","","","","","7","house","10","","1",""
"","","","","","","","","","","","canvas-button-response","138","504279","0.0-138.0","865","6","","","","","","","","","","","","","","confidence","","","1","11","","","","","","","","","","9"
"","","","","","","","","","","","html-keyboard-response","139","505280","0.0-139.0","null","null","","","","","","","","","","","","","","feedback","Tue Oct 14 2025 20:58:39 GMT-0400 (북미 동부 하계 표준시)","27390","1","11","","","","","","","","","",""
"","","","","","","","","","","","preload","140","505281","0.0-140.0","","","","","true","","","","","","","","","","","preload","","","1","12","false","[]","[]","[]","","","","","",""
"","","","","","","","","","","","canvas-keyboard-response","141","505583","0.0-141.0","null","null","","","","","","","","","","","","","","fixation","","","1","12","","","","","","","","","",""
"","","","","","","","","","","","canvas-keyboard-response","142","505886","0.0-142.0","null","null","","","","","","","","","","","","","","stimulus","","","1","12","","","","","","","","","",""
"","","","","","","","","","","","canvas-button-response","143","508145","0.0-143.0","2257","cat","","","","","","","","","","","","","","perceptual","","","1","12","","","","","27","phone","10","","0",""
"","","","","","","","","","","","canvas-button-response","144","508796","0.0-144.0","648","6","","","","","","","","","","","","","","confidence","","","1","12","","","","","","","","","","9"
"","","","","","","","","","","","html-keyboard-response","145","509798","0.0-145.0","null","null","","","","","","","","","","","","","","feedback","Tue Oct 14 2025 20:58:44 GMT-0400 (북미 동부 하계 표준시)","27390","1","12","","","","","","","","","",""
"","","","","","","","","","","","preload","146","509799","0.0-146.0","","","","","true","","","","","","","","","","","preload","","","1","13","false","[]","[]","[]","","","","","",""
"","","","","","","","","","","","canvas-keyboard-response","147","510102","0.0-147.0","null","null","","","","","","","","","","","","","","fixation","","","1","13","","","","","","","","","",""
"","","","","","","","","","","","canvas-keyboard-response","148","510405","0.0-148.0","null","null","","","","","","","","","","","","","","stimulus","","","1","13","","","","","","","","","",""
"","","","","","","","","","","","canvas-button-response","149","514210","0.0-149.0","3804","bed","","","","","","","","","","","","","","perceptual","","","1","13","","","","","44","bridge","6","","0",""
"","","","","","","","","","","","canvas-button-response","150","515162","0.0-150.0","949","2","","","","","","","","","","","","","","confidence","","","1","13","","","","","","","","","","9"
"","","","","","","","","","","","html-keyboard-response","151","516163","0.0-151.0","null","null","","","","","","","","","","","","","","feedback","Tue Oct 14 2025 20:58:50 GMT-0400 (북미 동부 하계 표준시)","27390","1","13","","","","","","","","","",""
"","","","","","","","","","","","preload","152","516164","0.0-152.0","","","","","true","","","","","","","","","","","preload","","","1","14","false","[]","[]","[]","","","","","",""
"","","","","","","","","","","","canvas-keyboard-response","153","516467","0.0-153.0","null","null","","","","","","","","","","","","","","fixation","","","1","14","","","","","","","","","",""
"","","","","","","","","","","","canvas-keyboard-response","154","516770","0.0-154.0","null","null","","","","","","","","","","","","","","stimulus","","","1","14","","","","","","","","","",""
"","","","","","","","","","","","canvas-button-response","155","521660","0.0-155.0","4888","car","","","","","","","","","","","","","","perceptual","","","1","14","","","","","17","car","10","","1",""
"","","","","","","","","","","","canvas-button-response","156","522528","0.0-156.0","866","1","","","","","","","","","","","","","","confidence","","","1","14","","","","","","","","","","10"
"","","","","","","","","","","","html-keyboard-response","157","523530","0.0-157.0","null","null","","","","","","","","","","","","","","feedback","Tue Oct 14 2025 20:58:57 GMT-0400 (북미 동부 하계 표준시)","27390","1","14","","","","","","","","","",""
"","","","","","","","","","","","preload","158","523531","0.0-158.0","","","","","true","","","","","","","","","","","preload","","","1","15","false","[]","[]","[]","","","","","",""
"","","","","","","","","","","","canvas-keyboard-response","159","523833","0.0-159.0","null","null","","","","","","","","","","","","","","fixation","","","1","15","","","","","","","","","",""
"","","","","","","","","","","","canvas-keyboard-response","160","524136","0.0-160.0","null","null","","","","","","","","","","","","","","stimulus","","","1","15","","","","","","","","","",""
"","","","","","","","","","","","canvas-button-response","161","525361","0.0-161.0","1223","phone","","","","","","","","","","","","","","perceptual","","","1","15","","","","","24","phone","6","","1",""
"","","","","","","","","","","","canvas-button-response","162","526112","0.0-162.0","748","10","","","","","","","","","","","","","","confidence","","","1","15","","","","","","","","","","11"
"","","","","","","","","","","","html-keyboard-response","163","527114","0.0-163.0","null","null","","","","","","","","","","","","","","feedback","Tue Oct 14 2025 20:59:01 GMT-0400 (북미 동부 하계 표준시)","27390","1","15","","","","","","","","","",""
"","","","","","","","","","","","preload","164","527115","0.0-164.0","","","","","true","","","","","","","","","","","preload","","","1","16","false","[]","[]","[]","","","","","",""
"","","","","","","","","","","","canvas-keyboard-response","165","527418","0.0-165.0","null","null","","","","","","","","","","","","","","fixation","","","1","16","","","","","","","","","",""
"","","","","","","","","","","","canvas-keyboard-response","166","527721","0.0-166.0","null","null","","","","","","","","","","","","","","stimulus","","","1","16","","","","","","","","","",""
"","","","","","","","","","","","canvas-button-response","167","528744","0.0-167.0","1020","train","","","","","","","","","","","","","","perceptual","","","1","16","","","","","64","train","6","","1",""
"","","","","","","","","","","","canvas-button-response","168","529642","0.0-168.0","897","10","","","","","","","","","","","","","","confidence","","","1","16","","","","","","","","","","12"
"","","","","","","","","","","","html-keyboard-response","169","530645","0.0-169.0","null","null","","","","","","","","","","","","","","feedback","Tue Oct 14 2025 20:59:04 GMT-0400 (북미 동부 하계 표준시)","27390","1","16","","","","","","","","","",""
"","","","","","","","","","","","preload","170","530646","0.0-170.0","","","","","true","","","","","","","","","","","preload","","","1","17","false","[]","[]","[]","","","","","",""
"","","","","","","","","","","","canvas-keyboard-response","171","530949","0.0-171.0","null","null","","","","","","","","","","","","","","fixation","","","1","17","","","","","","","","","",""
"","","","","","","","","","","","canvas-keyboard-response","172","531252","0.0-172.0","null","null","","","","","","","","","","","","","","stimulus","","","1","17","","","","","","","","","",""
"","","","","","","","","","","","canvas-button-response","173","536328","0.0-173.0","5074","phone","","","","","","","","","","","","","","perceptual","","","1","17","","","","","37","bed","10","","0",""
"","","","","","","","","","","","canvas-button-response","174","537710","0.0-174.0","1380","0","","","","","","","","","","","","","","confidence","","","1","17","","","","","","","","","","12"
"","","","","","","","","","","","html-keyboard-response","175","538713","0.0-175.0","null","null","","","","","","","","","","","","","","feedback","Tue Oct 14 2025 20:59:12 GMT-0400 (북미 동부 하계 표준시)","27390","1","17","","","","","","","","","",""
"","","","","","","","","","","","preload","176","538714","0.0-176.0","","","","","true","","","","","","","","","","","preload","","","1","18","false","[]","[]","[]","","","","","",""
"","","","","","","","","","","","canvas-keyboard-response","177","539016","0.0-177.0","null","null","","","","","","","","","","","","","","fixation","","","1","18","","","","","","","","","",""
"","","","","","","","","","","","canvas-keyboard-response","178","539320","0.0-178.0","null","null","","","","","","","","","","","","","","stimulus","","","1","18","","","","","","","","","",""
"","","","","","","","","","","","canvas-button-response","179","544911","0.0-179.0","5589","phone","","","","","","","","","","","","","","perceptual","","","1","18","","","","","94","knife","6","","0",""
"","","","","","","","","","","","canvas-button-response","180","546210","0.0-180.0","1296","4","","","","","","","","","","","","","","confidence","","","1","18","","","","","","","","","","12"
"","","","","","","","","","","","html-keyboard-response","181","547213","0.0-181.0","null","null","","","","","","","","","","","","","","feedback","Tue Oct 14 2025 20:59:21 GMT-0400 (북미 동부 하계 표준시)","27390","1","18","","","","","","","","","",""
"","","","","","","","","","","","preload","182","547214","0.0-182.0","","","","","true","","","","","","","","","","","preload","","","1","19","false","[]","[]","[]","","","","","",""
"","","","","","","","","","","","canvas-keyboard-response","183","547518","0.0-183.0","null","null","","","","","","","","","","","","","","fixation","","","1","19","","","","","","","","","",""
"","","","","","","","","","","","canvas-keyboard-response","184","547820","0.0-184.0","null","null","","","","","","","","","","","","","","stimulus","","","1","19","","","","","","","","","",""
"","","","","","","","","","","","canvas-button-response","185","548861","0.0-185.0","1038","flower","","","","","","","","","","","","","","perceptual","","","1","19","","","","","57","flower","10","","1",""
"","","","","","","","","","","","canvas-button-response","186","549712","0.0-186.0","848","7","","","","","","","","","","","","","","confidence","","","1","19","","","","","","","","","","13"
"","","","","","","","","","","","html-keyboard-response","187","550715","0.0-187.0","null","null","","","","","","","","","","","","","","feedback","Tue Oct 14 2025 20:59:24 GMT-0400 (북미 동부 하계 표준시)","27390","1","19","","","","","","","","","",""
"","","","","","","","","","","","html-button-response","188","554611","0.0-188.0","3895","0","","","","","","","","","","","","","","start experiment","Tue Oct 14 2025 20:59:25 GMT-0400 (북미 동부 하계 표준시)","27390","1","19","","","","","","","","","",""
"","","","","","","","","","","","preload","189","554612","0.0-189.0","","","","","true","","","","","","","","","","","preload","","","2","0","false","[]","[]","[]","","","","","",""
"","","","","","","","","","","","canvas-keyboard-response","190","554914","0.0-190.0","null","null","","","","","","","","","","","","","","fixation","","","2","0","","","","","","","","","",""
"","","","","","","","","","","","canvas-keyboard-response","191","555218","0.0-191.0","null","null","","","","","","","","","","","","","","stimulus","","","2","0","","","","","","","","","",""
"","","","","","","","","","","","canvas-button-response","192","556311","0.0-192.0","1092","train","","","","","","","","","","","","","","perceptual","","","2","0","","","","","40","car","6","0","0",""
"","","","","","","","","","","","canvas-button-response","193","557128","0.0-193.0","814","7","","","","","","","","","","","","","","confidence","","","2","0","","","","","","","","","","0"
"","","","","","","","","","","","preload","194","557129","0.0-194.0","","","","","true","","","","","","","","","","","preload","","","2","1","false","[]","[]","[]","","","","","",""
"","","","","","","","","","","","canvas-keyboard-response","195","557430","0.0-195.0","null","null","","","","","","","","","","","","","","fixation","","","2","1","","","","","","","","","",""
"","","","","","","","","","","","canvas-keyboard-response","196","557734","0.0-196.0","null","null","","","","","","","","","","","","","","stimulus","","","2","1","","","","","","","","","",""
"","","","","","","","","","","","canvas-button-response","197","559661","0.0-197.0","1925","bridge","","","","","","","","","","","","","","perceptual","","","2","1","","","","","152","bed","10","0","0",""
"","","","","","","","","","","","canvas-button-response","198","560527","0.0-198.0","864","7","","","","","","","","","","","","","","confidence","","","2","1","","","","","","","","","","0"
"","","","","","","","","","","","preload","199","560528","0.0-199.0","","","","","true","","","","","","","","","","","preload","","","2","2","false","[]","[]","[]","","","","","",""
"","","","","","","","","","","","canvas-keyboard-response","200","560831","0.0-200.0","null","null","","","","","","","","","","","","","","fixation","","","2","2","","","","","","","","","",""
"","","","","","","","","","","","canvas-keyboard-response","201","561134","0.0-201.0","null","null","","","","","","","","","","","","","","stimulus","","","2","2","","","","","","","","","",""
"","","","","","","","","","","","canvas-button-response","202","562627","0.0-202.0","1491","train","","","","","","","","","","","","","","perceptual","","","2","2","","","","","261","train","10","0","1",""
"","","","","","","","","","","","canvas-button-response","203","563359","0.0-203.0","729","7","","","","","","","","","","","","","","confidence","","","2","2","","","","","","","","","","1"
"","","","","","","","","","","","preload","204","563360","0.0-204.0","","","","","true","","","","","","","","","","","preload","","","2","3","false","[]","[]","[]","","","","","",""
"","","","","","","","","","","","canvas-keyboard-response","205","563661","0.0-205.0","null","null","","","","","","","","","","","","","","fixation","","","2","3","","","","","","","","","",""
"","","","","","","","","","","","canvas-keyboard-response","206","563965","0.0-206.0","null","null","","","","","","","","","","","","","","stimulus","","","2","3","","","","","","","","","",""
"","","","","","","","","","","","canvas-button-response","207","564711","0.0-207.0","744","knife","","","","","","","","","","","","","","perceptual","","","2","3","","","","","389","knife","10","0","1",""
"","","","","","","","","","","","canvas-button-response","208","565561","0.0-208.0","848","10","","","","","","","","","","","","","","confidence","","","2","3","","","","","","","","","","2"
"","","","","","","","","","","","preload","209","565562","0.0-209.0","","","","","true","","","","","","","","","","","preload","","","2","4","false","[]","[]","[]","","","","","",""
"","","","","","","","","","","","canvas-keyboard-response","210","565865","0.0-210.0","null","null","","","","","","","","","","","","","","fixation","","","2","4","","","","","","","","","",""
"","","","","","","","","","","","canvas-keyboard-response","211","566167","0.0-211.0","null","null","","","","","","","","","","","","","","stimulus","","","2","4","","","","","","","","","",""
"","","","","","","","","","","","canvas-button-response","212","567361","0.0-212.0","1191","car","","","","","","","","","","","","","","perceptual","","","2","4","","","","","61","car","10","0","1",""
"","","","","","","","","","","","canvas-button-response","213","568178","0.0-213.0","814","10","","","","","","","","","","","","","","confidence","","","2","4","","","","","","","","","","3"
"","","","","","","","","","","","preload","214","568179","0.0-214.0","","","","","true","","","","","","","","","","","preload","","","2","5","false","[]","[]","[]","","","","","",""
"","","","","","","","","","","","canvas-keyboard-response","215","568481","0.0-215.0","null","null","","","","","","","","","","","","","","fixation","","","2","5","","","","","","","","","",""
"","","","","","","","","","","","canvas-keyboard-response","216","568784","0.0-216.0","null","null","","","","","","","","","","","","","","stimulus","","","2","5","","","","","","","","","",""
"","","","","","","","","","","","canvas-button-response","217","572543","0.0-217.0","3757","bridge","","","","","","","","","","","","","","perceptual","","","2","5","","","","","320","elephant","6","0","0",""
"","","","","","","","","","","","canvas-button-response","218","574644","0.0-218.0","2099","1","","","","","","","","","","","","","","confidence","","","2","5","","","","","","","","","","3"
"","","","","","","","","","","","preload","219","574645","0.0-219.0","","","","","true","","","","","","","","","","","preload","","","2","6","false","[]","[]","[]","","","","","",""
"","","","","","","","","","","","canvas-keyboard-response","220","574948","0.0-220.0","null","null","","","","","","","","","","","","","","fixation","","","2","6","","","","","","","","","",""
"","","","","","","","","","","","canvas-keyboard-response","221","575251","0.0-221.0","null","null","","","","","","","","","","","","","","stimulus","","","2","6","","","","","","","","","",""
"","","","","","","","","","","","canvas-button-response","222","576925","0.0-222.0","1673","elephant","","","","","","","","","","","","","","perceptual","","","2","6","","","","","338","elephant","6","0","1",""
"","","","","","","","","","","","canvas-button-response","223","577759","0.0-223.0","832","10","","","","","","","","","","","","","","confidence","","","2","6","","","","","","","","","","4"
"","","","","","","","","","","","preload","224","577760","0.0-224.0","","","","","true","","","","","","","","","","","preload","","","2","7","false","[]","[]","[]","","","","","",""
"","","","","","","","","","","","canvas-keyboard-response","225","578061","0.0-225.0","null","null","","","","","","","","","","","","","","fixation","","","2","7","","","","","","","","","",""
"","","","","","","","","","","","canvas-keyboard-response","226","578363","0.0-226.0","null","null","","","","","","","","","","","","","","stimulus","","","2","7","","","","","","","","","",""
"","","","","","","","","","","","canvas-button-response","227","581610","0.0-227.0","3245","elephant","","","","","","","","","","","","","","perceptual","","","2","7","","","","","113","phone","10","0","0",""
"","","","","","","","","","","","canvas-button-response","228","583391","0.0-228.0","1779","1","","","","","","","","","","","","","","confidence","","","2","7","","","","","","","","","","4"
"","","","","","","","","","","","preload","229","583392","0.0-229.0","","","","","true","","","","","","","","","","","preload","","","2","8","false","[]","[]","[]","","","","","",""
"","","","","","","","","","","","canvas-keyboard-response","230","583694","0.0-230.0","null","null","","","","","","","","","","","","","","fixation","","","2","8","","","","","","","","","",""
"","","","","","","","","","","","canvas-keyboard-response","231","583997","0.0-231.0","null","null","","","","","","","","","","","","","","stimulus","","","2","8","","","","","","","","","",""
"","","","","","","","","","","","canvas-button-response","232","585159","0.0-232.0","1160","bed","","","","","","","","","","","","","","perceptual","","","2","8","","","","","133","bed","6","0","1",""
"","","","","","","","","","","","canvas-button-response","233","586044","0.0-233.0","882","10","","","","","","","","","","","","","","confidence","","","2","8","","","","","","","","","","5"
"","","","","","","","","","","","preload","234","586045","0.0-234.0","","","","","true","","","","","","","","","","","preload","","","2","9","false","[]","[]","[]","","","","","",""
"","","","","","","","","","","","canvas-keyboard-response","235","586347","0.0-235.0","null","null","","","","","","","","","","","","","","fixation","","","2","9","","","","","","","","","",""
"","","","","","","","","","","","canvas-keyboard-response","236","586651","0.0-236.0","null","null","","","","","","","","","","","","","","stimulus","","","2","9","","","","","","","","","",""
"","","","","","","","","","","","canvas-button-response","237","587560","0.0-237.0","907","flower","","","","","","","","","","","","","","perceptual","","","2","9","","","","","234","flower","10","0","1",""
"","","","","","","","","","","","canvas-button-response","238","588511","0.0-238.0","948","10","","","","","","","","","","","","","","confidence","","","2","9","","","","","","","","","","6"
"","","","","","","","","","","","preload","239","588512","0.0-239.0","","","","","true","","","","","","","","","","","preload","","","2","10","false","[]","[]","[]","","","","","",""
"","","","","","","","","","","","canvas-keyboard-response","240","588814","0.0-240.0","null","null","","","","","","","","","","","","","","fixation","","","2","10","","","","","","","","","",""
"","","","","","","","","","","","canvas-keyboard-response","241","589117","0.0-241.0","null","null","","","","","","","","","","","","","","stimulus","","","2","10","","","","","","","","","",""
"","","","","","","","","","","","canvas-button-response","242","590393","0.0-242.0","1274","elephant","","","","","","","","","","","","","","perceptual","","","2","10","","","","","329","elephant","6","0","1",""
"","","","","","","","","","","","canvas-button-response","243","591577","0.0-243.0","1181","8","","","","","","","","","","","","","","confidence","","","2","10","","","","","","","","","","7"
"","","","","","","","","","","","preload","244","591578","0.0-244.0","","","","","true","","","","","","","","","","","preload","","","2","11","false","[]","[]","[]","","","","","",""
"","","","","","","","","","","","canvas-keyboard-response","245","591880","0.0-245.0","null","null","","","","","","","","","","","","","","fixation","","","2","11","","","","","","","","","",""
"","","","","","","","","","","","canvas-keyboard-response","246","592182","0.0-246.0","null","null","","","","","","","","","","","","","","stimulus","","","2","11","","","","","","","","","",""
"","","","","","","","","","","","canvas-button-response","247","592877","0.0-247.0","692","knife","","","","","","","","","","","","","","perceptual","","","2","11","","","","","396","knife","10","0","1",""
"","","","","","","","","","","","canvas-button-response","248","593710","0.0-248.0","831","10","","","","","","","","","","","","","","confidence","","","2","11","","","","","","","","","","8"
"","","","","","","","","","","","preload","249","593711","0.0-249.0","","","","","true","","","","","","","","","","","preload","","","2","12","false","[]","[]","[]","","","","","",""
"","","","","","","","","","","","canvas-keyboard-response","250","594014","0.0-250.0","null","null","","","","","","","","","","","","","","fixation","","","2","12","","","","","","","","","",""
"","","","","","","","","","","","canvas-keyboard-response","251","594317","0.0-251.0","null","null","","","","","","","","","","","","","","stimulus","","","2","12","","","","","","","","","",""
"","","","","","","","","","","","canvas-button-response","252","595442","0.0-252.0","1123","bridge","","","","","","","","","","","","","","perceptual","","","2","12","","","","","172","bridge","6","0","1",""
"","","","","","","","","","","","canvas-button-response","253","596144","0.0-253.0","699","10","","","","","","","","","","","","","","confidence","","","2","12","","","","","","","","","","9"
"","","","","","","","","","","","preload","254","596144","0.0-254.0","","","","","true","","","","","","","","","","","preload","","","2","13","false","[]","[]","[]","","","","","",""
"","","","","","","","","","","","canvas-keyboard-response","255","596447","0.0-255.0","null","null","","","","","","","","","","","","","","fixation","","","2","13","","","","","","","","","",""
"","","","","","","","","","","","canvas-keyboard-response","256","596750","0.0-256.0","null","null","","","","","","","","","","","","","","stimulus","","","2","13","","","","","","","","","",""
"","","","","","","","","","","","canvas-button-response","257","597742","0.0-257.0","989","car","","","","","","","","","","","","","","perceptual","","","2","13","","","","","72","car","10","0","1",""
"","","","","","","","","","","","canvas-button-response","258","598427","0.0-258.0","682","10","","","","","","","","","","","","","","confidence","","","2","13","","","","","","","","","","10"
"","","","","","","","","","","","preload","259","598428","0.0-259.0","","","","","true","","","","","","","","","","","preload","","","2","14","false","[]","[]","[]","","","","","",""
"","","","","","","","","","","","canvas-keyboard-response","260","598730","0.0-260.0","null","null","","","","","","","","","","","","","","fixation","","","2","14","","","","","","","","","",""
"","","","","","","","","","","","canvas-keyboard-response","261","599033","0.0-261.0","null","null","","","","","","","","","","","","","","stimulus","","","2","14","","","","","","","","","",""
"","","","","","","","","","","","canvas-button-response","262","600025","0.0-262.0","989","train","","","","","","","","","","","","","","perceptual","","","2","14","","","","","252","train","6","0","1",""
"","","","","","","","","","","","canvas-button-response","263","600527","0.0-263.0","500","10","","","","","","","","","","","","","","confidence","","","2","14","","","","","","","","","","11"
"","","","","","","","","","","","preload","264","600528","0.0-264.0","","","","","true","","","","","","","","","","","preload","","","2","15","false","[]","[]","[]","","","","","",""
"","","","","","","","","","","","canvas-keyboard-response","265","600830","0.0-265.0","null","null","","","","","","","","","","","","","","fixation","","","2","15","","","","","","","","","",""
"","","","","","","","","","","","canvas-keyboard-response","266","601135","0.0-266.0","null","null","","","","","","","","","","","","","","stimulus","","","2","15","","","","","","","","","",""
"","","","","","","","","","","","canvas-button-response","267","601993","0.0-267.0","856","knife","","","","","","","","","","","","","","perceptual","","","2","15","","","","","372","knife","6","0","1",""
"","","","","","","","","","","","canvas-button-response","268","602544","0.0-268.0","548","10","","","","","","","","","","","","","","confidence","","","2","15","","","","","","","","","","12"
"","","","","","","","","","","","preload","269","602544","0.0-269.0","","","","","true","","","","","","","","","","","preload","","","2","16","false","[]","[]","[]","","","","","",""
"","","","","","","","","","","","canvas-keyboard-response","270","602846","0.0-270.0","null","null","","","","","","","","","","","","","","fixation","","","2","16","","","","","","","","","",""
"","","","","","","","","","","","canvas-keyboard-response","271","603148","0.0-271.0","null","null","","","","","","","","","","","","","","stimulus","","","2","16","","","","","","","","","",""
"","","","","","","","","","","","canvas-button-response","272","604110","0.0-272.0","960","elephant","","","","","","","","","","","","","","perceptual","","","2","16","","","","","33","house","10","0","0",""
"","","","","","","","","","","","canvas-button-response","273","604710","0.0-273.0","598","10","","","","","","","","","","","","","","confidence","","","2","16","","","","","","","","","","12"
"","","","","","","","","","","","preload","274","604711","0.0-274.0","","","","","true","","","","","","","","","","","preload","","","2","17","false","[]","[]","[]","","","","","",""
"","","","","","","","","","","","canvas-keyboard-response","275","605013","0.0-275.0","null","null","","","","","","","","","","","","","","fixation","","","2","17","","","","","","","","","",""
"","","","","","","","","","","","canvas-keyboard-response","276","605315","0.0-276.0","null","null","","","","","","","","","","","","","","stimulus","","","2","17","","","","","","","","","",""
"","","","","","","","","","","","canvas-button-response","277","606710","0.0-277.0","1393","house","","","","","","","","","","","","","","perceptual","","","2","17","","","","","15","house","6","0","1",""
"","","","","","","","","","","","canvas-button-response","278","607294","0.0-278.0","581","10","","","","","","","","","","","","","","confidence","","","2","17","","","","","","","","","","13"
"","","","","","","","","","","","preload","279","607295","0.0-279.0","","","","","true","","","","","","","","","","","preload","","","2","18","false","[]","[]","[]","","","","","",""
"","","","","","","","","","","","canvas-keyboard-response","280","607596","0.0-280.0","null","null","","","","","","","","","","","","","","fixation","","","2","18","","","","","","","","","",""
"","","","","","","","","","","","canvas-keyboard-response","281","607897","0.0-281.0","null","null","","","","","","","","","","","","","","stimulus","","","2","18","","","","","","","","","",""
"","","","","","","","","","","","canvas-button-response","282","610574","0.0-282.0","2676","bed","","","","","","","","","","","","","","perceptual","","","2","18","","","","","130","bed","6","0","1",""
"","","","","","","","","","","","canvas-button-response","283","611442","0.0-283.0","865","8","","","","","","","","","","","","","","confidence","","","2","18","","","","","","","","","","14"
"","","","","","","","","","","","preload","284","611443","0.0-284.0","","","","","true","","","","","","","","","","","preload","","","2","19","false","[]","[]","[]","","","","","",""
"","","","","","","","","","","","canvas-keyboard-response","285","611745","0.0-285.0","null","null","","","","","","","","","","","","","","fixation","","","2","19","","","","","","","","","",""
"","","","","","","","","","","","canvas-keyboard-response","286","612048","0.0-286.0","null","null","","","","","","","","","","","","","","stimulus","","","2","19","","","","","","","","","",""
"","","","","","","","","","","","canvas-button-response","287","613027","0.0-287.0","976","elephant","","","","","","","","","","","","","","perceptual","","","2","19","","","","","357","elephant","10","0","1",""
"","","","","","","","","","","","canvas-button-response","288","614410","0.0-288.0","1380","6","","","","","","","","","","","","","","confidence","","","2","19","","","","","","","","","","15"
"","","","","","","","","","","","preload","289","614411","0.0-289.0","","","","","true","","","","","","","","","","","preload","","","2","20","false","[]","[]","[]","","","","","",""
"","","","","","","","","","","","canvas-keyboard-response","290","614713","0.0-290.0","null","null","","","","","","","","","","","","","","fixation","","","2","20","","","","","","","","","",""
"","","","","","","","","","","","canvas-keyboard-response","291","615016","0.0-291.0","null","null","","","","","","","","","","","","","","stimulus","","","2","20","","","","","","","","","",""
"","","","","","","","","","","","canvas-button-response","292","617626","0.0-292.0","2608","train","","","","","","","","","","","","","","perceptual","","","2","20","","","","","292","cat","6","0","0",""
"","","","","","","","","","","","canvas-button-response","293","618560","0.0-293.0","931","1","","","","","","","","","","","","","","confidence","","","2","20","","","","","","","","","","15"
"","","","","","","","","","","","preload","294","618561","0.0-294.0","","","","","true","","","","","","","","","","","preload","","","2","21","false","[]","[]","[]","","","","","",""
"","","","","","","","","","","","canvas-keyboard-response","295","618862","0.0-295.0","null","null","","","","","","","","","","","","","","fixation","","","2","21","","","","","","","","","",""
"","","","","","","","","","","","canvas-keyboard-response","296","619165","0.0-296.0","null","null","","","","","","","","","","","","","","stimulus","","","2","21","","","","","","","","","",""
"","","","","","","","","","","","canvas-button-response","297","622292","0.0-297.0","3125","car","","","","","","","","","","","","","","perceptual","","","2","21","","","","","388","knife","10","0","0",""
"","","","","","","","","","","","canvas-button-response","298","623027","0.0-298.0","732","1","","","","","","","","","","","","","","confidence","","","2","21","","","","","","","","","","15"
"","","","","","","","","","","","preload","299","623028","0.0-299.0","","","","","true","","","","","","","","","","","preload","","","2","22","false","[]","[]","[]","","","","","",""
"","","","","","","","","","","","canvas-keyboard-response","300","623330","0.0-300.0","null","null","","","","","","","","","","","","","","fixation","","","2","22","","","","","","","","","",""
"","","","","","","","","","","","canvas-keyboard-response","301","623633","0.0-301.0","null","null","","","","","","","","","","","","","","stimulus","","","2","22","","","","","","","","","",""
"","","","","","","","","","","","canvas-button-response","302","625927","0.0-302.0","2291","knife","","","","","","","","","","","","","","perceptual","","","2","22","","","","","373","knife","6","0","1",""
"","","","","","","","","","","","canvas-button-response","303","626910","0.0-303.0","981","7","","","","","","","","","","","","","","confidence","","","2","22","","","","","","","","","","16"
"","","","","","","","","","","","preload","304","626911","0.0-304.0","","","","","true","","","","","","","","","","","preload","","","2","23","false","[]","[]","[]","","","","","",""
"","","","","","","","","","","","canvas-keyboard-response","305","627213","0.0-305.0","null","null","","","","","","","","","","","","","","fixation","","","2","23","","","","","","","","","",""
"","","","","","","","","","","","canvas-keyboard-response","306","627516","0.0-306.0","null","null","","","","","","","","","","","","","","stimulus","","","2","23","","","","","","","","","",""
"","","","","","","","","","","","canvas-button-response","307","628258","0.0-307.0","739","knife","","","","","","","","","","","","","","perceptual","","","2","23","","","","","376","knife","6","0","1",""
"","","","","","","","","","","","canvas-button-response","308","629060","0.0-308.0","799","8","","","","","","","","","","","","","","confidence","","","2","23","","","","","","","","","","17"
"","","","","","","","","","","","preload","309","629060","0.0-309.0","","","","","true","","","","","","","","","","","preload","","","2","24","false","[]","[]","[]","","","","","",""
"","","","","","","","","","","","canvas-keyboard-response","310","629375","0.0-310.0","null","null","","","","","","","","","","","","","","fixation","","","2","24","","","","","","","","","",""
"","","","","","","","","","","","canvas-keyboard-response","311","629677","0.0-311.0","null","null","","","","","","","","","","","","","","stimulus","","","2","24","","","","","","","","","",""
"","","","","","","","","","","","canvas-button-response","312","630775","0.0-312.0","1096","bridge","","","","","","","","","","","","","","perceptual","","","2","24","","","","","184","bridge","10","0","1",""
"","","","","","","","","","","","canvas-button-response","313","631743","0.0-313.0","965","6","","","","","","","","","","","","","","confidence","","","2","24","","","","","","","","","","18"
"","","","","","","","","","","","preload","314","631744","0.0-314.0","","","","","true","","","","","","","","","","","preload","","","2","25","false","[]","[]","[]","","","","","",""
"","","","","","","","","","","","canvas-keyboard-response","315","632046","0.0-315.0","null","null","","","","","","","","","","","","","","fixation","","","2","25","","","","","","","","","",""
"","","","","","","","","","","","canvas-keyboard-response","316","632349","0.0-316.0","null","null","","","","","","","","","","","","","","stimulus","","","2","25","","","","","","","","","",""
"","","","","","","","","","","","canvas-button-response","317","633159","0.0-317.0","808","flower","","","","","","","","","","","","","","perceptual","","","2","25","","","","","232","flower","10","0","1",""
"","","","","","","","","","","","canvas-button-response","318","634976","0.0-318.0","1815","6","","","","","","","","","","","","","","confidence","","","2","25","","","","","","","","","","19"
"","","","","","","","","","","","preload","319","634977","0.0-319.0","","","","","true","","","","","","","","","","","preload","","","2","26","false","[]","[]","[]","","","","","",""
"","","","","","","","","","","","canvas-keyboard-response","320","635280","0.0-320.0","null","null","","","","","","","","","","","","","","fixation","","","2","26","","","","","","","","","",""
"","","","","","","","","","","","canvas-keyboard-response","321","635582","0.0-321.0","null","null","","","","","","","","","","","","","","stimulus","","","2","26","","","","","","","","","",""
"","","","","","","","","","","","canvas-button-response","322","637176","0.0-322.0","1591","cat","","","","","","","","","","","","","","perceptual","","","2","26","","","","","295","cat","6","0","1",""
"","","","","","","","","","","","canvas-button-response","323","637692","0.0-323.0","514","7","","","","","","","","","","","","","","confidence","","","2","26","","","","","","","","","","20"
"","","","","","","","","","","","preload","324","637693","0.0-324.0","","","","","true","","","","","","","","","","","preload","","","2","27","false","[]","[]","[]","","","","","",""
"","","","","","","","","","","","canvas-keyboard-response","325","637996","0.0-325.0","null","null","","","","","","","","","","","","","","fixation","","","2","27","","","","","","","","","",""
"","","","","","","","","","","","canvas-keyboard-response","326","638298","0.0-326.0","null","null","","","","","","","","","","","","","","stimulus","","","2","27","","","","","","","","","",""
"","","","","","","","","","","","canvas-button-response","327","639709","0.0-327.0","1409","bridge","","","","","","","","","","","","","","perceptual","","","2","27","","","","","35","house","10","0","0",""
"","","","","","","","","","","","canvas-button-response","328","640893","0.0-328.0","1181","5","","","","","","","","","","","","","","confidence","","","2","27","","","","","","","","","","20"
"","","","","","","","","","","","preload","329","640894","0.0-329.0","","","","","true","","","","","","","","","","","preload","","","2","28","false","[]","[]","[]","","","","","",""
"","","","","","","","","","","","canvas-keyboard-response","330","641196","0.0-330.0","null","null","","","","","","","","","","","","","","fixation","","","2","28","","","","","","","","","",""
"","","","","","","","","","","","canvas-keyboard-response","331","641499","0.0-331.0","null","null","","","","","","","","","","","","","","stimulus","","","2","28","","","","","","","","","",""
"","","","","","","","","","","","canvas-button-response","332","642509","0.0-332.0","1007","elephant","","","","","","","","","","","","","","perceptual","","","2","28","","","","","355","elephant","10","0","1",""
"","","","","","","","","","","","canvas-button-response","333","643626","0.0-333.0","1115","8","","","","","","","","","","","","","","confidence","","","2","28","","","","","","","","","","21"
"","","","","","","","","","","","preload","334","643627","0.0-334.0","","","","","true","","","","","","","","","","","preload","","","2","29","false","[]","[]","[]","","","","","",""
"","","","","","","","","","","","canvas-keyboard-response","335","643930","0.0-335.0","null","null","","","","","","","","","","","","","","fixation","","","2","29","","","","","","","","","",""
"","","","","","","","","","","","canvas-keyboard-response","336","644232","0.0-336.0","null","null","","","","","","","","","","","","","","stimulus","","","2","29","","","","","","","","","",""
"","","","","","","","","","","","canvas-button-response","337","646842","0.0-337.0","2607","cat","","","","","","","","","","","","","","perceptual","","","2","29","","","","","377","knife","6","0","0",""
"","","","","","","","","","","","canvas-button-response","338","647409","0.0-338.0","565","7","","","","","","","","","","","","","","confidence","","","2","29","","","","","","","","","","21"
"","","","","","","","","","","","preload","339","647410","0.0-339.0","","","","","true","","","","","","","","","","","preload","","","2","30","false","[]","[]","[]","","","","","",""
"","","","","","","","","","","","canvas-keyboard-response","340","647712","0.0-340.0","null","null","","","","","","","","","","","","","","fixation","","","2","30","","","","","","","","","",""
"","","","","","","","","","","","canvas-keyboard-response","341","648015","0.0-341.0","null","null","","","","","","","","","","","","","","stimulus","","","2","30","","","","","","","","","",""
"","","","","","","","","","","","canvas-button-response","342","649676","0.0-342.0","1658","house","","","","","","","","","","","","","","perceptual","","","2","30","","","","","30","house","10","0","1",""
"","","","","","","","","","","","canvas-button-response","343","650659","0.0-343.0","981","10","","","","","","","","","","","","","","confidence","","","2","30","","","","","","","","","","22"
"","","","","","","","","","","","preload","344","650660","0.0-344.0","","","","","true","","","","","","","","","","","preload","","","2","31","false","[]","[]","[]","","","","","",""
"","","","","","","","","","","","canvas-keyboard-response","345","650961","0.0-345.0","null","null","","","","","","","","","","","","","","fixation","","","2","31","","","","","","","","","",""
"","","","","","","","","","","","canvas-keyboard-response","346","651263","0.0-346.0","null","null","","","","","","","","","","","","","","stimulus","","","2","31","","","","","","","","","",""
"","","","","","","","","","","","canvas-button-response","347","652208","0.0-347.0","943","knife","","","","","","","","","","","","","","perceptual","","","2","31","","","","","383","knife","10","0","1",""
"","","","","","","","","","","","canvas-button-response","348","653440","0.0-348.0","1230","7","","","","","","","","","","","","","","confidence","","","2","31","","","","","","","","","","23"
"","","","","","","","","","","","preload","349","653440","0.0-349.0","","","","","true","","","","","","","","","","","preload","","","2","32","false","[]","[]","[]","","","","","",""
"","","","","","","","","","","","canvas-keyboard-response","350","653742","0.0-350.0","null","null","","","","","","","","","","","","","","fixation","","","2","32","","","","","","","","","",""
"","","","","","","","","","","","canvas-keyboard-response","351","654045","0.0-351.0","null","null","","","","","","","","","","","","","","stimulus","","","2","32","","","","","","","","","",""
"","","","","","","","","","","","canvas-button-response","352","657092","0.0-352.0","3045","bed","","","","","","","","","","","","","","perceptual","","","2","32","","","","","92","phone","6","0","0",""
"","","","","","","","","","","","canvas-button-response","353","657809","0.0-353.0","715","6","","","","","","","","","","","","","","confidence","","","2","32","","","","","","","","","","23"
"","","","","","","","","","","","preload","354","657810","0.0-354.0","","","","","true","","","","","","","","","","","preload","","","2","33","false","[]","[]","[]","","","","","",""
"","","","","","","","","","","","canvas-keyboard-response","355","658113","0.0-355.0","null","null","","","","","","","","","","","","","","fixation","","","2","33","","","","","","","","","",""
"","","","","","","","","","","","canvas-keyboard-response","356","658415","0.0-356.0","null","null","","","","","","","","","","","","","","stimulus","","","2","33","","","","","","","","","",""
"","","","","","","","","","","","canvas-button-response","357","660692","0.0-357.0","2274","phone","","","","","","","","","","","","","","perceptual","","","2","33","","","","","314","cat","10","0","0",""
"","","","","","","","","","","","canvas-button-response","358","661908","0.0-358.0","1214","0","","","","","","","","","","","","","","confidence","","","2","33","","","","","","","","","","23"
"","","","","","","","","","","","preload","359","661909","0.0-359.0","","","","","true","","","","","","","","","","","preload","","","2","34","false","[]","[]","[]","","","","","",""
"","","","","","","","","","","","canvas-keyboard-response","360","662212","0.0-360.0","null","null","","","","","","","","","","","","","","fixation","","","2","34","","","","","","","","","",""
"","","","","","","","","","","","canvas-keyboard-response","361","662513","0.0-361.0","null","null","","","","","","","","","","","","","","stimulus","","","2","34","","","","","","","","","",""
"","","","","","","","","","","","canvas-button-response","362","663425","0.0-362.0","909","elephant","","","","","","","","","","","","","","perceptual","","","2","34","","","","","356","elephant","10","0","1",""
"","","","","","","","","","","","canvas-button-response","363","664508","0.0-363.0","1081","10","","","","","","","","","","","","","","confidence","","","2","34","","","","","","","","","","24"
"","","","","","","","","","","","preload","364","664509","0.0-364.0","","","","","true","","","","","","","","","","","preload","","","2","35","false","[]","[]","[]","","","","","",""
"","","","","","","","","","","","canvas-keyboard-response","365","664811","0.0-365.0","null","null","","","","","","","","","","","","","","fixation","","","2","35","","","","","","","","","",""
"","","","","","","","","","","","canvas-keyboard-response","366","665113","0.0-366.0","null","null","","","","","","","","","","","","","","stimulus","","","2","35","","","","","","","","","",""
"","","","","","","","","","","","canvas-button-response","367","669458","0.0-367.0","4343","house","","","","","","","","","","","","","","perceptual","","","2","35","","","","","294","cat","6","0","0",""
"","","","","","","","","","","","canvas-button-response","368","670525","0.0-368.0","1064","2","","","","","","","","","","","","","","confidence","","","2","35","","","","","","","","","","24"
"","","","","","","","","","","","preload","369","670526","0.0-369.0","","","","","true","","","","","","","","","","","preload","","","2","36","false","[]","[]","[]","","","","","",""
"","","","","","","","","","","","canvas-keyboard-response","370","670829","0.0-370.0","null","null","","","","","","","","","","","","","","fixation","","","2","36","","","","","","","","","",""
"","","","","","","","","","","","canvas-keyboard-response","371","671131","0.0-371.0","null","null","","","","","","","","","","","","","","stimulus","","","2","36","","","","","","","","","",""
"","","","","","","","","","","","canvas-button-response","372","672008","0.0-372.0","875","car","","","","","","","","","","","","","","perceptual","","","2","36","","","","","48","car","6","0","1",""
"","","","","","","","","","","","canvas-button-response","373","672825","0.0-373.0","815","10","","","","","","","","","","","","","","confidence","","","2","36","","","","","","","","","","25"
"","","","","","","","","","","","preload","374","672826","0.0-374.0","","","","","true","","","","","","","","","","","preload","","","2","37","false","[]","[]","[]","","","","","",""
"","","","","","","","","","","","canvas-keyboard-response","375","673129","0.0-375.0","null","null","","","","","","","","","","","","","","fixation","","","2","37","","","","","","","","","",""
"","","","","","","","","","","","canvas-keyboard-response","376","673432","0.0-376.0","null","null","","","","","","","","","","","","","","stimulus","","","2","37","","","","","","","","","",""
"","","","","","","","","","","","canvas-button-response","377","674208","0.0-377.0","774","knife","","","","","","","","","","","","","","perceptual","","","2","37","","","","","378","knife","6","0","1",""
"","","","","","","","","","","","canvas-button-response","378","675009","0.0-378.0","798","10","","","","","","","","","","","","","","confidence","","","2","37","","","","","","","","","","26"
"","","","","","","","","","","","preload","379","675010","0.0-379.0","","","","","true","","","","","","","","","","","preload","","","2","38","false","[]","[]","[]","","","","","",""
"","","","","","","","","","","","canvas-keyboard-response","380","675312","0.0-380.0","null","null","","","","","","","","","","","","","","fixation","","","2","38","","","","","","","","","",""
"","","","","","","","","","","","canvas-keyboard-response","381","675615","0.0-381.0","null","null","","","","","","","","","","","","","","stimulus","","","2","38","","","","","","","","","",""
"","","","","","","","","","","","canvas-button-response","382","676424","0.0-382.0","806","cat","","","","","","","","","","","","","","perceptual","","","2","38","","","","","299","cat","6","0","1",""
"","","","","","","","","","","","canvas-button-response","383","677192","0.0-383.0","766","10","","","","","","","","","","","","","","confidence","","","2","38","","","","","","","","","","27"
"","","","","","","","","","","","preload","384","677193","0.0-384.0","","","","","true","","","","","","","","","","","preload","","","2","39","false","[]","[]","[]","","","","","",""
"","","","","","","","","","","","canvas-keyboard-response","385","677495","0.0-385.0","null","null","","","","","","","","","","","","","","fixation","","","2","39","","","","","","","","","",""
"","","","","","","","","","","","canvas-keyboard-response","386","677799","0.0-386.0","null","null","","","","","","","","","","","","","","stimulus","","","2","39","","","","","","","","","",""
"","","","","","","","","","","","canvas-button-response","387","679258","0.0-387.0","1457","bridge","","","","","","","","","","","","","","perceptual","","","2","39","","","","","9","house","6","0","0",""
"","","","","","","","","","","","canvas-button-response","388","680425","0.0-388.0","1164","2","","","","","","","","","","","","","","confidence","","","2","39","","","","","","","","","","27"
"","","","","","","","","","","","preload","389","680426","0.0-389.0","","","","","true","","","","","","","","","","","preload","","","2","40","false","[]","[]","[]","","","","","",""
"","","","","","","","","","","","canvas-keyboard-response","390","680729","0.0-390.0","null","null","","","","","","","","","","","","","","fixation","","","2","40","","","","","","","","","",""
"","","","","","","","","","","","canvas-keyboard-response","391","681031","0.0-391.0","null","null","","","","","","","","","","","","","","stimulus","","","2","40","","","","","","","","","",""
"","","","","","","","","","","","canvas-button-response","392","682091","0.0-392.0","1058","train","","","","","","","","","","","","","","perceptual","","","2","40","","","","","267","train","10","0","1",""
"","","","","","","","","","","","canvas-button-response","393","682658","0.0-393.0","565","10","","","","","","","","","","","","","","confidence","","","2","40","","","","","","","","","","28"
"","","","","","","","","","","","preload","394","682659","0.0-394.0","","","","","true","","","","","","","","","","","preload","","","2","41","false","[]","[]","[]","","","","","",""
"","","","","","","","","","","","canvas-keyboard-response","395","682961","0.0-395.0","null","null","","","","","","","","","","","","","","fixation","","","2","41","","","","","","","","","",""
"","","","","","","","","","","","canvas-keyboard-response","396","683264","0.0-396.0","null","null","","","","","","","","","","","","","","stimulus","","","2","41","","","","","","","","","",""
"","","","","","","","","","","","canvas-button-response","397","684775","0.0-397.0","1508","bed","","","","","","","","","","","","","","perceptual","","","2","41","","","","","142","bed","10","0","1",""
"","","","","","","","","","","","canvas-button-response","398","685708","0.0-398.0","931","4","","","","","","","","","","","","","","confidence","","","2","41","","","","","","","","","","29"
"","","","","","","","","","","","preload","399","685709","0.0-399.0","","","","","true","","","","","","","","","","","preload","","","2","42","false","[]","[]","[]","","","","","",""
"","","","","","","","","","","","canvas-keyboard-response","400","686012","0.0-400.0","null","null","","","","","","","","","","","","","","fixation","","","2","42","","","","","","","","","",""
"","","","","","","","","","","","canvas-keyboard-response","401","686314","0.0-401.0","null","null","","","","","","","","","","","","","","stimulus","","","2","42","","","","","","","","","",""
"","","","","","","","","","","","canvas-button-response","402","689825","0.0-402.0","3508","house","","","","","","","","","","","","","","perceptual","","","2","42","","","","","119","phone","10","0","0",""
"","","","","","","","","","","","canvas-button-response","403","690858","0.0-403.0","1031","1","","","","","","","","","","","","","","confidence","","","2","42","","","","","","","","","","29"
"","","","","","","","","","","","preload","404","690859","0.0-404.0","","","","","true","","","","","","","","","","","preload","","","2","43","false","[]","[]","[]","","","","","",""
"","","","","","","","","","","","canvas-keyboard-response","405","691162","0.0-405.0","null","null","","","","","","","","","","","","","","fixation","","","2","43","","","","","","","","","",""
"","","","","","","","","","","","canvas-keyboard-response","406","691464","0.0-406.0","null","null","","","","","","","","","","","","","","stimulus","","","2","43","","","","","","","","","",""
"","","","","","","","","","","","canvas-button-response","407","692325","0.0-407.0","858","bed","","","","","","","","","","","","","","perceptual","","","2","43","","","","","121","bed","6","0","1",""
"","","","","","","","","","","","canvas-button-response","408","693058","0.0-408.0","731","10","","","","","","","","","","","","","","confidence","","","2","43","","","","","","","","","","30"
"","","","","","","","","","","","preload","409","693059","0.0-409.0","","","","","true","","","","","","","","","","","preload","","","2","44","false","[]","[]","[]","","","","","",""
"","","","","","","","","","","","canvas-keyboard-response","410","693362","0.0-410.0","null","null","","","","","","","","","","","","","","fixation","","","2","44","","","","","","","","","",""
"","","","","","","","","","","","canvas-keyboard-response","411","693664","0.0-411.0","null","null","","","","","","","","","","","","","","stimulus","","","2","44","","","","","","","","","",""
"","","","","","","","","","","","canvas-button-response","412","695157","0.0-412.0","1490","bed","","","","","","","","","","","","","","perceptual","","","2","44","","","","","158","bed","10","0","1",""
"","","","","","","","","","","","canvas-button-response","413","695908","0.0-413.0","749","10","","","","","","","","","","","","","","confidence","","","2","44","","","","","","","","","","31"
"","","","","","","","","","","","preload","414","695909","0.0-414.0","","","","","true","","","","","","","","","","","preload","","","2","45","false","[]","[]","[]","","","","","",""
"","","","","","","","","","","","canvas-keyboard-response","415","696212","0.0-415.0","null","null","","","","","","","","","","","","","","fixation","","","2","45","","","","","","","","","",""
"","","","","","","","","","","","canvas-keyboard-response","416","696514","0.0-416.0","null","null","","","","","","","","","","","","","","stimulus","","","2","45","","","","","","","","","",""
"","","","","","","","","","","","canvas-button-response","417","698274","0.0-417.0","1758","car","","","","","","","","","","","","","","perceptual","","","2","45","","","","","67","car","10","0","1",""
"","","","","","","","","","","","canvas-button-response","418","698989","0.0-418.0","713","10","","","","","","","","","","","","","","confidence","","","2","45","","","","","","","","","","32"
"","","","","","","","","","","","preload","419","698990","0.0-419.0","","","","","true","","","","","","","","","","","preload","","","2","46","false","[]","[]","[]","","","","","",""
"","","","","","","","","","","","canvas-keyboard-response","420","699292","0.0-420.0","null","null","","","","","","","","","","","","","","fixation","","","2","46","","","","","","","","","",""
"","","","","","","","","","","","canvas-keyboard-response","421","699594","0.0-421.0","null","null","","","","","","","","","","","","","","stimulus","","","2","46","","","","","","","","","",""
"","","","","","","","","","","","canvas-button-response","422","700373","0.0-422.0","777","car","","","","","","","","","","","","","","perceptual","","","2","46","","","","","73","car","10","0","1",""
"","","","","","","","","","","","canvas-button-response","423","701809","0.0-423.0","1433","6","","","","","","","","","","","","","","confidence","","","2","46","","","","","","","","","","33"
"","","","","","","","","","","","preload","424","701810","0.0-424.0","","","","","true","","","","","","","","","","","preload","","","2","47","false","[]","[]","[]","","","","","",""
"","","","","","","","","","","","canvas-keyboard-response","425","702112","0.0-425.0","null","null","","","","","","","","","","","","","","fixation","","","2","47","","","","","","","","","",""
"","","","","","","","","","","","canvas-keyboard-response","426","702416","0.0-426.0","null","null","","","","","","","","","","","","","","stimulus","","","2","47","","","","","","","","","",""
"","","","","","","","","","","","canvas-button-response","427","703157","0.0-427.0","739","knife","","","","","","","","","","","","","","perceptual","","","2","47","","","","","397","knife","10","0","1",""
"","","","","","","","","","","","canvas-button-response","428","704141","0.0-428.0","981","7","","","","","","","","","","","","","","confidence","","","2","47","","","","","","","","","","34"
"","","","","","","","","","","","preload","429","704142","0.0-429.0","","","","","true","","","","","","","","","","","preload","","","2","48","false","[]","[]","[]","","","","","",""
"","","","","","","","","","","","canvas-keyboard-response","430","704444","0.0-430.0","null","null","","","","","","","","","","","","","","fixation","","","2","48","","","","","","","","","",""
"","","","","","","","","","","","canvas-keyboard-response","431","704748","0.0-431.0","null","null","","","","","","","","","","","","","","stimulus","","","2","48","","","","","","","","","",""
"","","","","","","","","","","","canvas-button-response","432","705824","0.0-432.0","1074","elephant","","","","","","","","","","","","","","perceptual","","","2","48","","","","","333","elephant","6","0","1",""
"","","","","","","","","","","","canvas-button-response","433","706625","0.0-433.0","798","10","","","","","","","","","","","","","","confidence","","","2","48","","","","","","","","","","35"
"","","","","","","","","","","","preload","434","706626","0.0-434.0","","","","","true","","","","","","","","","","","preload","","","2","49","false","[]","[]","[]","","","","","",""
"","","","","","","","","","","","canvas-keyboard-response","435","706928","0.0-435.0","null","null","","","","","","","","","","","","","","fixation","","","2","49","","","","","","","","","",""
"","","","","","","","","","","","canvas-keyboard-response","436","707231","0.0-436.0","null","null","","","","","","","","","","","","","","stimulus","","","2","49","","","","","","","","","",""
"","","","","","","","","","","","canvas-button-response","437","712891","0.0-437.0","5659","bed","","","","","","","","","","","","","","perceptual","","","2","49","","","","","140","bed","10","0","1",""
"","","","","","","","","","","","canvas-button-response","438","713990","0.0-438.0","1097","2","","","","","","","","","","","","","","confidence","","","2","49","","","","","","","","","","36"
"","","","","","","","","","","","html-button-response","439","725374","0.0-439.0","11381","0","","","","","","","","","","","","","","<p style=""font-size:20px;color:#000000"">You got 36 out of 50 trials correct in this block.<br><br>You have completed 6% of the experiment.<br><br>Take a short break.<br><br>When you are ready, click Continue to proceed.","","","2","49","","","","","","","","","",""
"","","","","","","","","","","","html-keyboard-response","440","726375","0.0-440.0","null","null","","","","","","","","","","","","","","<p style=""font-size:32px;color:#000000""><br><br> RUN: &nbsp 1/4 <br><br> BLOCK: 2/4 ","","","2","49","","","","","","","","","",""
"","","","","","","","","","","","preload","441","726376","0.0-441.0","","","","","true","","","","","","","","","","","preload","","","2","50","false","[]","[]","[]","","","","","",""
"","","","","","","","","","","","canvas-keyboard-response","442","726678","0.0-442.0","null","null","","","","","","","","","","","","","","fixation","","","2","50","","","","","","","","","",""
"","","","","","","","","","","","canvas-keyboard-response","443","726979","0.0-443.0","null","null","","","","","","","","","","","","","","stimulus","","","2","50","","","","","","","","","",""
"","","","","","","","","","","","canvas-button-response","444","728124","0.0-444.0","1143","knife","","","","","","","","","","","","","","perceptual","","","2","50","","","","","398","knife","10","0","1",""
"","","","","","","","","","","","canvas-button-response","445","728792","0.0-445.0","666","10","","","","","","","","","","","","","","confidence","","","2","50","","","","","","","","","","1"
"","","","","","","","","","","","preload","446","728793","0.0-446.0","","","","","true","","","","","","","","","","","preload","","","2","51","false","[]","[]","[]","","","","","",""
"","","","","","","","","","","","canvas-keyboard-response","447","729094","0.0-447.0","null","null","","","","","","","","","","","","","","fixation","","","2","51","","","","","","","","","",""
"","","","","","","","","","","","canvas-keyboard-response","448","729396","0.0-448.0","null","null","","","","","","","","","","","","","","stimulus","","","2","51","","","","","","","","","",""
"","","","","","","","","","","","canvas-button-response","449","730941","0.0-449.0","1542","house","","","","","","","","","","","","","","perceptual","","","2","51","","","","","5","house","6","0","1",""
"","","","","","","","","","","","canvas-button-response","450","731724","0.0-450.0","781","10","","","","","","","","","","","","","","confidence","","","2","51","","","","","","","","","","2"
"","","","","","","","","","","","preload","451","731725","0.0-451.0","","","","","true","","","","","","","","","","","preload","","","2","52","false","[]","[]","[]","","","","","",""
"","","","","","","","","","","","canvas-keyboard-response","452","732027","0.0-452.0","null","null","","","","","","","","","","","","","","fixation","","","2","52","","","","","","","","","",""
"","","","","","","","","","","","canvas-keyboard-response","453","732330","0.0-453.0","null","null","","","","","","","","","","","","","","stimulus","","","2","52","","","","","","","","","",""
"","","","","","","","","","","","canvas-button-response","454","732907","0.0-454.0","575","knife","","","","","","","","","","","","","","perceptual","","","2","52","","","","","393","knife","10","0","1",""
"","","","","","","","","","","","canvas-button-response","455","733507","0.0-455.0","598","10","","","","","","","","","","","","","","confidence","","","2","52","","","","","","","","","","3"
"","","","","","","","","","","","preload","456","733508","0.0-456.0","","","","","true","","","","","","","","","","","preload","","","2","53","false","[]","[]","[]","","","","","",""
"","","","","","","","","","","","canvas-keyboard-response","457","733810","0.0-457.0","null","null","","","","","","","","","","","","","","fixation","","","2","53","","","","","","","","","",""
"","","","","","","","","","","","canvas-keyboard-response","458","734113","0.0-458.0","null","null","","","","","","","","","","","","","","stimulus","","","2","53","","","","","","","","","",""
"","","","","","","","","","","","canvas-button-response","459","735339","0.0-459.0","1224","bed","","","","","","","","","","","","","","perceptual","","","2","53","","","","","90","phone","6","0","0",""
"","","","","","","","","","","","canvas-button-response","460","736139","0.0-460.0","798","7","","","","","","","","","","","","","","confidence","","","2","53","","","","","","","","","","3"
"","","","","","","","","","","","preload","461","736140","0.0-461.0","","","","","true","","","","","","","","","","","preload","","","2","54","false","[]","[]","[]","","","","","",""
"","","","","","","","","","","","canvas-keyboard-response","462","736443","0.0-462.0","null","null","","","","","","","","","","","","","","fixation","","","2","54","","","","","","","","","",""
"","","","","","","","","","","","canvas-keyboard-response","463","736747","0.0-463.0","null","null","","","","","","","","","","","","","","stimulus","","","2","54","","","","","","","","","",""
"","","","","","","","","","","","canvas-button-response","464","739174","0.0-464.0","2424","house","","","","","","","","","","","","","","perceptual","","","2","54","","","","","127","bed","6","0","0",""
"","","","","","","","","","","","canvas-button-response","465","740822","0.0-465.0","1646","3","","","","","","","","","","","","","","confidence","","","2","54","","","","","","","","","","3"
"","","","","","","","","","","","preload","466","740823","0.0-466.0","","","","","true","","","","","","","","","","","preload","","","2","55","false","[]","[]","[]","","","","","",""
"","","","","","","","","","","","canvas-keyboard-response","467","741125","0.0-467.0","null","null","","","","","","","","","","","","","","fixation","","","2","55","","","","","","","","","",""
"","","","","","","","","","","","canvas-keyboard-response","468","741427","0.0-468.0","null","null","","","","","","","","","","","","","","stimulus","","","2","55","","","","","","","","","",""
"","","","","","","","","","","","canvas-button-response","469","742305","0.0-469.0","876","train","","","","","","","","","","","","","","perceptual","","","2","55","","","","","243","train","6","0","1",""
"","","","","","","","","","","","canvas-button-response","470","742824","0.0-470.0","517","10","","","","","","","","","","","","","","confidence","","","2","55","","","","","","","","","","4"
"","","","","","","","","","","","preload","471","742825","0.0-471.0","","","","","true","","","","","","","","","","","preload","","","2","56","false","[]","[]","[]","","","","","",""
"","","","","","","","","","","","canvas-keyboard-response","472","743126","0.0-472.0","null","null","","","","","","","","","","","","","","fixation","","","2","56","","","","","","","","","",""
"","","","","","","","","","","","canvas-keyboard-response","473","743428","0.0-473.0","null","null","","","","","","","","","","","","","","stimulus","","","2","56","","","","","","","","","",""
"","","","","","","","","","","","canvas-button-response","474","744740","0.0-474.0","1310","flower","","","","","","","","","","","","","","perceptual","","","2","56","","","","","309","cat","10","0","0",""
"","","","","","","","","","","","canvas-button-response","475","745690","0.0-475.0","948","7","","","","","","","","","","","","","","confidence","","","2","56","","","","","","","","","","4"
"","","","","","","","","","","","preload","476","745691","0.0-476.0","","","","","true","","","","","","","","","","","preload","","","2","57","false","[]","[]","[]","","","","","",""
"","","","","","","","","","","","canvas-keyboard-response","477","745994","0.0-477.0","null","null","","","","","","","","","","","","","","fixation","","","2","57","","","","","","","","","",""
"","","","","","","","","","","","canvas-keyboard-response","478","746296","0.0-478.0","null","null","","","","","","","","","","","","","","stimulus","","","2","57","","","","","","","","","",""
"","","","","","","","","","","","canvas-button-response","479","747707","0.0-479.0","1409","car","","","","","","","","","","","","","","perceptual","","","2","57","","","","","53","car","6","0","1",""
"","","","","","","","","","","","canvas-button-response","480","748641","0.0-480.0","931","10","","","","","","","","","","","","","","confidence","","","2","57","","","","","","","","","","5"
"","","","","","","","","","","","preload","481","748642","0.0-481.0","","","","","true","","","","","","","","","","","preload","","","2","58","false","[]","[]","[]","","","","","",""
"","","","","","","","","","","","canvas-keyboard-response","482","748944","0.0-482.0","null","null","","","","","","","","","","","","","","fixation","","","2","58","","","","","","","","","",""
"","","","","","","","","","","","canvas-keyboard-response","483","749246","0.0-483.0","null","null","","","","","","","","","","","","","","stimulus","","","2","58","","","","","","","","","",""
"","","","","","","","","","","","canvas-button-response","484","750306","0.0-484.0","1058","knife","","","","","","","","","","","","","","perceptual","","","2","58","","","","","363","knife","6","0","1",""
"","","","","","","","","","","","canvas-button-response","485","750739","0.0-485.0","431","7","","","","","","","","","","","","","","confidence","","","2","58","","","","","","","","","","6"
"","","","","","","","","","","","preload","486","750740","0.0-486.0","","","","","true","","","","","","","","","","","preload","","","2","59","false","[]","[]","[]","","","","","",""
"","","","","","","","","","","","canvas-keyboard-response","487","751043","0.0-487.0","null","null","","","","","","","","","","","","","","fixation","","","2","59","","","","","","","","","",""
"","","","","","","","","","","","canvas-keyboard-response","488","751345","0.0-488.0","null","null","","","","","","","","","","","","","","stimulus","","","2","59","","","","","","","","","",""
"","","","","","","","","","","","canvas-button-response","489","752790","0.0-489.0","1442","flower","","","","","","","","","","","","","","perceptual","","","2","59","","","","","300","cat","10","0","0",""
"","","","","","","","","","","","canvas-button-response","490","753473","0.0-490.0","681","0","","","","","","","","","","","","","","confidence","","","2","59","","","","","","","","","","6"
"","","","","","","","","","","","preload","491","753474","0.0-491.0","","","","","true","","","","","","","","","","","preload","","","2","60","false","[]","[]","[]","","","","","",""
"","","","","","","","","","","","canvas-keyboard-response","492","753776","0.0-492.0","null","null","","","","","","","","","","","","","","fixation","","","2","60","","","","","","","","","",""
"","","","","","","","","","","","canvas-keyboard-response","493","754078","0.0-493.0","null","null","","","","","","","","","","","","","","stimulus","","","2","60","","","","","","","","","",""
