"width","height","webaudio","browser","browser_version","mobile","os","fullscreen","vsync_rate","webcam","microphone","trial_type","trial_index","time_elapsed","internal_node_id","rt","response","accuracy","view_history","success","item_width_mm","item_height_mm","item_width_px","px2mm","view_dist_mm","item_width_deg","px2deg","scale_factor","win_width_deg","win_height_deg","stimulus","datetime","subjectID","curr_triallist","trial_no","timeout","failed_images","failed_audio","failed_video","image_index","category","blur","reps","correct","running_score"
"1366","649","true","chrome","114.0.0","false","Chrome OS","true","61.03","true","true","browser-check","0","1009","0.0-0.0","","","","","","","","","","","","","","","","","","","","","","","","","","","","","",""
"","","","","","","","","","","","survey","1","245295","0.0-1.0","244095","{""P0_Q0"":""904166508"",""P0_Q1"":""18"",""P1_Q0"":""Male"",""P1_Q1"":""Not Hispanic or Latino"",""P1_Q2"":""Asian"",""P1_Q3"":""Normal"",""P1_Q4"":""Right-Handed""}","[]","","","","","","","","","","","","","","","","","","","","","","","","","","",""
"","","","","","","","","","","","instructions","2","252781","0.0-2.0","7478","","","[{""page_index"":0,""viewing_time"":1411},{""page_index"":1,""viewing_time"":2985},{""page_index"":2,""viewing_time"":1920},{""page_index"":3,""viewing_time"":1162}]","","","","","","","","","","","","","","","","","","","","","","","","","",""
"","","","","","","","","","","","fullscreen","3","254804","0.0-3.0","1012","","","","true","","","","","","","","","","","","","","","","","","","","","","","","",""
"","","","","","","","","","","","virtual-chinrest","4","320328","0.0-4.0","65517","","","","","85.6","53.98","206.73000551836563","2.4140946898480156","710.87","6.891000183945521","30","2.970057483723392","45.53333333333333","25.6","","","","","","","","","","","","","","",""
"","","","","","","","","","","","instructions","5","366857","0.0-5.0","46528","","","[{""page_index"":0,""viewing_time"":2787},{""page_index"":1,""viewing_time"":14236},{""page_index"":2,""viewing_time"":509},{""page_index"":3,""viewing_time"":230},{""page_index"":4,""viewing_time"":13234},{""page_index"":5,""viewing_time"":14467},{""page_index"":6,""viewing_time"":1066}]","","","","","","","","","","","","","","","","","","","","","","","","","",""
"","","","","","","","","","","","html-button-response","6","370090","0.0-6.0","3225","0","","","","","","","","","","","","","","start_practice","Sat Oct 18 2025 19:28:53 GMT-0400 (Eastern Daylight Time)","27797","","","","","","","","","","","",""
"","","","","","","","","","","","preload","7","370094","0.0-7.0","","","","","true","","","","","","","","","","","preload","","","0","0","false","[]","[]","[]","","","","","",""
"","","","","","","","","","","","canvas-keyboard-response","8","370438","0.0-8.0","null","null","","","","","","","","","","","","","","fixation","","","0","0","","","","","","","","","",""
"","","","","","","","","","","","canvas-keyboard-response","9","370748","0.0-9.0","null","null","","","","","","","","","","","","","","stimulus","","","0","0","","","","","","","","","",""
"","","","","","","","","","","","canvas-button-response","10","374515","0.0-10.0","3761","bridge","","","","","","","","","","","","","","perceptual","","","0","0","","","","","42","bridge","1","","1",""
"","","","","","","","","","","","canvas-button-response","11","376133","0.0-11.0","1611","5","","","","","","","","","","","","","","confidence","","","0","0","","","","","","","","","","1"
"","","","","","","","","","","","html-keyboard-response","12","377138","0.0-12.0","null","null","","","","","","","","","","","","","","feedback","Sat Oct 18 2025 19:29:02 GMT-0400 (Eastern Daylight Time)","27797","0","0","","","","","","","","","",""
"","","","","","","","","","","","preload","13","377139","0.0-13.0","","","","","true","","","","","","","","","","","preload","","","0","1","false","[]","[]","[]","","","","","",""
"","","","","","","","","","","","canvas-keyboard-response","14","377445","0.0-14.0","null","null","","","","","","","","","","","","","","fixation","","","0","1","","","","","","","","","",""
"","","","","","","","","","","","canvas-keyboard-response","15","377748","0.0-15.0","null","null","","","","","","","","","","","","","","stimulus","","","0","1","","","","","","","","","",""
"","","","","","","","","","","","canvas-button-response","16","380049","0.0-16.0","2294","phone","","","","","","","","","","","","","","perceptual","","","0","1","","","","","22","phone","1","","1",""
"","","","","","","","","","","","canvas-button-response","17","382686","0.0-17.0","2631","8","","","","","","","","","","","","","","confidence","","","0","1","","","","","","","","","","2"
"","","","","","","","","","","","html-keyboard-response","18","383692","0.0-18.0","null","null","","","","","","","","","","","","","","feedback","Sat Oct 18 2025 19:29:09 GMT-0400 (Eastern Daylight Time)","27797","0","1","","","","","","","","","",""
"","","","","","","","","","","","preload","19","383694","0.0-19.0","","","","","true","","","","","","","","","","","preload","","","0","2","false","[]","[]","[]","","","","","",""
"","","","","","","","","","","","canvas-keyboard-response","20","384004","0.0-20.0","null","null","","","","","","","","","","","","","","fixation","","","0","2","","","","","","","","","",""
"","","","","","","","","","","","canvas-keyboard-response","21","384309","0.0-21.0","null","null","","","","","","","","","","","","","","stimulus","","","0","2","","","","","","","","","",""
"","","","","","","","","","","","canvas-button-response","22","387897","0.0-22.0","3582","cat","","","","","","","","","","","","","","perceptual","","","0","2","","","","","82","elephant","1","","0",""
"","","","","","","","","","","","canvas-button-response","23","389093","0.0-23.0","1188","6","","","","","","","","","","","","","","confidence","","","0","2","","","","","","","","","","2"
"","","","","","","","","","","","html-keyboard-response","24","390100","0.0-24.0","null","null","","","","","","","","","","","","","","feedback","Sat Oct 18 2025 19:29:15 GMT-0400 (Eastern Daylight Time)","27797","0","2","","","","","","","","","",""
"","","","","","","","","","","","preload","25","390101","0.0-25.0","","","","","true","","","","","","","","","","","preload","","","0","3","false","[]","[]","[]","","","","","",""
"","","","","","","","","","","","canvas-keyboard-response","26","390404","0.0-26.0","null","null","","","","","","","","","","","","","","fixation","","","0","3","","","","","","","","","",""
"","","","","","","","","","","","canvas-keyboard-response","27","390708","0.0-27.0","null","null","","","","","","","","","","","","","","stimulus","","","0","3","","","","","","","","","",""
"","","","","","","","","","","","canvas-button-response","28","398527","0.0-28.0","7815","house","","","","","","","","","","","","","","perceptual","","","0","3","","","","","32","bed","1","","0",""
"","","","","","","","","","","","canvas-button-response","29","399594","0.0-29.0","1061","4","","","","","","","","","","","","","","confidence","","","0","3","","","","","","","","","","2"
"","","","","","","","","","","","html-keyboard-response","30","400605","0.0-30.0","null","null","","","","","","","","","","","","","","feedback","Sat Oct 18 2025 19:29:26 GMT-0400 (Eastern Daylight Time)","27797","0","3","","","","","","","","","",""
"","","","","","","","","","","","preload","31","400606","0.0-31.0","","","","","true","","","","","","","","","","","preload","","","0","4","false","[]","[]","[]","","","","","",""
"","","","","","","","","","","","canvas-keyboard-response","32","400916","0.0-32.0","null","null","","","","","","","","","","","","","","fixation","","","0","4","","","","","","","","","",""
"","","","","","","","","","","","canvas-keyboard-response","33","401220","0.0-33.0","null","null","","","","","","","","","","","","","","stimulus","","","0","4","","","","","","","","","",""
"","","","","","","","","","","","canvas-button-response","34","402189","0.0-34.0","963","car","","","","","","","","","","","","","","perceptual","","","0","4","","","","","12","car","1","","1",""
"","","","","","","","","","","","canvas-button-response","35","403066","0.0-35.0","871","6","","","","","","","","","","","","","","confidence","","","0","4","","","","","","","","","","3"
"","","","","","","","","","","","html-keyboard-response","36","404077","0.0-36.0","null","null","","","","","","","","","","","","","","feedback","Sat Oct 18 2025 19:29:29 GMT-0400 (Eastern Daylight Time)","27797","0","4","","","","","","","","","",""
"","","","","","","","","","","","preload","37","404079","0.0-37.0","","","","","true","","","","","","","","","","","preload","","","0","5","false","[]","[]","[]","","","","","",""
"","","","","","","","","","","","canvas-keyboard-response","38","404388","0.0-38.0","null","null","","","","","","","","","","","","","","fixation","","","0","5","","","","","","","","","",""
"","","","","","","","","","","","canvas-keyboard-response","39","404692","0.0-39.0","null","null","","","","","","","","","","","","","","stimulus","","","0","5","","","","","","","","","",""
"","","","","","","","","","","","canvas-button-response","40","407235","0.0-40.0","2538","house","","","","","","","","","","","","","","perceptual","","","0","5","","","","","52","flower","1","","0",""
"","","","","","","","","","","","canvas-button-response","41","408501","0.0-41.0","1260","7","","","","","","","","","","","","","","confidence","","","0","5","","","","","","","","","","3"
"","","","","","","","","","","","html-keyboard-response","42","409509","0.0-42.0","null","null","","","","","","","","","","","","","","feedback","Sat Oct 18 2025 19:29:35 GMT-0400 (Eastern Daylight Time)","27797","0","5","","","","","","","","","",""
"","","","","","","","","","","","preload","43","409511","0.0-43.0","","","","","true","","","","","","","","","","","preload","","","0","6","false","[]","[]","[]","","","","","",""
"","","","","","","","","","","","canvas-keyboard-response","44","409820","0.0-44.0","null","null","","","","","","","","","","","","","","fixation","","","0","6","","","","","","","","","",""
"","","","","","","","","","","","canvas-keyboard-response","45","410156","0.0-45.0","null","null","","","","","","","","","","","","","","stimulus","","","0","6","","","","","","","","","",""
"","","","","","","","","","","","canvas-button-response","46","412195","0.0-46.0","2034","house","","","","","","","","","","","","","","perceptual","","","0","6","","","","","2","house","1","","1",""
"","","","","","","","","","","","canvas-button-response","47","412977","0.0-47.0","777","5","","","","","","","","","","","","","","confidence","","","0","6","","","","","","","","","","4"
"","","","","","","","","","","","html-keyboard-response","48","413983","0.0-48.0","null","null","","","","","","","","","","","","","","feedback","Sat Oct 18 2025 19:29:39 GMT-0400 (Eastern Daylight Time)","27797","0","6","","","","","","","","","",""
"","","","","","","","","","","","preload","49","413984","0.0-49.0","","","","","true","","","","","","","","","","","preload","","","0","7","false","[]","[]","[]","","","","","",""
"","","","","","","","","","","","canvas-keyboard-response","50","414292","0.0-50.0","null","null","","","","","","","","","","","","","","fixation","","","0","7","","","","","","","","","",""
"","","","","","","","","","","","canvas-keyboard-response","51","414596","0.0-51.0","null","null","","","","","","","","","","","","","","stimulus","","","0","7","","","","","","","","","",""
"","","","","","","","","","","","canvas-button-response","52","425628","0.0-52.0","11027","cat","","","","","","","","","","","","","","perceptual","","","0","7","","","","","92","knife","1","","0",""
"","","","","","","","","","","","canvas-button-response","53","426709","0.0-53.0","1073","3","","","","","","","","","","","","","","confidence","","","0","7","","","","","","","","","","4"
"","","","","","","","","","","","html-keyboard-response","54","427716","0.0-54.0","null","null","","","","","","","","","","","","","","feedback","Sat Oct 18 2025 19:29:53 GMT-0400 (Eastern Daylight Time)","27797","0","7","","","","","","","","","",""
"","","","","","","","","","","","preload","55","427718","0.0-55.0","","","","","true","","","","","","","","","","","preload","","","0","8","false","[]","[]","[]","","","","","",""
"","","","","","","","","","","","canvas-keyboard-response","56","428029","0.0-56.0","null","null","","","","","","","","","","","","","","fixation","","","0","8","","","","","","","","","",""
"","","","","","","","","","","","canvas-keyboard-response","57","428332","0.0-57.0","null","null","","","","","","","","","","","","","","stimulus","","","0","8","","","","","","","","","",""
"","","","","","","","","","","","canvas-button-response","58","429493","0.0-58.0","1156","cat","","","","","","","","","","","","","","perceptual","","","0","8","","","","","72","cat","1","","1",""
"","","","","","","","","","","","canvas-button-response","59","430195","0.0-59.0","696","6","","","","","","","","","","","","","","confidence","","","0","8","","","","","","","","","","5"
"","","","","","","","","","","","html-keyboard-response","60","431202","0.0-60.0","null","null","","","","","","","","","","","","","","feedback","Sat Oct 18 2025 19:29:57 GMT-0400 (Eastern Daylight Time)","27797","0","8","","","","","","","","","",""
"","","","","","","","","","","","preload","61","431204","0.0-61.0","","","","","true","","","","","","","","","","","preload","","","0","9","false","[]","[]","[]","","","","","",""
"","","","","","","","","","","","canvas-keyboard-response","62","431508","0.0-62.0","null","null","","","","","","","","","","","","","","fixation","","","0","9","","","","","","","","","",""
"","","","","","","","","","","","canvas-keyboard-response","63","431813","0.0-63.0","null","null","","","","","","","","","","","","","","stimulus","","","0","9","","","","","","","","","",""
"","","","","","","","","","","","canvas-button-response","64","435348","0.0-64.0","3529","train","","","","","","","","","","","","","","perceptual","","","0","9","","","","","62","train","1","","1",""
"","","","","","","","","","","","canvas-button-response","65","438595","0.0-65.0","3242","7","","","","","","","","","","","","","","confidence","","","0","9","","","","","","","","","","6"
"","","","","","","","","","","","html-keyboard-response","66","439598","0.0-66.0","null","null","","","","","","","","","","","","","","feedback","Sat Oct 18 2025 19:30:05 GMT-0400 (Eastern Daylight Time)","27797","0","9","","","","","","","","","",""
"","","","","","","","","","","","html-button-response","67","443103","0.0-67.0","3502","0","","","","","","","","","","","","","","start_practice","Sat Oct 18 2025 19:30:06 GMT-0400 (Eastern Daylight Time)","27797","0","9","","","","","","","","","",""
"","","","","","","","","","","","preload","68","443106","0.0-68.0","","","","","true","","","","","","","","","","","preload","","","1","0","false","[]","[]","[]","","","","","",""
"","","","","","","","","","","","canvas-keyboard-response","69","443412","0.0-69.0","null","null","","","","","","","","","","","","","","fixation","","","1","0","","","","","","","","","",""
"","","","","","","","","","","","canvas-keyboard-response","70","443716","0.0-70.0","null","null","","","","","","","","","","","","","","stimulus","","","1","0","","","","","","","","","",""
"","","","","","","","","","","","canvas-button-response","71","459600","0.0-71.0","15880","house","","","","","","","","","","","","","","perceptual","","","1","0","","","","","34","bed","6","","0",""
"","","","","","","","","","","","canvas-button-response","72","460193","0.0-72.0","586","4","","","","","","","","","","","","","","confidence","","","1","0","","","","","","","","","","0"
"","","","","","","","","","","","html-keyboard-response","73","461199","0.0-73.0","null","null","","","","","","","","","","","","","","feedback","Sat Oct 18 2025 19:30:27 GMT-0400 (Eastern Daylight Time)","27797","1","0","","","","","","","","","",""
"","","","","","","","","","","","preload","74","461200","0.0-74.0","","","","","true","","","","","","","","","","","preload","","","1","1","false","[]","[]","[]","","","","","",""
"","","","","","","","","","","","canvas-keyboard-response","75","461509","0.0-75.0","null","null","","","","","","","","","","","","","","fixation","","","1","1","","","","","","","","","",""
"","","","","","","","","","","","canvas-keyboard-response","76","461812","0.0-76.0","null","null","","","","","","","","","","","","","","stimulus","","","1","1","","","","","","","","","",""
"","","","","","","","","","","","canvas-button-response","77","463651","0.0-77.0","1834","car","","","","","","","","","","","","","","perceptual","","","1","1","","","","","94","knife","6","","0",""
"","","","","","","","","","","","canvas-button-response","78","464259","0.0-78.0","603","5","","","","","","","","","","","","","","confidence","","","1","1","","","","","","","","","","0"
"","","","","","","","","","","","html-keyboard-response","79","465266","0.0-79.0","null","null","","","","","","","","","","","","","","feedback","Sat Oct 18 2025 19:30:31 GMT-0400 (Eastern Daylight Time)","27797","1","1","","","","","","","","","",""
"","","","","","","","","","","","preload","80","465267","0.0-80.0","","","","","true","","","","","","","","","","","preload","","","1","2","false","[]","[]","[]","","","","","",""
"","","","","","","","","","","","canvas-keyboard-response","81","465572","0.0-81.0","null","null","","","","","","","","","","","","","","fixation","","","1","2","","","","","","","","","",""
"","","","","","","","","","","","canvas-keyboard-response","82","465876","0.0-82.0","null","null","","","","","","","","","","","","","","stimulus","","","1","2","","","","","","","","","",""
"","","","","","","","","","","","canvas-button-response","83","467308","0.0-83.0","1427","bridge","","","","","","","","","","","","","","perceptual","","","1","2","","","","","17","car","10","","0",""
"","","","","","","","","","","","canvas-button-response","84","468086","0.0-84.0","772","4","","","","","","","","","","","","","","confidence","","","1","2","","","","","","","","","","0"
"","","","","","","","","","","","html-keyboard-response","85","469092","0.0-85.0","null","null","","","","","","","","","","","","","","feedback","Sat Oct 18 2025 19:30:34 GMT-0400 (Eastern Daylight Time)","27797","1","2","","","","","","","","","",""
"","","","","","","","","","","","preload","86","469093","0.0-86.0","","","","","true","","","","","","","","","","","preload","","","1","3","false","[]","[]","[]","","","","","",""
"","","","","","","","","","","","canvas-keyboard-response","87","469396","0.0-87.0","null","null","","","","","","","","","","","","","","fixation","","","1","3","","","","","","","","","",""
"","","","","","","","","","","","canvas-keyboard-response","88","469732","0.0-88.0","null","null","","","","","","","","","","","","","","stimulus","","","1","3","","","","","","","","","",""
"","","","","","","","","","","","canvas-button-response","89","471144","0.0-89.0","1408","phone","","","","","","","","","","","","","","perceptual","","","1","3","","","","","74","cat","6","","0",""
"","","","","","","","","","","","canvas-button-response","90","472134","0.0-90.0","986","6","","","","","","","","","","","","","","confidence","","","1","3","","","","","","","","","","0"
"","","","","","","","","","","","html-keyboard-response","91","473141","0.0-91.0","null","null","","","","","","","","","","","","","","feedback","Sat Oct 18 2025 19:30:38 GMT-0400 (Eastern Daylight Time)","27797","1","3","","","","","","","","","",""
"","","","","","","","","","","","preload","92","473143","0.0-92.0","","","","","true","","","","","","","","","","","preload","","","1","4","false","[]","[]","[]","","","","","",""
"","","","","","","","","","","","canvas-keyboard-response","93","473452","0.0-93.0","null","null","","","","","","","","","","","","","","fixation","","","1","4","","","","","","","","","",""
"","","","","","","","","","","","canvas-keyboard-response","94","473756","0.0-94.0","null","null","","","","","","","","","","","","","","stimulus","","","1","4","","","","","","","","","",""
"","","","","","","","","","","","canvas-button-response","95","475039","0.0-95.0","1277","cat","","","","","","","","","","","","","","perceptual","","","1","4","","","","","67","train","10","","0",""
"","","","","","","","","","","","canvas-button-response","96","475745","0.0-96.0","696","6","","","","","","","","","","","","","","confidence","","","1","4","","","","","","","","","","0"
"","","","","","","","","","","","html-keyboard-response","97","476757","0.0-97.0","null","null","","","","","","","","","","","","","","feedback","Sat Oct 18 2025 19:30:42 GMT-0400 (Eastern Daylight Time)","27797","1","4","","","","","","","","","",""
"","","","","","","","","","","","preload","98","476759","0.0-98.0","","","","","true","","","","","","","","","","","preload","","","1","5","false","[]","[]","[]","","","","","",""
"","","","","","","","","","","","canvas-keyboard-response","99","477069","0.0-99.0","null","null","","","","","","","","","","","","","","fixation","","","1","5","","","","","","","","","",""
"","","","","","","","","","","","canvas-keyboard-response","100","477374","0.0-100.0","null","null","","","","","","","","","","","","","","stimulus","","","1","5","","","","","","","","","",""
"","","","","","","","","","","","canvas-button-response","101","478835","0.0-101.0","1454","phone","","","","","","","","","","","","","","perceptual","","","1","5","","","","","87","elephant","10","","0",""
"","","","","","","","","","","","canvas-button-response","102","479519","0.0-102.0","679","6","","","","","","","","","","","","","","confidence","","","1","5","","","","","","","","","","0"
"","","","","","","","","","","","html-keyboard-response","103","480524","0.0-103.0","null","null","","","","","","","","","","","","","","feedback","Sat Oct 18 2025 19:30:46 GMT-0400 (Eastern Daylight Time)","27797","1","5","","","","","","","","","",""
"","","","","","","","","","","","preload","104","480525","0.0-104.0","","","","","true","","","","","","","","","","","preload","","","1","6","false","[]","[]","[]","","","","","",""
"","","","","","","","","","","","canvas-keyboard-response","105","480829","0.0-105.0","null","null","","","","","","","","","","","","","","fixation","","","1","6","","","","","","","","","",""
"","","","","","","","","","","","canvas-keyboard-response","106","481132","0.0-106.0","null","null","","","","","","","","","","","","","","stimulus","","","1","6","","","","","","","","","",""
"","","","","","","","","","","","canvas-button-response","107","481858","0.0-107.0","721","bridge","","","","","","","","","","","","","","perceptual","","","1","6","","","","","14","car","6","","0",""
"","","","","","","","","","","","canvas-button-response","108","482525","0.0-108.0","657","4","","","","","","","","","","","","","","confidence","","","1","6","","","","","","","","","","0"
"","","","","","","","","","","","html-keyboard-response","109","483533","0.0-109.0","null","null","","","","","","","","","","","","","","feedback","Sat Oct 18 2025 19:30:49 GMT-0400 (Eastern Daylight Time)","27797","1","6","","","","","","","","","",""
"","","","","","","","","","","","preload","110","483536","0.0-110.0","","","","","true","","","","","","","","","","","preload","","","1","7","false","[]","[]","[]","","","","","",""
"","","","","","","","","","","","canvas-keyboard-response","111","483845","0.0-111.0","null","null","","","","","","","","","","","","","","fixation","","","1","7","","","","","","","","","",""
"","","","","","","","","","","","canvas-keyboard-response","112","484149","0.0-112.0","null","null","","","","","","","","","","","","","","stimulus","","","1","7","","","","","","","","","",""
"","","","","","","","","","","","canvas-button-response","113","484629","0.0-113.0","471","knife","","","","","","","","","","","","","","perceptual","","","1","7","","","","","77","cat","10","","0",""
"","","","","","","","","","","","canvas-button-response","114","485218","0.0-114.0","581","5","","","","","","","","","","","","","","confidence","","","1","7","","","","","","","","","","0"
"","","","","","","","","","","","html-keyboard-response","115","486229","0.0-115.0","null","null","","","","","","","","","","","","","","feedback","Sat Oct 18 2025 19:30:52 GMT-0400 (Eastern Daylight Time)","27797","1","7","","","","","","","","","",""
"","","","","","","","","","","","preload","116","486231","0.0-116.0","","","","","true","","","","","","","","","","","preload","","","1","8","false","[]","[]","[]","","","","","",""
"","","","","","","","","","","","canvas-keyboard-response","117","486541","0.0-117.0","null","null","","","","","","","","","","","","","","fixation","","","1","8","","","","","","","","","",""
"","","","","","","","","","","","canvas-keyboard-response","118","486852","0.0-118.0","null","null","","","","","","","","","","","","","","stimulus","","","1","8","","","","","","","","","",""
"","","","","","","","","","","","canvas-button-response","119","488124","0.0-119.0","1268","phone","","","","","","","","","","","","","","perceptual","","","1","8","","","","","37","bed","10","","0",""
"","","","","","","","","","","","canvas-button-response","120","488689","0.0-120.0","558","7","","","","","","","","","","","","","","confidence","","","1","8","","","","","","","","","","0"
"","","","","","","","","","","","html-keyboard-response","121","489701","0.0-121.0","null","null","","","","","","","","","","","","","","feedback","Sat Oct 18 2025 19:30:55 GMT-0400 (Eastern Daylight Time)","27797","1","8","","","","","","","","","",""
"","","","","","","","","","","","preload","122","489706","0.0-122.0","","","","","true","","","","","","","","","","","preload","","","1","9","false","[]","[]","[]","","","","","",""
"","","","","","","","","","","","canvas-keyboard-response","123","490013","0.0-123.0","null","null","","","","","","","","","","","","","","fixation","","","1","9","","","","","","","","","",""
"","","","","","","","","","","","canvas-keyboard-response","124","490325","0.0-124.0","null","null","","","","","","","","","","","","","","stimulus","","","1","9","","","","","","","","","",""
"","","","","","","","","","","","canvas-button-response","125","491691","0.0-125.0","1360","house","","","","","","","","","","","","","","perceptual","","","1","9","","","","","7","house","10","","1",""
"","","","","","","","","","","","canvas-button-response","126","492164","0.0-126.0","468","3","","","","","","","","","","","","","","confidence","","","1","9","","","","","","","","","","1"
"","","","","","","","","","","","html-keyboard-response","127","493173","0.0-127.0","null","null","","","","","","","","","","","","","","feedback","Sat Oct 18 2025 19:30:58 GMT-0400 (Eastern Daylight Time)","27797","1","9","","","","","","","","","",""
"","","","","","","","","","","","preload","128","493175","0.0-128.0","","","","","true","","","","","","","","","","","preload","","","1","10","false","[]","[]","[]","","","","","",""
"","","","","","","","","","","","canvas-keyboard-response","129","493485","0.0-129.0","null","null","","","","","","","","","","","","","","fixation","","","1","10","","","","","","","","","",""
"","","","","","","","","","","","canvas-keyboard-response","130","493789","0.0-130.0","null","null","","","","","","","","","","","","","","stimulus","","","1","10","","","","","","","","","",""
"","","","","","","","","","","","canvas-button-response","131","496966","0.0-131.0","3171","train","","","","","","","","","","","","","","perceptual","","","1","10","","","","","64","train","6","","1",""
"","","","","","","","","","","","canvas-button-response","132","497636","0.0-132.0","665","6","","","","","","","","","","","","","","confidence","","","1","10","","","","","","","","","","2"
"","","","","","","","","","","","html-keyboard-response","133","498643","0.0-133.0","null","null","","","","","","","","","","","","","","feedback","Sat Oct 18 2025 19:31:04 GMT-0400 (Eastern Daylight Time)","27797","1","10","","","","","","","","","",""
"","","","","","","","","","","","preload","134","498645","0.0-134.0","","","","","true","","","","","","","","","","","preload","","","1","11","false","[]","[]","[]","","","","","",""
"","","","","","","","","","","","canvas-keyboard-response","135","498948","0.0-135.0","null","null","","","","","","","","","","","","","","fixation","","","1","11","","","","","","","","","",""
"","","","","","","","","","","","canvas-keyboard-response","136","499252","0.0-136.0","null","null","","","","","","","","","","","","","","stimulus","","","1","11","","","","","","","","","",""
"","","","","","","","","","","","canvas-button-response","137","500697","0.0-137.0","1439","bridge","","","","","","","","","","","","","","perceptual","","","1","11","","","","","24","phone","6","","0",""
"","","","","","","","","","","","canvas-button-response","138","501404","0.0-138.0","700","4","","","","","","","","","","","","","","confidence","","","1","11","","","","","","","","","","2"
"","","","","","","","","","","","html-keyboard-response","139","502413","0.0-139.0","null","null","","","","","","","","","","","","","","feedback","Sat Oct 18 2025 19:31:08 GMT-0400 (Eastern Daylight Time)","27797","1","11","","","","","","","","","",""
"","","","","","","","","","","","preload","140","502416","0.0-140.0","","","","","true","","","","","","","","","","","preload","","","1","12","false","[]","[]","[]","","","","","",""
"","","","","","","","","","","","canvas-keyboard-response","141","502725","0.0-141.0","null","null","","","","","","","","","","","","","","fixation","","","1","12","","","","","","","","","",""
"","","","","","","","","","","","canvas-keyboard-response","142","503037","0.0-142.0","null","null","","","","","","","","","","","","","","stimulus","","","1","12","","","","","","","","","",""
"","","","","","","","","","","","canvas-button-response","143","505658","0.0-143.0","2616","bridge","","","","","","","","","","","","","","perceptual","","","1","12","","","","","84","elephant","6","","0",""
"","","","","","","","","","","","canvas-button-response","144","506281","0.0-144.0","617","4","","","","","","","","","","","","","","confidence","","","1","12","","","","","","","","","","2"
"","","","","","","","","","","","html-keyboard-response","145","507285","0.0-145.0","null","null","","","","","","","","","","","","","","feedback","Sat Oct 18 2025 19:31:13 GMT-0400 (Eastern Daylight Time)","27797","1","12","","","","","","","","","",""
"","","","","","","","","","","","preload","146","507287","0.0-146.0","","","","","true","","","","","","","","","","","preload","","","1","13","false","[]","[]","[]","","","","","",""
"","","","","","","","","","","","canvas-keyboard-response","147","507597","0.0-147.0","null","null","","","","","","","","","","","","","","fixation","","","1","13","","","","","","","","","",""
"","","","","","","","","","","","canvas-keyboard-response","148","507901","0.0-148.0","null","null","","","","","","","","","","","","","","stimulus","","","1","13","","","","","","","","","",""
"","","","","","","","","","","","canvas-button-response","149","509803","0.0-149.0","1897","bridge","","","","","","","","","","","","","","perceptual","","","1","13","","","","","47","bridge","10","","1",""
"","","","","","","","","","","","canvas-button-response","150","510208","0.0-150.0","401","3","","","","","","","","","","","","","","confidence","","","1","13","","","","","","","","","","3"
"","","","","","","","","","","","html-keyboard-response","151","511221","0.0-151.0","null","null","","","","","","","","","","","","","","feedback","Sat Oct 18 2025 19:31:17 GMT-0400 (Eastern Daylight Time)","27797","1","13","","","","","","","","","",""
"","","","","","","","","","","","preload","152","511222","0.0-152.0","","","","","true","","","","","","","","","","","preload","","","1","14","false","[]","[]","[]","","","","","",""
"","","","","","","","","","","","canvas-keyboard-response","153","511525","0.0-153.0","null","null","","","","","","","","","","","","","","fixation","","","1","14","","","","","","","","","",""
"","","","","","","","","","","","canvas-keyboard-response","154","511837","0.0-154.0","null","null","","","","","","","","","","","","","","stimulus","","","1","14","","","","","","","","","",""
"","","","","","","","","","","","canvas-button-response","155","513522","0.0-155.0","1679","knife","","","","","","","","","","","","","","perceptual","","","1","14","","","","","97","knife","10","","1",""
"","","","","","","","","","","","canvas-button-response","156","513980","0.0-156.0","452","5","","","","","","","","","","","","","","confidence","","","1","14","","","","","","","","","","4"
"","","","","","","","","","","","html-keyboard-response","157","514989","0.0-157.0","null","null","","","","","","","","","","","","","","feedback","Sat Oct 18 2025 19:31:20 GMT-0400 (Eastern Daylight Time)","27797","1","14","","","","","","","","","",""
"","","","","","","","","","","","preload","158","514991","0.0-158.0","","","","","true","","","","","","","","","","","preload","","","1","15","false","[]","[]","[]","","","","","",""
"","","","","","","","","","","","canvas-keyboard-response","159","515301","0.0-159.0","null","null","","","","","","","","","","","","","","fixation","","","1","15","","","","","","","","","",""
"","","","","","","","","","","","canvas-keyboard-response","160","515606","0.0-160.0","null","null","","","","","","","","","","","","","","stimulus","","","1","15","","","","","","","","","",""
"","","","","","","","","","","","canvas-button-response","161","517074","0.0-161.0","1459","house","","","","","","","","","","","","","","perceptual","","","1","15","","","","","57","flower","10","","0",""
"","","","","","","","","","","","canvas-button-response","162","517638","0.0-162.0","559","4","","","","","","","","","","","","","","confidence","","","1","15","","","","","","","","","","4"
"","","","","","","","","","","","html-keyboard-response","163","518649","0.0-163.0","null","null","","","","","","","","","","","","","","feedback","Sat Oct 18 2025 19:31:24 GMT-0400 (Eastern Daylight Time)","27797","1","15","","","","","","","","","",""
"","","","","","","","","","","","preload","164","518651","0.0-164.0","","","","","true","","","","","","","","","","","preload","","","1","16","false","[]","[]","[]","","","","","",""
"","","","","","","","","","","","canvas-keyboard-response","165","518957","0.0-165.0","null","null","","","","","","","","","","","","","","fixation","","","1","16","","","","","","","","","",""
"","","","","","","","","","","","canvas-keyboard-response","166","519260","0.0-166.0","null","null","","","","","","","","","","","","","","stimulus","","","1","16","","","","","","","","","",""
"","","","","","","","","","","","canvas-button-response","167","522957","0.0-167.0","3691","cat","","","","","","","","","","","","","","perceptual","","","1","16","","","","","54","flower","6","","0",""
"","","","","","","","","","","","canvas-button-response","168","523612","0.0-168.0","649","6","","","","","","","","","","","","","","confidence","","","1","16","","","","","","","","","","4"
"","","","","","","","","","","","html-keyboard-response","169","524621","0.0-169.0","null","null","","","","","","","","","","","","","","feedback","Sat Oct 18 2025 19:31:30 GMT-0400 (Eastern Daylight Time)","27797","1","16","","","","","","","","","",""
"","","","","","","","","","","","preload","170","524623","0.0-170.0","","","","","true","","","","","","","","","","","preload","","","1","17","false","[]","[]","[]","","","","","",""
"","","","","","","","","","","","canvas-keyboard-response","171","524933","0.0-171.0","null","null","","","","","","","","","","","","","","fixation","","","1","17","","","","","","","","","",""
"","","","","","","","","","","","canvas-keyboard-response","172","525244","0.0-172.0","null","null","","","","","","","","","","","","","","stimulus","","","1","17","","","","","","","","","",""
"","","","","","","","","","","","canvas-button-response","173","528033","0.0-173.0","2782","house","","","","","","","","","","","","","","perceptual","","","1","17","","","","","4","house","6","","1",""
"","","","","","","","","","","","canvas-button-response","174","528551","0.0-174.0","512","4","","","","","","","","","","","","","","confidence","","","1","17","","","","","","","","","","5"
"","","","","","","","","","","","html-keyboard-response","175","529556","0.0-175.0","null","null","","","","","","","","","","","","","","feedback","Sat Oct 18 2025 19:31:35 GMT-0400 (Eastern Daylight Time)","27797","1","17","","","","","","","","","",""
"","","","","","","","","","","","preload","176","529558","0.0-176.0","","","","","true","","","","","","","","","","","preload","","","1","18","false","[]","[]","[]","","","","","",""
"","","","","","","","","","","","canvas-keyboard-response","177","529862","0.0-177.0","null","null","","","","","","","","","","","","","","fixation","","","1","18","","","","","","","","","",""
"","","","","","","","","","","","canvas-keyboard-response","178","530165","0.0-178.0","null","null","","","","","","","","","","","","","","stimulus","","","1","18","","","","","","","","","",""
"","","","","","","","","","","","canvas-button-response","179","531136","0.0-179.0","966","bridge","","","","","","","","","","","","","","perceptual","","","1","18","","","","","44","bridge","6","","1",""
"","","","","","","","","","","","canvas-button-response","180","531732","0.0-180.0","591","4","","","","","","","","","","","","","","confidence","","","1","18","","","","","","","","","","6"
"","","","","","","","","","","","html-keyboard-response","181","532741","0.0-181.0","null","null","","","","","","","","","","","","","","feedback","Sat Oct 18 2025 19:31:38 GMT-0400 (Eastern Daylight Time)","27797","1","18","","","","","","","","","",""
"","","","","","","","","","","","preload","182","532743","0.0-182.0","","","","","true","","","","","","","","","","","preload","","","1","19","false","[]","[]","[]","","","","","",""
"","","","","","","","","","","","canvas-keyboard-response","183","533053","0.0-183.0","null","null","","","","","","","","","","","","","","fixation","","","1","19","","","","","","","","","",""
"","","","","","","","","","","","canvas-keyboard-response","184","533356","0.0-184.0","null","null","","","","","","","","","","","","","","stimulus","","","1","19","","","","","","","","","",""
"","","","","","","","","","","","canvas-button-response","185","534131","0.0-185.0","769","car","","","","","","","","","","","","","","perceptual","","","1","19","","","","","27","phone","10","","0",""
"","","","","","","","","","","","canvas-button-response","186","534714","0.0-186.0","578","5","","","","","","","","","","","","","","confidence","","","1","19","","","","","","","","","","6"
"","","","","","","","","","","","html-keyboard-response","187","535727","0.0-187.0","null","null","","","","","","","","","","","","","","feedback","Sat Oct 18 2025 19:31:41 GMT-0400 (Eastern Daylight Time)","27797","1","19","","","","","","","","","",""
"","","","","","","","","","","","html-button-response","188","538658","0.0-188.0","2927","0","","","","","","","","","","","","","","start experiment","Sat Oct 18 2025 19:31:42 GMT-0400 (Eastern Daylight Time)","27797","1","19","","","","","","","","","",""
"","","","","","","","","","","","preload","189","538661","0.0-189.0","","","","","true","","","","","","","","","","","preload","","","2","0","false","[]","[]","[]","","","","","",""
"","","","","","","","","","","","canvas-keyboard-response","190","538964","0.0-190.0","null","null","","","","","","","","","","","","","","fixation","","","2","0","","","","","","","","","",""
"","","","","","","","","","","","canvas-keyboard-response","191","539268","0.0-191.0","null","null","","","","","","","","","","","","","","stimulus","","","2","0","","","","","","","","","",""
"","","","","","","","","","","","canvas-button-response","192","540305","0.0-192.0","1032","car","","","","","","","","","","","","","","perceptual","","","2","0","","","","","43","car","6","0","1",""
"","","","","","","","","","","","canvas-button-response","193","541307","0.0-193.0","998","5","","","","","","","","","","","","","","confidence","","","2","0","","","","","","","","","","1"
"","","","","","","","","","","","preload","194","541310","0.0-194.0","","","","","true","","","","","","","","","","","preload","","","2","1","false","[]","[]","[]","","","","","",""
"","","","","","","","","","","","canvas-keyboard-response","195","541621","0.0-195.0","null","null","","","","","","","","","","","","","","fixation","","","2","1","","","","","","","","","",""
"","","","","","","","","","","","canvas-keyboard-response","196","541933","0.0-196.0","null","null","","","","","","","","","","","","","","stimulus","","","2","1","","","","","","","","","",""
"","","","","","","","","","","","canvas-button-response","197","542926","0.0-197.0","986","car","","","","","","","","","","","","","","perceptual","","","2","1","","","","","49","car","6","0","1",""
"","","","","","","","","","","","canvas-button-response","198","543457","0.0-198.0","523","5","","","","","","","","","","","","","","confidence","","","2","1","","","","","","","","","","2"
"","","","","","","","","","","","preload","199","543461","0.0-199.0","","","","","true","","","","","","","","","","","preload","","","2","2","false","[]","[]","[]","","","","","",""
"","","","","","","","","","","","canvas-keyboard-response","200","543773","0.0-200.0","null","null","","","","","","","","","","","","","","fixation","","","2","2","","","","","","","","","",""
"","","","","","","","","","","","canvas-keyboard-response","201","544077","0.0-201.0","null","null","","","","","","","","","","","","","","stimulus","","","2","2","","","","","","","","","",""
"","","","","","","","","","","","canvas-button-response","202","545243","0.0-202.0","1161","bridge","","","","","","","","","","","","","","perceptual","","","2","2","","","","","163","bridge","6","0","1",""
"","","","","","","","","","","","canvas-button-response","203","545802","0.0-203.0","555","3","","","","","","","","","","","","","","confidence","","","2","2","","","","","","","","","","3"
"","","","","","","","","","","","preload","204","545804","0.0-204.0","","","","","true","","","","","","","","","","","preload","","","2","3","false","[]","[]","[]","","","","","",""
"","","","","","","","","","","","canvas-keyboard-response","205","546109","0.0-205.0","null","null","","","","","","","","","","","","","","fixation","","","2","3","","","","","","","","","",""
"","","","","","","","","","","","canvas-keyboard-response","206","546420","0.0-206.0","null","null","","","","","","","","","","","","","","stimulus","","","2","3","","","","","","","","","",""
"","","","","","","","","","","","canvas-button-response","207","547650","0.0-207.0","1225","knife","","","","","","","","","","","","","","perceptual","","","2","3","","","","","396","knife","10","0","1",""
"","","","","","","","","","","","canvas-button-response","208","548367","0.0-208.0","711","5","","","","","","","","","","","","","","confidence","","","2","3","","","","","","","","","","4"
"","","","","","","","","","","","preload","209","548369","0.0-209.0","","","","","true","","","","","","","","","","","preload","","","2","4","false","[]","[]","[]","","","","","",""
"","","","","","","","","","","","canvas-keyboard-response","210","548677","0.0-210.0","null","null","","","","","","","","","","","","","","fixation","","","2","4","","","","","","","","","",""
"","","","","","","","","","","","canvas-keyboard-response","211","548988","0.0-211.0","null","null","","","","","","","","","","","","","","stimulus","","","2","4","","","","","","","","","",""
"","","","","","","","","","","","canvas-button-response","212","550554","0.0-212.0","1561","knife","","","","","","","","","","","","","","perceptual","","","2","4","","","","","390","knife","10","0","1",""
"","","","","","","","","","","","canvas-button-response","213","550949","0.0-213.0","390","5","","","","","","","","","","","","","","confidence","","","2","4","","","","","","","","","","5"
"","","","","","","","","","","","preload","214","550953","0.0-214.0","","","","","true","","","","","","","","","","","preload","","","2","5","false","[]","[]","[]","","","","","",""
"","","","","","","","","","","","canvas-keyboard-response","215","551261","0.0-215.0","null","null","","","","","","","","","","","","","","fixation","","","2","5","","","","","","","","","",""
"","","","","","","","","","","","canvas-keyboard-response","216","551565","0.0-216.0","null","null","","","","","","","","","","","","","","stimulus","","","2","5","","","","","","","","","",""
"","","","","","","","","","","","canvas-button-response","217","553956","0.0-217.0","2337","train","","","","","","","","","","","","","","perceptual","","","2","5","","","","","253","train","6","0","1",""
"","","","","","","","","","","","canvas-button-response","218","555718","0.0-218.0","1758","5","","","","","","","","","","","","","","confidence","","","2","5","","","","","","","","","","6"
"","","","","","","","","","","","preload","219","555721","0.0-219.0","","","","","true","","","","","","","","","","","preload","","","2","6","false","[]","[]","[]","","","","","",""
"","","","","","","","","","","","canvas-keyboard-response","220","556029","0.0-220.0","null","null","","","","","","","","","","","","","","fixation","","","2","6","","","","","","","","","",""
"","","","","","","","","","","","canvas-keyboard-response","221","556332","0.0-221.0","null","null","","","","","","","","","","","","","","stimulus","","","2","6","","","","","","","","","",""
"","","","","","","","","","","","canvas-button-response","222","566041","0.0-222.0","9705","car","","","","","","","","","","","","","","perceptual","","","2","6","","","","","311","cat","10","0","0",""
"","","","","","","","","","","","canvas-button-response","223","566511","0.0-223.0","465","4","","","","","","","","","","","","","","confidence","","","2","6","","","","","","","","","","6"
"","","","","","","","","","","","preload","224","566513","0.0-224.0","","","","","true","","","","","","","","","","","preload","","","2","7","false","[]","[]","[]","","","","","",""
"","","","","","","","","","","","canvas-keyboard-response","225","566821","0.0-225.0","null","null","","","","","","","","","","","","","","fixation","","","2","7","","","","","","","","","",""
"","","","","","","","","","","","canvas-keyboard-response","226","567133","0.0-226.0","null","null","","","","","","","","","","","","","","stimulus","","","2","7","","","","","","","","","",""
"","","","","","","","","","","","canvas-button-response","227","573236","0.0-227.0","6097","phone","","","","","","","","","","","","","","perceptual","","","2","7","","","","","276","train","10","0","0",""
"","","","","","","","","","","","canvas-button-response","228","573720","0.0-228.0","478","6","","","","","","","","","","","","","","confidence","","","2","7","","","","","","","","","","6"
"","","","","","","","","","","","preload","229","573722","0.0-229.0","","","","","true","","","","","","","","","","","preload","","","2","8","false","[]","[]","[]","","","","","",""
"","","","","","","","","","","","canvas-keyboard-response","230","574029","0.0-230.0","null","null","","","","","","","","","","","","","","fixation","","","2","8","","","","","","","","","",""
"","","","","","","","","","","","canvas-keyboard-response","231","574341","0.0-231.0","null","null","","","","","","","","","","","","","","stimulus","","","2","8","","","","","","","","","",""
"","","","","","","","","","","","canvas-button-response","232","575139","0.0-232.0","792","car","","","","","","","","","","","","","","perceptual","","","2","8","","","","","61","car","10","0","1",""
"","","","","","","","","","","","canvas-button-response","233","575538","0.0-233.0","394","5","","","","","","","","","","","","","","confidence","","","2","8","","","","","","","","","","7"
"","","","","","","","","","","","preload","234","575541","0.0-234.0","","","","","true","","","","","","","","","","","preload","","","2","9","false","[]","[]","[]","","","","","",""
"","","","","","","","","","","","canvas-keyboard-response","235","575845","0.0-235.0","null","null","","","","","","","","","","","","","","fixation","","","2","9","","","","","","","","","",""
"","","","","","","","","","","","canvas-keyboard-response","236","576149","0.0-236.0","null","null","","","","","","","","","","","","","","stimulus","","","2","9","","","","","","","","","",""
"","","","","","","","","","","","canvas-button-response","237","586935","0.0-237.0","10781","car","","","","","","","","","","","","","","perceptual","","","2","9","","","","","383","knife","10","0","0",""
"","","","","","","","","","","","canvas-button-response","238","587308","0.0-238.0","368","4","","","","","","","","","","","","","","confidence","","","2","9","","","","","","","","","","7"
"","","","","","","","","","","","preload","239","587310","0.0-239.0","","","","","true","","","","","","","","","","","preload","","","2","10","false","[]","[]","[]","","","","","",""
"","","","","","","","","","","","canvas-keyboard-response","240","587621","0.0-240.0","null","null","","","","","","","","","","","","","","fixation","","","2","10","","","","","","","","","",""
"","","","","","","","","","","","canvas-keyboard-response","241","587925","0.0-241.0","null","null","","","","","","","","","","","","","","stimulus","","","2","10","","","","","","","","","",""
"","","","","","","","","","","","canvas-button-response","242","589731","0.0-242.0","1800","house","","","","","","","","","","","","","","perceptual","","","2","10","","","","","14","house","6","0","1",""
"","","","","","","","","","","","canvas-button-response","243","590657","0.0-243.0","921","5","","","","","","","","","","","","","","confidence","","","2","10","","","","","","","","","","8"
"","","","","","","","","","","","preload","244","590659","0.0-244.0","","","","","true","","","","","","","","","","","preload","","","2","11","false","[]","[]","[]","","","","","",""
"","","","","","","","","","","","canvas-keyboard-response","245","590965","0.0-245.0","null","null","","","","","","","","","","","","","","fixation","","","2","11","","","","","","","","","",""
"","","","","","","","","","","","canvas-keyboard-response","246","591276","0.0-246.0","null","null","","","","","","","","","","","","","","stimulus","","","2","11","","","","","","","","","",""
"","","","","","","","","","","","canvas-button-response","247","592293","0.0-247.0","1012","car","","","","","","","","","","","","","","perceptual","","","2","11","","","","","366","knife","6","0","0",""
"","","","","","","","","","","","canvas-button-response","248","592727","0.0-248.0","429","5","","","","","","","","","","","","","","confidence","","","2","11","","","","","","","","","","8"
"","","","","","","","","","","","preload","249","592729","0.0-249.0","","","","","true","","","","","","","","","","","preload","","","2","12","false","[]","[]","[]","","","","","",""
"","","","","","","","","","","","canvas-keyboard-response","250","593037","0.0-250.0","null","null","","","","","","","","","","","","","","fixation","","","2","12","","","","","","","","","",""
"","","","","","","","","","","","canvas-keyboard-response","251","593348","0.0-251.0","null","null","","","","","","","","","","","","","","stimulus","","","2","12","","","","","","","","","",""
"","","","","","","","","","","","canvas-button-response","252","594827","0.0-252.0","1473","bridge","","","","","","","","","","","","","","perceptual","","","2","12","","","","","186","bridge","10","0","1",""
"","","","","","","","","","","","canvas-button-response","253","595705","0.0-253.0","872","4","","","","","","","","","","","","","","confidence","","","2","12","","","","","","","","","","9"
"","","","","","","","","","","","preload","254","595708","0.0-254.0","","","","","true","","","","","","","","","","","preload","","","2","13","false","[]","[]","[]","","","","","",""
"","","","","","","","","","","","canvas-keyboard-response","255","596013","0.0-255.0","null","null","","","","","","","","","","","","","","fixation","","","2","13","","","","","","","","","",""
"","","","","","","","","","","","canvas-keyboard-response","256","596319","0.0-256.0","null","null","","","","","","","","","","","","","","stimulus","","","2","13","","","","","","","","","",""
"","","","","","","","","","","","canvas-button-response","257","621989","0.0-257.0","25664","phone","","","","","","","","","","","","","","perceptual","","","2","13","","","","","233","flower","10","0","0",""
"","","","","","","","","","","","canvas-button-response","258","622530","0.0-258.0","534","7","","","","","","","","","","","","","","confidence","","","2","13","","","","","","","","","","9"
"","","","","","","","","","","","preload","259","622532","0.0-259.0","","","","","true","","","","","","","","","","","preload","","","2","14","false","[]","[]","[]","","","","","",""
"","","","","","","","","","","","canvas-keyboard-response","260","622845","0.0-260.0","null","null","","","","","","","","","","","","","","fixation","","","2","14","","","","","","","","","",""
"","","","","","","","","","","","canvas-keyboard-response","261","623157","0.0-261.0","null","null","","","","","","","","","","","","","","stimulus","","","2","14","","","","","","","","","",""
"","","","","","","","","","","","canvas-button-response","262","627441","0.0-262.0","4279","bridge","","","","","","","","","","","","","","perceptual","","","2","14","","","","","388","knife","10","0","0",""
"","","","","","","","","","","","canvas-button-response","263","628729","0.0-263.0","1284","3","","","","","","","","","","","","","","confidence","","","2","14","","","","","","","","","","9"
"","","","","","","","","","","","preload","264","628732","0.0-264.0","","","","","true","","","","","","","","","","","preload","","","2","15","false","[]","[]","[]","","","","","",""
"","","","","","","","","","","","canvas-keyboard-response","265","629036","0.0-265.0","null","null","","","","","","","","","","","","","","fixation","","","2","15","","","","","","","","","",""
"","","","","","","","","","","","canvas-keyboard-response","266","629341","0.0-266.0","null","null","","","","","","","","","","","","","","stimulus","","","2","15","","","","","","","","","",""
"","","","","","","","","","","","canvas-button-response","267","632124","0.0-267.0","2775","elephant","","","","","","","","","","","","","","perceptual","","","2","15","","","","","243","train","6","0","0",""
"","","","","","","","","","","","canvas-button-response","268","632635","0.0-268.0","503","6","","","","","","","","","","","","","","confidence","","","2","15","","","","","","","","","","9"
"","","","","","","","","","","","preload","269","632639","0.0-269.0","","","","","true","","","","","","","","","","","preload","","","2","16","false","[]","[]","[]","","","","","",""
"","","","","","","","","","","","canvas-keyboard-response","270","632949","0.0-270.0","null","null","","","","","","","","","","","","","","fixation","","","2","16","","","","","","","","","",""
"","","","","","","","","","","","canvas-keyboard-response","271","633261","0.0-271.0","null","null","","","","","","","","","","","","","","stimulus","","","2","16","","","","","","","","","",""
"","","","","","","","","","","","canvas-button-response","272","634670","0.0-272.0","1401","knife","","","","","","","","","","","","","","perceptual","","","2","16","","","","","393","knife","10","0","1",""
"","","","","","","","","","","","canvas-button-response","273","635212","0.0-273.0","532","5","","","","","","","","","","","","","","confidence","","","2","16","","","","","","","","","","10"
"","","","","","","","","","","","preload","274","635216","0.0-274.0","","","","","true","","","","","","","","","","","preload","","","2","17","false","[]","[]","[]","","","","","",""
"","","","","","","","","","","","canvas-keyboard-response","275","635525","0.0-275.0","null","null","","","","","","","","","","","","","","fixation","","","2","17","","","","","","","","","",""
"","","","","","","","","","","","canvas-keyboard-response","276","635829","0.0-276.0","null","null","","","","","","","","","","","","","","stimulus","","","2","17","","","","","","","","","",""
"","","","","","","","","","","","canvas-button-response","277","636697","0.0-277.0","863","knife","","","","","","","","","","","","","","perceptual","","","2","17","","","","","129","bed","6","0","0",""
"","","","","","","","","","","","canvas-button-response","278","638454","0.0-278.0","1751","6","","","","","","","","","","","","","","confidence","","","2","17","","","","","","","","","","10"
"","","","","","","","","","","","preload","279","638456","0.0-279.0","","","","","true","","","","","","","","","","","preload","","","2","18","false","[]","[]","[]","","","","","",""
"","","","","","","","","","","","canvas-keyboard-response","280","638764","0.0-280.0","null","null","","","","","","","","","","","","","","fixation","","","2","18","","","","","","","","","",""
"","","","","","","","","","","","canvas-keyboard-response","281","639077","0.0-281.0","null","null","","","","","","","","","","","","","","stimulus","","","2","18","","","","","","","","","",""
"","","","","","","","","","","","canvas-button-response","282","640340","0.0-282.0","1257","car","","","","","","","","","","","","","","perceptual","","","2","18","","","","","10","house","6","0","0",""
"","","","","","","","","","","","canvas-button-response","283","641861","0.0-283.0","1514","5","","","","","","","","","","","","","","confidence","","","2","18","","","","","","","","","","10"
"","","","","","","","","","","","preload","284","641864","0.0-284.0","","","","","true","","","","","","","","","","","preload","","","2","19","false","[]","[]","[]","","","","","",""
"","","","","","","","","","","","canvas-keyboard-response","285","642173","0.0-285.0","null","null","","","","","","","","","","","","","","fixation","","","2","19","","","","","","","","","",""
"","","","","","","","","","","","canvas-keyboard-response","286","642477","0.0-286.0","null","null","","","","","","","","","","","","","","stimulus","","","2","19","","","","","","","","","",""
"","","","","","","","","","","","canvas-button-response","287","644752","0.0-287.0","2271","car","","","","","","","","","","","","","","perceptual","","","2","19","","","","","17","house","6","0","0",""
"","","","","","","","","","","","canvas-button-response","288","645273","0.0-288.0","516","5","","","","","","","","","","","","","","confidence","","","2","19","","","","","","","","","","10"
"","","","","","","","","","","","preload","289","645275","0.0-289.0","","","","","true","","","","","","","","","","","preload","","","2","20","false","[]","[]","[]","","","","","",""
"","","","","","","","","","","","canvas-keyboard-response","290","645581","0.0-290.0","null","null","","","","","","","","","","","","","","fixation","","","2","20","","","","","","","","","",""
"","","","","","","","","","","","canvas-keyboard-response","291","645885","0.0-291.0","null","null","","","","","","","","","","","","","","stimulus","","","2","20","","","","","","","","","",""
"","","","","","","","","","","","canvas-button-response","292","647193","0.0-292.0","1299","knife","","","","","","","","","","","","","","perceptual","","","2","20","","","","","387","knife","10","0","1",""
"","","","","","","","","","","","canvas-button-response","293","647585","0.0-293.0","385","5","","","","","","","","","","","","","","confidence","","","2","20","","","","","","","","","","11"
"","","","","","","","","","","","preload","294","647588","0.0-294.0","","","","","true","","","","","","","","","","","preload","","","2","21","false","[]","[]","[]","","","","","",""
"","","","","","","","","","","","canvas-keyboard-response","295","647893","0.0-295.0","null","null","","","","","","","","","","","","","","fixation","","","2","21","","","","","","","","","",""
"","","","","","","","","","","","canvas-keyboard-response","296","648196","0.0-296.0","null","null","","","","","","","","","","","","","","stimulus","","","2","21","","","","","","","","","",""
"","","","","","","","","","","","canvas-button-response","297","649902","0.0-297.0","1698","car","","","","","","","","","","","","","","perceptual","","","2","21","","","","","282","cat","6","0","0",""
"","","","","","","","","","","","canvas-button-response","298","650614","0.0-298.0","704","5","","","","","","","","","","","","","","confidence","","","2","21","","","","","","","","","","11"
"","","","","","","","","","","","preload","299","650616","0.0-299.0","","","","","true","","","","","","","","","","","preload","","","2","22","false","[]","[]","[]","","","","","",""
"","","","","","","","","","","","canvas-keyboard-response","300","650925","0.0-300.0","null","null","","","","","","","","","","","","","","fixation","","","2","22","","","","","","","","","",""
"","","","","","","","","","","","canvas-keyboard-response","301","651228","0.0-301.0","null","null","","","","","","","","","","","","","","stimulus","","","2","22","","","","","","","","","",""
"","","","","","","","","","","","canvas-button-response","302","653294","0.0-302.0","2060","elephant","","","","","","","","","","","","","","perceptual","","","2","22","","","","","364","knife","6","0","0",""
"","","","","","","","","","","","canvas-button-response","303","653725","0.0-303.0","426","7","","","","","","","","","","","","","","confidence","","","2","22","","","","","","","","","","11"
"","","","","","","","","","","","preload","304","653727","0.0-304.0","","","","","true","","","","","","","","","","","preload","","","2","23","false","[]","[]","[]","","","","","",""
"","","","","","","","","","","","canvas-keyboard-response","305","654037","0.0-305.0","null","null","","","","","","","","","","","","","","fixation","","","2","23","","","","","","","","","",""
"","","","","","","","","","","","canvas-keyboard-response","306","654342","0.0-306.0","null","null","","","","","","","","","","","","","","stimulus","","","2","23","","","","","","","","","",""
"","","","","","","","","","","","canvas-button-response","307","655317","0.0-307.0","969","car","","","","","","","","","","","","","","perceptual","","","2","23","","","","","360","knife","6","0","0",""
"","","","","","","","","","","","canvas-button-response","308","655847","0.0-308.0","523","5","","","","","","","","","","","","","","confidence","","","2","23","","","","","","","","","","11"
"","","","","","","","","","","","preload","309","655853","0.0-309.0","","","","","true","","","","","","","","","","","preload","","","2","24","false","[]","[]","[]","","","","","",""
"","","","","","","","","","","","canvas-keyboard-response","310","656169","0.0-310.0","null","null","","","","","","","","","","","","","","fixation","","","2","24","","","","","","","","","",""
"","","","","","","","","","","","canvas-keyboard-response","311","656479","0.0-311.0","null","null","","","","","","","","","","","","","","stimulus","","","2","24","","","","","","","","","",""
"","","","","","","","","","","","canvas-button-response","312","658072","0.0-312.0","1586","phone","","","","","","","","","","","","","","perceptual","","","2","24","","","","","88","phone","6","0","1",""
"","","","","","","","","","","","canvas-button-response","313","658581","0.0-313.0","504","7","","","","","","","","","","","","","","confidence","","","2","24","","","","","","","","","","12"
"","","","","","","","","","","","preload","314","658583","0.0-314.0","","","","","true","","","","","","","","","","","preload","","","2","25","false","[]","[]","[]","","","","","",""
"","","","","","","","","","","","canvas-keyboard-response","315","658893","0.0-315.0","null","null","","","","","","","","","","","","","","fixation","","","2","25","","","","","","","","","",""
"","","","","","","","","","","","canvas-keyboard-response","316","659205","0.0-316.0","null","null","","","","","","","","","","","","","","stimulus","","","2","25","","","","","","","","","",""
"","","","","","","","","","","","canvas-button-response","317","659963","0.0-317.0","753","car","","","","","","","","","","","","","","perceptual","","","2","25","","","","","64","car","10","0","1",""
"","","","","","","","","","","","canvas-button-response","318","660435","0.0-318.0","465","5","","","","","","","","","","","","","","confidence","","","2","25","","","","","","","","","","13"
"","","","","","","","","","","","preload","319","660440","0.0-319.0","","","","","true","","","","","","","","","","","preload","","","2","26","false","[]","[]","[]","","","","","",""
"","","","","","","","","","","","canvas-keyboard-response","320","660749","0.0-320.0","null","null","","","","","","","","","","","","","","fixation","","","2","26","","","","","","","","","",""
"","","","","","","","","","","","canvas-keyboard-response","321","661053","0.0-321.0","null","null","","","","","","","","","","","","","","stimulus","","","2","26","","","","","","","","","",""
"","","","","","","","","","","","canvas-button-response","322","664099","0.0-322.0","3041","bridge","","","","","","","","","","","","","","perceptual","","","2","26","","","","","28","house","10","0","0",""
"","","","","","","","","","","","canvas-button-response","323","664453","0.0-323.0","348","3","","","","","","","","","","","","","","confidence","","","2","26","","","","","","","","","","13"
"","","","","","","","","","","","preload","324","664456","0.0-324.0","","","","","true","","","","","","","","","","","preload","","","2","27","false","[]","[]","[]","","","","","",""
"","","","","","","","","","","","canvas-keyboard-response","325","664765","0.0-325.0","null","null","","","","","","","","","","","","","","fixation","","","2","27","","","","","","","","","",""
"","","","","","","","","","","","canvas-keyboard-response","326","665069","0.0-326.0","null","null","","","","","","","","","","","","","","stimulus","","","2","27","","","","","","","","","",""
"","","","","","","","","","","","canvas-button-response","327","670028","0.0-327.0","4953","phone","","","","","","","","","","","","","","perceptual","","","2","27","","","","","238","flower","10","0","0",""
"","","","","","","","","","","","canvas-button-response","328","670455","0.0-328.0","423","5","","","","","","","","","","","","","","confidence","","","2","27","","","","","","","","","","13"
"","","","","","","","","","","","preload","329","670458","0.0-329.0","","","","","true","","","","","","","","","","","preload","","","2","28","false","[]","[]","[]","","","","","",""
"","","","","","","","","","","","canvas-keyboard-response","330","670765","0.0-330.0","null","null","","","","","","","","","","","","","","fixation","","","2","28","","","","","","","","","",""
"","","","","","","","","","","","canvas-keyboard-response","331","671068","0.0-331.0","null","null","","","","","","","","","","","","","","stimulus","","","2","28","","","","","","","","","",""
"","","","","","","","","","","","canvas-button-response","332","672500","0.0-332.0","1425","knife","","","","","","","","","","","","","","perceptual","","","2","28","","","","","379","knife","6","0","1",""
"","","","","","","","","","","","canvas-button-response","333","672926","0.0-333.0","422","5","","","","","","","","","","","","","","confidence","","","2","28","","","","","","","","","","14"
"","","","","","","","","","","","preload","334","672928","0.0-334.0","","","","","true","","","","","","","","","","","preload","","","2","29","false","[]","[]","[]","","","","","",""
"","","","","","","","","","","","canvas-keyboard-response","335","673237","0.0-335.0","null","null","","","","","","","","","","","","","","fixation","","","2","29","","","","","","","","","",""
"","","","","","","","","","","","canvas-keyboard-response","336","673540","0.0-336.0","null","null","","","","","","","","","","","","","","stimulus","","","2","29","","","","","","","","","",""
"","","","","","","","","","","","canvas-button-response","337","680265","0.0-337.0","6719","phone","","","","","","","","","","","","","","perceptual","","","2","29","","","","","224","flower","10","0","0",""
"","","","","","","","","","","","canvas-button-response","338","681624","0.0-338.0","1355","3","","","","","","","","","","","","","","confidence","","","2","29","","","","","","","","","","14"
"","","","","","","","","","","","preload","339","681626","0.0-339.0","","","","","true","","","","","","","","","","","preload","","","2","30","false","[]","[]","[]","","","","","",""
"","","","","","","","","","","","canvas-keyboard-response","340","681933","0.0-340.0","null","null","","","","","","","","","","","","","","fixation","","","2","30","","","","","","","","","",""
"","","","","","","","","","","","canvas-keyboard-response","341","682237","0.0-341.0","null","null","","","","","","","","","","","","","","stimulus","","","2","30","","","","","","","","","",""
"","","","","","","","","","","","canvas-button-response","342","683276","0.0-342.0","1035","car","","","","","","","","","","","","","","perceptual","","","2","30","","","","","24","house","10","0","0",""
"","","","","","","","","","","","canvas-button-response","343","683765","0.0-343.0","484","5","","","","","","","","","","","","","","confidence","","","2","30","","","","","","","","","","14"
"","","","","","","","","","","","preload","344","683767","0.0-344.0","","","","","true","","","","","","","","","","","preload","","","2","31","false","[]","[]","[]","","","","","",""
"","","","","","","","","","","","canvas-keyboard-response","345","684077","0.0-345.0","null","null","","","","","","","","","","","","","","fixation","","","2","31","","","","","","","","","",""
"","","","","","","","","","","","canvas-keyboard-response","346","684381","0.0-346.0","null","null","","","","","","","","","","","","","","stimulus","","","2","31","","","","","","","","","",""
"","","","","","","","","","","","canvas-button-response","347","684614","0.0-347.0","226","phone","","","","","","","","","","","","","","perceptual","","","2","31","","","","","255","train","6","0","0",""
"","","","","","","","","","","","canvas-button-response","348","685136","0.0-348.0","515","6","","","","","","","","","","","","","","confidence","","","2","31","","","","","","","","","","14"
"","","","","","","","","","","","preload","349","685138","0.0-349.0","","","","","true","","","","","","","","","","","preload","","","2","32","false","[]","[]","[]","","","","","",""
"","","","","","","","","","","","canvas-keyboard-response","350","685445","0.0-350.0","null","null","","","","","","","","","","","","","","fixation","","","2","32","","","","","","","","","",""
"","","","","","","","","","","","canvas-keyboard-response","351","685749","0.0-351.0","null","null","","","","","","","","","","","","","","stimulus","","","2","32","","","","","","","","","",""
"","","","","","","","","","","","canvas-button-response","352","687229","0.0-352.0","1475","house","","","","","","","","","","","","","","perceptual","","","2","32","","","","","190","bridge","10","0","0",""
"","","","","","","","","","","","canvas-button-response","353","687619","0.0-353.0","384","3","","","","","","","","","","","","","","confidence","","","2","32","","","","","","","","","","14"
"","","","","","","","","","","","preload","354","687621","0.0-354.0","","","","","true","","","","","","","","","","","preload","","","2","33","false","[]","[]","[]","","","","","",""
"","","","","","","","","","","","canvas-keyboard-response","355","687926","0.0-355.0","null","null","","","","","","","","","","","","","","fixation","","","2","33","","","","","","","","","",""
"","","","","","","","","","","","canvas-keyboard-response","356","688237","0.0-356.0","null","null","","","","","","","","","","","","","","stimulus","","","2","33","","","","","","","","","",""
"","","","","","","","","","","","canvas-button-response","357","689451","0.0-357.0","1207","car","","","","","","","","","","","","","","perceptual","","","2","33","","","","","313","cat","10","0","0",""
"","","","","","","","","","","","canvas-button-response","358","690072","0.0-358.0","611","5","","","","","","","","","","","","","","confidence","","","2","33","","","","","","","","","","14"
"","","","","","","","","","","","preload","359","690076","0.0-359.0","","","","","true","","","","","","","","","","","preload","","","2","34","false","[]","[]","[]","","","","","",""
"","","","","","","","","","","","canvas-keyboard-response","360","690381","0.0-360.0","null","null","","","","","","","","","","","","","","fixation","","","2","34","","","","","","","","","",""
"","","","","","","","","","","","canvas-keyboard-response","361","690684","0.0-361.0","null","null","","","","","","","","","","","","","","stimulus","","","2","34","","","","","","","","","",""
"","","","","","","","","","","","canvas-button-response","362","691495","0.0-362.0","805","car","","","","","","","","","","","","","","perceptual","","","2","34","","","","","63","car","10","0","1",""
"","","","","","","","","","","","canvas-button-response","363","692091","0.0-363.0","592","5","","","","","","","","","","","","","","confidence","","","2","34","","","","","","","","","","15"
"","","","","","","","","","","","preload","364","692093","0.0-364.0","","","","","true","","","","","","","","","","","preload","","","2","35","false","[]","[]","[]","","","","","",""
"","","","","","","","","","","","canvas-keyboard-response","365","692397","0.0-365.0","null","null","","","","","","","","","","","","","","fixation","","","2","35","","","","","","","","","",""
"","","","","","","","","","","","canvas-keyboard-response","366","692700","0.0-366.0","null","null","","","","","","","","","","","","","","stimulus","","","2","35","","","","","","","","","",""
"","","","","","","","","","","","canvas-button-response","367","693815","0.0-367.0","1110","car","","","","","","","","","","","","","","perceptual","","","2","35","","","","","248","train","6","0","0",""
"","","","","","","","","","","","canvas-button-response","368","694261","0.0-368.0","441","5","","","","","","","","","","","","","","confidence","","","2","35","","","","","","","","","","15"
"","","","","","","","","","","","preload","369","694263","0.0-369.0","","","","","true","","","","","","","","","","","preload","","","2","36","false","[]","[]","[]","","","","","",""
"","","","","","","","","","","","canvas-keyboard-response","370","694573","0.0-370.0","null","null","","","","","","","","","","","","","","fixation","","","2","36","","","","","","","","","",""
"","","","","","","","","","","","canvas-keyboard-response","371","694877","0.0-371.0","null","null","","","","","","","","","","","","","","stimulus","","","2","36","","","","","","","","","",""
"","","","","","","","","","","","canvas-button-response","372","697387","0.0-372.0","2504","house","","","","","","","","","","","","","","perceptual","","","2","36","","","","","174","bridge","6","0","0",""
"","","","","","","","","","","","canvas-button-response","373","702132","0.0-373.0","4741","2","","","","","","","","","","","","","","confidence","","","2","36","","","","","","","","","","15"
"","","","","","","","","","","","preload","374","702134","0.0-374.0","","","","","true","","","","","","","","","","","preload","","","2","37","false","[]","[]","[]","","","","","",""
"","","","","","","","","","","","canvas-keyboard-response","375","702444","0.0-375.0","null","null","","","","","","","","","","","","","","fixation","","","2","37","","","","","","","","","",""
"","","","","","","","","","","","canvas-keyboard-response","376","702749","0.0-376.0","null","null","","","","","","","","","","","","","","stimulus","","","2","37","","","","","","","","","",""
"","","","","","","","","","","","canvas-button-response","377","706164","0.0-377.0","3411","bridge","","","","","","","","","","","","","","perceptual","","","2","37","","","","","170","bridge","6","0","1",""
"","","","","","","","","","","","canvas-button-response","378","706587","0.0-378.0","417","3","","","","","","","","","","","","","","confidence","","","2","37","","","","","","","","","","16"
"","","","","","","","","","","","preload","379","706591","0.0-379.0","","","","","true","","","","","","","","","","","preload","","","2","38","false","[]","[]","[]","","","","","",""
"","","","","","","","","","","","canvas-keyboard-response","380","706901","0.0-380.0","null","null","","","","","","","","","","","","","","fixation","","","2","38","","","","","","","","","",""
"","","","","","","","","","","","canvas-keyboard-response","381","707204","0.0-381.0","null","null","","","","","","","","","","","","","","stimulus","","","2","38","","","","","","","","","",""
"","","","","","","","","","","","canvas-button-response","382","708733","0.0-382.0","1525","car","","","","","","","","","","","","","","perceptual","","","2","38","","","","","78","car","10","0","1",""
"","","","","","","","","","","","canvas-button-response","383","709275","0.0-383.0","535","5","","","","","","","","","","","","","","confidence","","","2","38","","","","","","","","","","17"
"","","","","","","","","","","","preload","384","709279","0.0-384.0","","","","","true","","","","","","","","","","","preload","","","2","39","false","[]","[]","[]","","","","","",""
"","","","","","","","","","","","canvas-keyboard-response","385","709589","0.0-385.0","null","null","","","","","","","","","","","","","","fixation","","","2","39","","","","","","","","","",""
"","","","","","","","","","","","canvas-keyboard-response","386","709893","0.0-386.0","null","null","","","","","","","","","","","","","","stimulus","","","2","39","","","","","","","","","",""
"","","","","","","","","","","","canvas-button-response","387","712265","0.0-387.0","2366","knife","","","","","","","","","","","","","","perceptual","","","2","39","","","","","384","knife","10","0","1",""
"","","","","","","","","","","","canvas-button-response","388","712547","0.0-388.0","274","5","","","","","","","","","","","","","","confidence","","","2","39","","","","","","","","","","18"
"","","","","","","","","","","","preload","389","712552","0.0-389.0","","","","","true","","","","","","","","","","","preload","","","2","40","false","[]","[]","[]","","","","","",""
"","","","","","","","","","","","canvas-keyboard-response","390","712861","0.0-390.0","null","null","","","","","","","","","","","","","","fixation","","","2","40","","","","","","","","","",""
"","","","","","","","","","","","canvas-keyboard-response","391","713164","0.0-391.0","null","null","","","","","","","","","","","","","","stimulus","","","2","40","","","","","","","","","",""
"","","","","","","","","","","","canvas-button-response","392","715096","0.0-392.0","1927","car","","","","","","","","","","","","","","perceptual","","","2","40","","","","","158","bed","10","0","0",""
"","","","","","","","","","","","canvas-button-response","393","716117","0.0-393.0","1015","5","","","","","","","","","","","","","","confidence","","","2","40","","","","","","","","","","18"
"","","","","","","","","","","","preload","394","716120","0.0-394.0","","","","","true","","","","","","","","","","","preload","","","2","41","false","[]","[]","[]","","","","","",""
"","","","","","","","","","","","canvas-keyboard-response","395","716429","0.0-395.0","null","null","","","","","","","","","","","","","","fixation","","","2","41","","","","","","","","","",""
"","","","","","","","","","","","canvas-keyboard-response","396","716733","0.0-396.0","null","null","","","","","","","","","","","","","","stimulus","","","2","41","","","","","","","","","",""
"","","","","","","","","","","","canvas-button-response","397","717649","0.0-397.0","910","knife","","","","","","","","","","","","","","perceptual","","","2","41","","","","","374","knife","6","0","1",""
"","","","","","","","","","","","canvas-button-response","398","718219","0.0-398.0","564","5","","","","","","","","","","","","","","confidence","","","2","41","","","","","","","","","","19"
"","","","","","","","","","","","preload","399","718221","0.0-399.0","","","","","true","","","","","","","","","","","preload","","","2","42","false","[]","[]","[]","","","","","",""
"","","","","","","","","","","","canvas-keyboard-response","400","718525","0.0-400.0","null","null","","","","","","","","","","","","","","fixation","","","2","42","","","","","","","","","",""
"","","","","","","","","","","","canvas-keyboard-response","401","718829","0.0-401.0","null","null","","","","","","","","","","","","","","stimulus","","","2","42","","","","","","","","","",""
"","","","","","","","","","","","canvas-button-response","402","720533","0.0-402.0","1699","car","","","","","","","","","","","","","","perceptual","","","2","42","","","","","52","car","6","0","1",""
"","","","","","","","","","","","canvas-button-response","403","722268","0.0-403.0","1729","10","","","","","","","","","","","","","","confidence","","","2","42","","","","","","","","","","20"
"","","","","","","","","","","","preload","404","722271","0.0-404.0","","","","","true","","","","","","","","","","","preload","","","2","43","false","[]","[]","[]","","","","","",""
"","","","","","","","","","","","canvas-keyboard-response","405","722578","0.0-405.0","null","null","","","","","","","","","","","","","","fixation","","","2","43","","","","","","","","","",""
"","","","","","","","","","","","canvas-keyboard-response","406","722885","0.0-406.0","null","null","","","","","","","","","","","","","","stimulus","","","2","43","","","","","","","","","",""
"","","","","","","","","","","","canvas-button-response","407","726279","0.0-407.0","3390","house","","","","","","","","","","","","","","perceptual","","","2","43","","","","","297","cat","6","0","0",""
"","","","","","","","","","","","canvas-button-response","408","726916","0.0-408.0","630","3","","","","","","","","","","","","","","confidence","","","2","43","","","","","","","","","","20"
"","","","","","","","","","","","preload","409","726920","0.0-409.0","","","","","true","","","","","","","","","","","preload","","","2","44","false","[]","[]","[]","","","","","",""
"","","","","","","","","","","","canvas-keyboard-response","410","727229","0.0-410.0","null","null","","","","","","","","","","","","","","fixation","","","2","44","","","","","","","","","",""
"","","","","","","","","","","","canvas-keyboard-response","411","727541","0.0-411.0","null","null","","","","","","","","","","","","","","stimulus","","","2","44","","","","","","","","","",""
"","","","","","","","","","","","canvas-button-response","412","731839","0.0-412.0","4293","cat","","","","","","","","","","","","","","perceptual","","","2","44","","","","","116","phone","10","0","0",""
"","","","","","","","","","","","canvas-button-response","413","732540","0.0-413.0","696","4","","","","","","","","","","","","","","confidence","","","2","44","","","","","","","","","","20"
"","","","","","","","","","","","preload","414","732543","0.0-414.0","","","","","true","","","","","","","","","","","preload","","","2","45","false","[]","[]","[]","","","","","",""
"","","","","","","","","","","","canvas-keyboard-response","415","732853","0.0-415.0","null","null","","","","","","","","","","","","","","fixation","","","2","45","","","","","","","","","",""
"","","","","","","","","","","","canvas-keyboard-response","416","733157","0.0-416.0","null","null","","","","","","","","","","","","","","stimulus","","","2","45","","","","","","","","","",""
"","","","","","","","","","","","canvas-button-response","417","740079","0.0-417.0","6916","house","","","","","","","","","","","","","","perceptual","","","2","45","","","","","150","bed","10","0","0",""
"","","","","","","","","","","","canvas-button-response","418","741042","0.0-418.0","957","3","","","","","","","","","","","","","","confidence","","","2","45","","","","","","","","","","20"
"","","","","","","","","","","","preload","419","741045","0.0-419.0","","","","","true","","","","","","","","","","","preload","","","2","46","false","[]","[]","[]","","","","","",""
"","","","","","","","","","","","canvas-keyboard-response","420","741357","0.0-420.0","null","null","","","","","","","","","","","","","","fixation","","","2","46","","","","","","","","","",""
"","","","","","","","","","","","canvas-keyboard-response","421","741661","0.0-421.0","null","null","","","","","","","","","","","","","","stimulus","","","2","46","","","","","","","","","",""
"","","","","","","","","","","","canvas-button-response","422","744134","0.0-422.0","2467","elephant","","","","","","","","","","","","","","perceptual","","","2","46","","","","","348","elephant","10","0","1",""
"","","","","","","","","","","","canvas-button-response","423","745468","0.0-423.0","1326","6","","","","","","","","","","","","","","confidence","","","2","46","","","","","","","","","","21"
"","","","","","","","","","","","preload","424","745471","0.0-424.0","","","","","true","","","","","","","","","","","preload","","","2","47","false","[]","[]","[]","","","","","",""
"","","","","","","","","","","","canvas-keyboard-response","425","745786","0.0-425.0","null","null","","","","","","","","","","","","","","fixation","","","2","47","","","","","","","","","",""
"","","","","","","","","","","","canvas-keyboard-response","426","746100","0.0-426.0","null","null","","","","","","","","","","","","","","stimulus","","","2","47","","","","","","","","","",""
"","","","","","","","","","","","canvas-button-response","427","747019","0.0-427.0","914","car","","","","","","","","","","","","","","perceptual","","","2","47","","","","","179","bridge","6","0","0",""
"","","","","","","","","","","","canvas-button-response","428","747683","0.0-428.0","658","3","","","","","","","","","","","","","","confidence","","","2","47","","","","","","","","","","21"
"","","","","","","","","","","","preload","429","747686","0.0-429.0","","","","","true","","","","","","","","","","","preload","","","2","48","false","[]","[]","[]","","","","","",""
"","","","","","","","","","","","canvas-keyboard-response","430","747989","0.0-430.0","null","null","","","","","","","","","","","","","","fixation","","","2","48","","","","","","","","","",""
"","","","","","","","","","","","canvas-keyboard-response","431","748292","0.0-431.0","null","null","","","","","","","","","","","","","","stimulus","","","2","48","","","","","","","","","",""
"","","","","","","","","","","","canvas-button-response","432","752460","0.0-432.0","4162","house","","","","","","","","","","","","","","perceptual","","","2","48","","","","","215","flower","6","0","0",""
"","","","","","","","","","","","canvas-button-response","433","753181","0.0-433.0","713","4","","","","","","","","","","","","","","confidence","","","2","48","","","","","","","","","","21"
"","","","","","","","","","","","preload","434","753183","0.0-434.0","","","","","true","","","","","","","","","","","preload","","","2","49","false","[]","[]","[]","","","","","",""
"","","","","","","","","","","","canvas-keyboard-response","435","753493","0.0-435.0","null","null","","","","","","","","","","","","","","fixation","","","2","49","","","","","","","","","",""
"","","","","","","","","","","","canvas-keyboard-response","436","753797","0.0-436.0","null","null","","","","","","","","","","","","","","stimulus","","","2","49","","","","","","","","","",""
"","","","","","","","","","","","canvas-button-response","437","803474","0.0-437.0","49671","bridge","","","","","","","","","","","","","","perceptual","","","2","49","","","","","353","elephant","10","0","0",""
"","","","","","","","","","","","canvas-button-response","438","804121","0.0-438.0","642","4","","","","","","","","","","","","","","confidence","","","2","49","","","","","","","","","","21"
"","","","","","","","","","","","html-button-response","439","815039","0.0-439.0","10913","0","","","","","","","","","","","","","","<p style=""font-size:20px;color:#000000"">You got 21 out of 50 trials correct in this block.<br><br>You have completed 6% of the experiment.<br><br>Take a short break.<br><br>When you are ready, click Continue to proceed.","","","2","49","","","","","","","","","",""
"","","","","","","","","","","","html-keyboard-response","440","816047","0.0-440.0","null","null","","","","","","","","","","","","","","<p style=""font-size:32px;color:#000000""><br><br> RUN: &nbsp 1/4 <br><br> BLOCK: 2/4 ","","","2","49","","","","","","","","","",""
"","","","","","","","","","","","preload","441","816048","0.0-441.0","","","","","true","","","","","","","","","","","preload","","","2","50","false","[]","[]","[]","","","","","",""
"","","","","","","","","","","","canvas-keyboard-response","442","816356","0.0-442.0","null","null","","","","","","","","","","","","","","fixation","","","2","50","","","","","","","","","",""
"","","","","","","","","","","","canvas-keyboard-response","443","816661","0.0-443.0","null","null","","","","","","","","","","","","","","stimulus","","","2","50","","","","","","","","","",""
"","","","","","","","","","","","canvas-button-response","444","817625","0.0-444.0","957","car","","","","","","","","","","","","","","perceptual","","","2","50","","","","","293","cat","6","0","0",""
"","","","","","","","","","","","canvas-button-response","445","818241","0.0-445.0","606","5","","","","","","","","","","","","","","confidence","","","2","50","","","","","","","","","","0"
"","","","","","","","","","","","preload","446","818243","0.0-446.0","","","","","true","","","","","","","","","","","preload","","","2","51","false","[]","[]","[]","","","","","",""
"","","","","","","","","","","","canvas-keyboard-response","447","818549","0.0-447.0","null","null","","","","","","","","","","","","","","fixation","","","2","51","","","","","","","","","",""
"","","","","","","","","","","","canvas-keyboard-response","448","818852","0.0-448.0","null","null","","","","","","","","","","","","","","stimulus","","","2","51","","","","","","","","","",""
"","","","","","","","","","","","canvas-button-response","449","819798","0.0-449.0","939","knife","","","","","","","","","","","","","","perceptual","","","2","51","","","","","141","bed","10","0","0",""
"","","","","","","","","","","","canvas-button-response","450","820319","0.0-450.0","516","5","","","","","","","","","","","","","","confidence","","","2","51","","","","","","","","","","0"
"","","","","","","","","","","","preload","451","820321","0.0-451.0","","","","","true","","","","","","","","","","","preload","","","2","52","false","[]","[]","[]","","","","","",""
"","","","","","","","","","","","canvas-keyboard-response","452","820629","0.0-452.0","null","null","","","","","","","","","","","","","","fixation","","","2","52","","","","","","","","","",""
"","","","","","","","","","","","canvas-keyboard-response","453","820933","0.0-453.0","null","null","","","","","","","","","","","","","","stimulus","","","2","52","","","","","","","","","",""
"","","","","","","","","","","","canvas-button-response","454","821782","0.0-454.0","842","car","","","","","","","","","","","","","","perceptual","","","2","52","","","","","205","flower","6","0","0",""
"","","","","","","","","","","","canvas-button-response","455","822293","0.0-455.0","506","5","","","","","","","","","","","","","","confidence","","","2","52","","","","","","","","","","0"
"","","","","","","","","","","","preload","456","822295","0.0-456.0","","","","","true","","","","","","","","","","","preload","","","2","53","false","[]","[]","[]","","","","","",""
"","","","","","","","","","","","canvas-keyboard-response","457","822605","0.0-457.0","null","null","","","","","","","","","","","","","","fixation","","","2","53","","","","","","","","","",""
"","","","","","","","","","","","canvas-keyboard-response","458","822917","0.0-458.0","null","null","","","","","","","","","","","","","","stimulus","","","2","53","","","","","","","","","",""
"","","","","","","","","","","","canvas-button-response","459","825492","0.0-459.0","2567","train","","","","","","","","","","","","","","perceptual","","","2","53","","","","","208","flower","6","0","0",""
"","","","","","","","","","","","canvas-button-response","460","825962","0.0-460.0","462","6","","","","","","","","","","","","","","confidence","","","2","53","","","","","","","","","","0"
"","","","","","","","","","","","preload","461","825966","0.0-461.0","","","","","true","","","","","","","","","","","preload","","","2","54","false","[]","[]","[]","","","","","",""
"","","","","","","","","","","","canvas-keyboard-response","462","826277","0.0-462.0","null","null","","","","","","","","","","","","","","fixation","","","2","54","","","","","","","","","",""
"","","","","","","","","","","","canvas-keyboard-response","463","826645","0.0-463.0","null","null","","","","","","","","","","","","","","stimulus","","","2","54","","","","","","","","","",""
"","","","","","","","","","","","canvas-button-response","464","827508","0.0-464.0","857","car","","","","","","","","","","","","","","perceptual","","","2","54","","","","","398","knife","10","0","0",""
"","","","","","","","","","","","canvas-button-response","465","828436","0.0-465.0","921","5","","","","","","","","","","","","","","confidence","","","2","54","","","","","","","","","","0"
"","","","","","","","","","","","preload","466","828438","0.0-466.0","","","","","true","","","","","","","","","","","preload","","","2","55","false","[]","[]","[]","","","","","",""
"","","","","","","","","","","","canvas-keyboard-response","467","828749","0.0-467.0","null","null","","","","","","","","","","","","","","fixation","","","2","55","","","","","","","","","",""
"","","","","","","","","","","","canvas-keyboard-response","468","829061","0.0-468.0","null","null","","","","","","","","","","","","","","stimulus","","","2","55","","","","","","","","","",""
"","","","","","","","","","","","canvas-button-response","469","830701","0.0-469.0","1634","house","","","","","","","","","","","","","","perceptual","","","2","55","","","","","164","bridge","6","0","0",""
"","","","","","","","","","","","canvas-button-response","470","831153","0.0-470.0","447","4","","","","","","","","","","","","","","confidence","","","2","55","","","","","","","","","","0"
"","","","","","","","","","","","preload","471","831155","0.0-471.0","","","","","true","","","","","","","","","","","preload","","","2","56","false","[]","[]","[]","","","","","",""
"","","","","","","","","","","","canvas-keyboard-response","472","831461","0.0-472.0","null","null","","","","","","","","","","","","","","fixation","","","2","56","","","","","","","","","",""
"","","","","","","","","","","","canvas-keyboard-response","473","831765","0.0-473.0","null","null","","","","","","","","","","","","","","stimulus","","","2","56","","","","","","","","","",""
"","","","","","","","","","","","canvas-button-response","474","833680","0.0-474.0","1910","car","","","","","","","","","","","","","","perceptual","","","2","56","","","","","57","car","6","0","1",""
"","","","","","","","","","","","canvas-button-response","475","834201","0.0-475.0","517","5","","","","","","","","","","","","","","confidence","","","2","56","","","","","","","","","","1"
"","","","","","","","","","","","preload","476","834203","0.0-476.0","","","","","true","","","","","","","","","","","preload","","","2","57","false","[]","[]","[]","","","","","",""
"","","","","","","","","","","","canvas-keyboard-response","477","834509","0.0-477.0","null","null","","","","","","","","","","","","","","fixation","","","2","57","","","","","","","","","",""
"","","","","","","","","","","","canvas-keyboard-response","478","834821","0.0-478.0","null","null","","","","","","","","","","","","","","stimulus","","","2","57","","","","","","","","","",""
"","","","","","","","","","","","canvas-button-response","479","836911","0.0-479.0","2082","house","","","","","","","","","","","","","","perceptual","","","2","57","","","","","70","car","10","0","0",""
"","","","","","","","","","","","canvas-button-response","480","837308","0.0-480.0","388","4","","","","","","","","","","","","","","confidence","","","2","57","","","","","","","","","","1"
"","","","","","","","","","","","preload","481","837311","0.0-481.0","","","","","true","","","","","","","","","","","preload","","","2","58","false","[]","[]","[]","","","","","",""
"","","","","","","","","","","","canvas-keyboard-response","482","837621","0.0-482.0","null","null","","","","","","","","","","","","","","fixation","","","2","58","","","","","","","","","",""
"","","","","","","","","","","","canvas-keyboard-response","483","837933","0.0-483.0","null","null","","","","","","","","","","","","","","stimulus","","","2","58","","","","","","","","","",""
"","","","","","","","","","","","canvas-button-response","484","838982","0.0-484.0","1045","bridge","","","","","","","","","","","","","","perceptual","","","2","58","","","","","9","house","6","0","0",""
"","","","","","","","","","","","canvas-button-response","485","839460","0.0-485.0","473","3","","","","","","","","","","","","","","confidence","","","2","58","","","","","","","","","","1"
"","","","","","","","","","","","preload","486","839462","0.0-486.0","","","","","true","","","","","","","","","","","preload","","","2","59","false","[]","[]","[]","","","","","",""
"","","","","","","","","","","","canvas-keyboard-response","487","839773","0.0-487.0","null","null","","","","","","","","","","","","","","fixation","","","2","59","","","","","","","","","",""
"","","","","","","","","","","","canvas-keyboard-response","488","840077","0.0-488.0","null","null","","","","","","","","","","","","","","stimulus","","","2","59","","","","","","","","","",""
"","","","","","","","","","","","canvas-button-response","489","840863","0.0-489.0","783","car","","","","","","","","","","","","","","perceptual","","","2","59","","","","","189","bridge","10","0","0",""
"","","","","","","","","","","","canvas-button-response","490","841406","0.0-490.0","537","3","","","","","","","","","","","","","","confidence","","","2","59","","","","","","","","","","1"
"","","","","","","","","","","","preload","491","841408","0.0-491.0","","","","","true","","","","","","","","","","","preload","","","2","60","false","[]","[]","[]","","","","","",""
"","","","","","","","","","","","canvas-keyboard-response","492","841717","0.0-492.0","null","null","","","","","","","","","","","","","","fixation","","","2","60","","","","","","","","","",""
