"width","height","webaudio","browser","browser_version","mobile","os","fullscreen","vsync_rate","webcam","microphone","trial_type","trial_index","time_elapsed","internal_node_id","rt","response","accuracy","view_history","success","item_width_mm","item_height_mm","item_width_px","px2mm","view_dist_mm","item_width_deg","px2deg","scale_factor","win_width_deg","win_height_deg","stimulus","datetime","subjectID","curr_triallist","trial_no","timeout","failed_images","failed_audio","failed_video","image_index","category","blur","reps","correct","running_score"
"1920","958","true","chrome","141.0.0","false","Mac OS","true","76.08","true","true","browser-check","0","58514","0.0-0.0","","","","","","","","","","","","","","","","","","","","","","","","","","","","","",""
"","","","","","","","","","","","survey","1","84827","0.0-1.0","26261","{""P0_Q0"":""903614402"",""P0_Q1"":""24"",""P1_Q0"":""Male"",""P1_Q1"":""Not Hispanic or Latino"",""P1_Q2"":""Asian"",""P1_Q3"":""Corrected-to-Normal (using glasses/contacts)"",""P1_Q4"":""Left-Handed""}","[]","","","","","","","","","","","","","","","","","","","","","","","","","","",""
"","","","","","","","","","","","instructions","2","102845","0.0-2.0","18017","","","[{""page_index"":0,""viewing_time"":6188},{""page_index"":1,""viewing_time"":8003},{""page_index"":2,""viewing_time"":3801},{""page_index"":3,""viewing_time"":26}]","","","","","","","","","","","","","","","","","","","","","","","","","",""
"","","","","","","","","","","","fullscreen","3","105690","0.0-3.0","1841","","","","true","","","","","","","","","","","","","","","","","","","","","","","","",""
"","","","","","","","","","","","virtual-chinrest","4","156001","0.0-4.0","50308","","","","","85.6","53.98","173.7914598263607","2.0298842507718926","845.9","5.79304866087869","30","1.4385056679412276","64","36","","","","","","","","","","","","","","",""
"","","","","","","","","","","","instructions","5","251472","0.0-5.0","95472","","","[{""page_index"":0,""viewing_time"":4075},{""page_index"":1,""viewing_time"":1189},{""page_index"":0,""viewing_time"":11008},{""page_index"":1,""viewing_time"":8377},{""page_index"":2,""viewing_time"":1070},{""page_index"":1,""viewing_time"":1922},{""page_index"":2,""viewing_time"":18798},{""page_index"":3,""viewing_time"":1081},{""page_index"":2,""viewing_time"":3347},{""page_index"":3,""viewing_time"":4533},{""page_index"":4,""viewing_time"":1009},{""page_index"":3,""viewing_time"":925},{""page_index"":4,""viewing_time"":11912},{""page_index"":5,""viewing_time"":1442},{""page_index"":4,""viewing_time"":1012},{""page_index"":5,""viewing_time"":19173},{""page_index"":6,""viewing_time"":4600}]","","","","","","","","","","","","","","","","","","","","","","","","","",""
"","","","","","","","","","","","html-button-response","6","280338","0.0-6.0","28862","0","","","","","","","","","","","","","","start_practice","Sat Oct 18 2025 21:00:11 GMT-0400 (Eastern Daylight Time)","27704","","","","","","","","","","","",""
"","","","","","","","","","","","preload","7","280340","0.0-7.0","","","","","true","","","","","","","","","","","preload","","","0","0","false","[]","[]","[]","","","","","",""
"","","","","","","","","","","","canvas-keyboard-response","8","280645","0.0-8.0","null","null","","","","","","","","","","","","","","fixation","","","0","0","","","","","","","","","",""
"","","","","","","","","","","","canvas-keyboard-response","9","280948","0.0-9.0","null","null","","","","","","","","","","","","","","stimulus","","","0","0","","","","","","","","","",""
"","","","","","","","","","","","canvas-button-response","10","281976","0.0-10.0","1023","car","","","","","","","","","","","","","","perceptual","","","0","0","","","","","12","car","1","","1",""
"","","","","","","","","","","","canvas-button-response","11","283431","0.0-11.0","1452","9","","","","","","","","","","","","","","confidence","","","0","0","","","","","","","","","","1"
"","","","","","","","","","","","html-keyboard-response","12","284435","0.0-12.0","null","null","","","","","","","","","","","","","","feedback","Sat Oct 18 2025 21:00:43 GMT-0400 (Eastern Daylight Time)","27704","0","0","","","","","","","","","",""
"","","","","","","","","","","","preload","13","284437","0.0-13.0","","","","","true","","","","","","","","","","","preload","","","0","1","false","[]","[]","[]","","","","","",""
"","","","","","","","","","","","canvas-keyboard-response","14","284738","0.0-14.0","null","null","","","","","","","","","","","","","","fixation","","","0","1","","","","","","","","","",""
"","","","","","","","","","","","canvas-keyboard-response","15","285041","0.0-15.0","null","null","","","","","","","","","","","","","","stimulus","","","0","1","","","","","","","","","",""
"","","","","","","","","","","","canvas-button-response","16","286431","0.0-16.0","1386","bridge","","","","","","","","","","","","","","perceptual","","","0","1","","","","","42","bridge","1","","1",""
"","","","","","","","","","","","canvas-button-response","17","287565","0.0-17.0","1131","10","","","","","","","","","","","","","","confidence","","","0","1","","","","","","","","","","2"
"","","","","","","","","","","","html-keyboard-response","18","288569","0.0-18.0","null","null","","","","","","","","","","","","","","feedback","Sat Oct 18 2025 21:00:47 GMT-0400 (Eastern Daylight Time)","27704","0","1","","","","","","","","","",""
"","","","","","","","","","","","preload","19","288570","0.0-19.0","","","","","true","","","","","","","","","","","preload","","","0","2","false","[]","[]","[]","","","","","",""
"","","","","","","","","","","","canvas-keyboard-response","20","288872","0.0-20.0","null","null","","","","","","","","","","","","","","fixation","","","0","2","","","","","","","","","",""
"","","","","","","","","","","","canvas-keyboard-response","21","289176","0.0-21.0","null","null","","","","","","","","","","","","","","stimulus","","","0","2","","","","","","","","","",""
"","","","","","","","","","","","canvas-button-response","22","290006","0.0-22.0","826","cat","","","","","","","","","","","","","","perceptual","","","0","2","","","","","72","cat","1","","1",""
"","","","","","","","","","","","canvas-button-response","23","290926","0.0-23.0","917","10","","","","","","","","","","","","","","confidence","","","0","2","","","","","","","","","","3"
"","","","","","","","","","","","html-keyboard-response","24","291928","0.0-24.0","null","null","","","","","","","","","","","","","","feedback","Sat Oct 18 2025 21:00:50 GMT-0400 (Eastern Daylight Time)","27704","0","2","","","","","","","","","",""
"","","","","","","","","","","","preload","25","291930","0.0-25.0","","","","","true","","","","","","","","","","","preload","","","0","3","false","[]","[]","[]","","","","","",""
"","","","","","","","","","","","canvas-keyboard-response","26","292232","0.0-26.0","null","null","","","","","","","","","","","","","","fixation","","","0","3","","","","","","","","","",""
"","","","","","","","","","","","canvas-keyboard-response","27","292535","0.0-27.0","null","null","","","","","","","","","","","","","","stimulus","","","0","3","","","","","","","","","",""
"","","","","","","","","","","","canvas-button-response","28","294300","0.0-28.0","1762","bed","","","","","","","","","","","","","","perceptual","","","0","3","","","","","32","bed","1","","1",""
"","","","","","","","","","","","canvas-button-response","29","295035","0.0-29.0","732","10","","","","","","","","","","","","","","confidence","","","0","3","","","","","","","","","","4"
"","","","","","","","","","","","html-keyboard-response","30","296037","0.0-30.0","null","null","","","","","","","","","","","","","","feedback","Sat Oct 18 2025 21:00:54 GMT-0400 (Eastern Daylight Time)","27704","0","3","","","","","","","","","",""
"","","","","","","","","","","","preload","31","296039","0.0-31.0","","","","","true","","","","","","","","","","","preload","","","0","4","false","[]","[]","[]","","","","","",""
"","","","","","","","","","","","canvas-keyboard-response","32","296341","0.0-32.0","null","null","","","","","","","","","","","","","","fixation","","","0","4","","","","","","","","","",""
"","","","","","","","","","","","canvas-keyboard-response","33","296644","0.0-33.0","null","null","","","","","","","","","","","","","","stimulus","","","0","4","","","","","","","","","",""
"","","","","","","","","","","","canvas-button-response","34","299716","0.0-34.0","3069","house","","","","","","","","","","","","","","perceptual","","","0","4","","","","","52","flower","1","","0",""
"","","","","","","","","","","","canvas-button-response","35","300770","0.0-35.0","1051","10","","","","","","","","","","","","","","confidence","","","0","4","","","","","","","","","","4"
"","","","","","","","","","","","html-keyboard-response","36","301772","0.0-36.0","null","null","","","","","","","","","","","","","","feedback","Sat Oct 18 2025 21:01:00 GMT-0400 (Eastern Daylight Time)","27704","0","4","","","","","","","","","",""
"","","","","","","","","","","","preload","37","301773","0.0-37.0","","","","","true","","","","","","","","","","","preload","","","0","5","false","[]","[]","[]","","","","","",""
"","","","","","","","","","","","canvas-keyboard-response","38","302077","0.0-38.0","null","null","","","","","","","","","","","","","","fixation","","","0","5","","","","","","","","","",""
"","","","","","","","","","","","canvas-keyboard-response","39","302380","0.0-39.0","null","null","","","","","","","","","","","","","","stimulus","","","0","5","","","","","","","","","",""
"","","","","","","","","","","","canvas-button-response","40","310839","0.0-40.0","8456","train","","","","","","","","","","","","","","perceptual","","","0","5","","","","","82","elephant","1","","0",""
"","","","","","","","","","","","canvas-button-response","41","310879","0.0-41.0","38","9","","","","","","","","","","","","","","confidence","","","0","5","","","","","","","","","","4"
"","","","","","","","","","","","html-keyboard-response","42","311882","0.0-42.0","null","null","","","","","","","","","","","","","","feedback","Sat Oct 18 2025 21:01:10 GMT-0400 (Eastern Daylight Time)","27704","0","5","","","","","","","","","",""
"","","","","","","","","","","","preload","43","311884","0.0-43.0","","","","","true","","","","","","","","","","","preload","","","0","6","false","[]","[]","[]","","","","","",""
"","","","","","","","","","","","canvas-keyboard-response","44","312186","0.0-44.0","null","null","","","","","","","","","","","","","","fixation","","","0","6","","","","","","","","","",""
"","","","","","","","","","","","canvas-keyboard-response","45","312490","0.0-45.0","null","null","","","","","","","","","","","","","","stimulus","","","0","6","","","","","","","","","",""
"","","","","","","","","","","","canvas-button-response","46","319776","0.0-46.0","7283","knife","","","","","","","","","","","","","","perceptual","","","0","6","","","","","92","knife","1","","1",""
"","","","","","","","","","","","canvas-button-response","47","321457","0.0-47.0","1678","2","","","","","","","","","","","","","","confidence","","","0","6","","","","","","","","","","5"
"","","","","","","","","","","","html-keyboard-response","48","322459","0.0-48.0","null","null","","","","","","","","","","","","","","feedback","Sat Oct 18 2025 21:01:21 GMT-0400 (Eastern Daylight Time)","27704","0","6","","","","","","","","","",""
"","","","","","","","","","","","preload","49","322460","0.0-49.0","","","","","true","","","","","","","","","","","preload","","","0","7","false","[]","[]","[]","","","","","",""
"","","","","","","","","","","","canvas-keyboard-response","50","322762","0.0-50.0","null","null","","","","","","","","","","","","","","fixation","","","0","7","","","","","","","","","",""
"","","","","","","","","","","","canvas-keyboard-response","51","323065","0.0-51.0","null","null","","","","","","","","","","","","","","stimulus","","","0","7","","","","","","","","","",""
"","","","","","","","","","","","canvas-button-response","52","324778","0.0-52.0","1710","house","","","","","","","","","","","","","","perceptual","","","0","7","","","","","2","house","1","","1",""
"","","","","","","","","","","","canvas-button-response","53","325499","0.0-53.0","717","10","","","","","","","","","","","","","","confidence","","","0","7","","","","","","","","","","6"
"","","","","","","","","","","","html-keyboard-response","54","326502","0.0-54.0","null","null","","","","","","","","","","","","","","feedback","Sat Oct 18 2025 21:01:25 GMT-0400 (Eastern Daylight Time)","27704","0","7","","","","","","","","","",""
"","","","","","","","","","","","preload","55","326503","0.0-55.0","","","","","true","","","","","","","","","","","preload","","","0","8","false","[]","[]","[]","","","","","",""
"","","","","","","","","","","","canvas-keyboard-response","56","326806","0.0-56.0","null","null","","","","","","","","","","","","","","fixation","","","0","8","","","","","","","","","",""
"","","","","","","","","","","","canvas-keyboard-response","57","327109","0.0-57.0","null","null","","","","","","","","","","","","","","stimulus","","","0","8","","","","","","","","","",""
"","","","","","","","","","","","canvas-button-response","58","327872","0.0-58.0","760","phone","","","","","","","","","","","","","","perceptual","","","0","8","","","","","22","phone","1","","1",""
"","","","","","","","","","","","canvas-button-response","59","328486","0.0-59.0","611","10","","","","","","","","","","","","","","confidence","","","0","8","","","","","","","","","","7"
"","","","","","","","","","","","html-keyboard-response","60","329489","0.0-60.0","null","null","","","","","","","","","","","","","","feedback","Sat Oct 18 2025 21:01:28 GMT-0400 (Eastern Daylight Time)","27704","0","8","","","","","","","","","",""
"","","","","","","","","","","","preload","61","329490","0.0-61.0","","","","","true","","","","","","","","","","","preload","","","0","9","false","[]","[]","[]","","","","","",""
"","","","","","","","","","","","canvas-keyboard-response","62","329794","0.0-62.0","null","null","","","","","","","","","","","","","","fixation","","","0","9","","","","","","","","","",""
"","","","","","","","","","","","canvas-keyboard-response","63","330097","0.0-63.0","null","null","","","","","","","","","","","","","","stimulus","","","0","9","","","","","","","","","",""
"","","","","","","","","","","","canvas-button-response","64","330927","0.0-64.0","827","train","","","","","","","","","","","","","","perceptual","","","0","9","","","","","62","train","1","","1",""
"","","","","","","","","","","","canvas-button-response","65","331501","0.0-65.0","571","10","","","","","","","","","","","","","","confidence","","","0","9","","","","","","","","","","8"
"","","","","","","","","","","","html-keyboard-response","66","332504","0.0-66.0","null","null","","","","","","","","","","","","","","feedback","Sat Oct 18 2025 21:01:31 GMT-0400 (Eastern Daylight Time)","27704","0","9","","","","","","","","","",""
"","","","","","","","","","","","html-button-response","67","355015","0.0-67.0","22508","0","","","","","","","","","","","","","","start_practice","Sat Oct 18 2025 21:01:32 GMT-0400 (Eastern Daylight Time)","27704","0","9","","","","","","","","","",""
"","","","","","","","","","","","preload","68","355016","0.0-68.0","","","","","true","","","","","","","","","","","preload","","","1","0","false","[]","[]","[]","","","","","",""
"","","","","","","","","","","","canvas-keyboard-response","69","355319","0.0-69.0","null","null","","","","","","","","","","","","","","fixation","","","1","0","","","","","","","","","",""
"","","","","","","","","","","","canvas-keyboard-response","70","355622","0.0-70.0","null","null","","","","","","","","","","","","","","stimulus","","","1","0","","","","","","","","","",""
"","","","","","","","","","","","canvas-button-response","71","360043","0.0-71.0","4418","train","","","","","","","","","","","","","","perceptual","","","1","0","","","","","97","knife","10","","0",""
"","","","","","","","","","","","canvas-button-response","72","362231","0.0-72.0","2185","3","","","","","","","","","","","","","","confidence","","","1","0","","","","","","","","","","0"
"","","","","","","","","","","","html-keyboard-response","73","363234","0.0-73.0","null","null","","","","","","","","","","","","","","feedback","Sat Oct 18 2025 21:02:02 GMT-0400 (Eastern Daylight Time)","27704","1","0","","","","","","","","","",""
"","","","","","","","","","","","preload","74","363235","0.0-74.0","","","","","true","","","","","","","","","","","preload","","","1","1","false","[]","[]","[]","","","","","",""
"","","","","","","","","","","","canvas-keyboard-response","75","363537","0.0-75.0","null","null","","","","","","","","","","","","","","fixation","","","1","1","","","","","","","","","",""
"","","","","","","","","","","","canvas-keyboard-response","76","363841","0.0-76.0","null","null","","","","","","","","","","","","","","stimulus","","","1","1","","","","","","","","","",""
"","","","","","","","","","","","canvas-button-response","77","366966","0.0-77.0","3122","cat","","","","","","","","","","","","","","perceptual","","","1","1","","","","","74","cat","6","","1",""
"","","","","","","","","","","","canvas-button-response","78","368447","0.0-78.0","1478","2","","","","","","","","","","","","","","confidence","","","1","1","","","","","","","","","","1"
"","","","","","","","","","","","html-keyboard-response","79","369449","0.0-79.0","null","null","","","","","","","","","","","","","","feedback","Sat Oct 18 2025 21:02:08 GMT-0400 (Eastern Daylight Time)","27704","1","1","","","","","","","","","",""
"","","","","","","","","","","","preload","80","369450","0.0-80.0","","","","","true","","","","","","","","","","","preload","","","1","2","false","[]","[]","[]","","","","","",""
"","","","","","","","","","","","canvas-keyboard-response","81","369753","0.0-81.0","null","null","","","","","","","","","","","","","","fixation","","","1","2","","","","","","","","","",""
"","","","","","","","","","","","canvas-keyboard-response","82","370056","0.0-82.0","null","null","","","","","","","","","","","","","","stimulus","","","1","2","","","","","","","","","",""
"","","","","","","","","","","","canvas-button-response","83","375662","0.0-83.0","5604","bed","","","","","","","","","","","","","","perceptual","","","1","2","","","","","94","knife","6","","0",""
"","","","","","","","","","","","canvas-button-response","84","376449","0.0-84.0","784","2","","","","","","","","","","","","","","confidence","","","1","2","","","","","","","","","","1"
"","","","","","","","","","","","html-keyboard-response","85","377452","0.0-85.0","null","null","","","","","","","","","","","","","","feedback","Sat Oct 18 2025 21:02:16 GMT-0400 (Eastern Daylight Time)","27704","1","2","","","","","","","","","",""
"","","","","","","","","","","","preload","86","377453","0.0-86.0","","","","","true","","","","","","","","","","","preload","","","1","3","false","[]","[]","[]","","","","","",""
"","","","","","","","","","","","canvas-keyboard-response","87","377756","0.0-87.0","null","null","","","","","","","","","","","","","","fixation","","","1","3","","","","","","","","","",""
"","","","","","","","","","","","canvas-keyboard-response","88","378059","0.0-88.0","null","null","","","","","","","","","","","","","","stimulus","","","1","3","","","","","","","","","",""
"","","","","","","","","","","","canvas-button-response","89","379223","0.0-89.0","1161","house","","","","","","","","","","","","","","perceptual","","","1","3","","","","","4","house","6","","1",""
"","","","","","","","","","","","canvas-button-response","90","380117","0.0-90.0","891","8","","","","","","","","","","","","","","confidence","","","1","3","","","","","","","","","","2"
"","","","","","","","","","","","html-keyboard-response","91","381120","0.0-91.0","null","null","","","","","","","","","","","","","","feedback","Sat Oct 18 2025 21:02:20 GMT-0400 (Eastern Daylight Time)","27704","1","3","","","","","","","","","",""
"","","","","","","","","","","","preload","92","381121","0.0-92.0","","","","","true","","","","","","","","","","","preload","","","1","4","false","[]","[]","[]","","","","","",""
"","","","","","","","","","","","canvas-keyboard-response","93","381424","0.0-93.0","null","null","","","","","","","","","","","","","","fixation","","","1","4","","","","","","","","","",""
"","","","","","","","","","","","canvas-keyboard-response","94","381727","0.0-94.0","null","null","","","","","","","","","","","","","","stimulus","","","1","4","","","","","","","","","",""
"","","","","","","","","","","","canvas-button-response","95","384238","0.0-95.0","2508","train","","","","","","","","","","","","","","perceptual","","","1","4","","","","","54","flower","6","","0",""
"","","","","","","","","","","","canvas-button-response","96","386106","0.0-96.0","1865","1","","","","","","","","","","","","","","confidence","","","1","4","","","","","","","","","","2"
"","","","","","","","","","","","html-keyboard-response","97","387109","0.0-97.0","null","null","","","","","","","","","","","","","","feedback","Sat Oct 18 2025 21:02:25 GMT-0400 (Eastern Daylight Time)","27704","1","4","","","","","","","","","",""
"","","","","","","","","","","","preload","98","387111","0.0-98.0","","","","","true","","","","","","","","","","","preload","","","1","5","false","[]","[]","[]","","","","","",""
"","","","","","","","","","","","canvas-keyboard-response","99","387414","0.0-99.0","null","null","","","","","","","","","","","","","","fixation","","","1","5","","","","","","","","","",""
"","","","","","","","","","","","canvas-keyboard-response","100","387717","0.0-100.0","null","null","","","","","","","","","","","","","","stimulus","","","1","5","","","","","","","","","",""
"","","","","","","","","","","","canvas-button-response","101","390574","0.0-101.0","2854","car","","","","","","","","","","","","","","perceptual","","","1","5","","","","","14","car","6","","1",""
"","","","","","","","","","","","canvas-button-response","102","392415","0.0-102.0","1838","4","","","","","","","","","","","","","","confidence","","","1","5","","","","","","","","","","3"
"","","","","","","","","","","","html-keyboard-response","103","393419","0.0-103.0","null","null","","","","","","","","","","","","","","feedback","Sat Oct 18 2025 21:02:32 GMT-0400 (Eastern Daylight Time)","27704","1","5","","","","","","","","","",""
"","","","","","","","","","","","preload","104","393420","0.0-104.0","","","","","true","","","","","","","","","","","preload","","","1","6","false","[]","[]","[]","","","","","",""
"","","","","","","","","","","","canvas-keyboard-response","105","393723","0.0-105.0","null","null","","","","","","","","","","","","","","fixation","","","1","6","","","","","","","","","",""
"","","","","","","","","","","","canvas-keyboard-response","106","394026","0.0-106.0","null","null","","","","","","","","","","","","","","stimulus","","","1","6","","","","","","","","","",""
"","","","","","","","","","","","canvas-button-response","107","395070","0.0-107.0","1041","train","","","","","","","","","","","","","","perceptual","","","1","6","","","","","67","train","10","","1",""
"","","","","","","","","","","","canvas-button-response","108","396148","0.0-108.0","1076","8","","","","","","","","","","","","","","confidence","","","1","6","","","","","","","","","","4"
"","","","","","","","","","","","html-keyboard-response","109","397151","0.0-109.0","null","null","","","","","","","","","","","","","","feedback","Sat Oct 18 2025 21:02:36 GMT-0400 (Eastern Daylight Time)","27704","1","6","","","","","","","","","",""
"","","","","","","","","","","","preload","110","397152","0.0-110.0","","","","","true","","","","","","","","","","","preload","","","1","7","false","[]","[]","[]","","","","","",""
"","","","","","","","","","","","canvas-keyboard-response","111","397455","0.0-111.0","null","null","","","","","","","","","","","","","","fixation","","","1","7","","","","","","","","","",""
"","","","","","","","","","","","canvas-keyboard-response","112","397758","0.0-112.0","null","null","","","","","","","","","","","","","","stimulus","","","1","7","","","","","","","","","",""
"","","","","","","","","","","","canvas-button-response","113","398978","0.0-113.0","1216","house","","","","","","","","","","","","","","perceptual","","","1","7","","","","","7","house","10","","1",""
"","","","","","","","","","","","canvas-button-response","114","399964","0.0-114.0","984","4","","","","","","","","","","","","","","confidence","","","1","7","","","","","","","","","","5"
"","","","","","","","","","","","html-keyboard-response","115","400967","0.0-115.0","null","null","","","","","","","","","","","","","","feedback","Sat Oct 18 2025 21:02:39 GMT-0400 (Eastern Daylight Time)","27704","1","7","","","","","","","","","",""
"","","","","","","","","","","","preload","116","400968","0.0-116.0","","","","","true","","","","","","","","","","","preload","","","1","8","false","[]","[]","[]","","","","","",""
"","","","","","","","","","","","canvas-keyboard-response","117","401271","0.0-117.0","null","null","","","","","","","","","","","","","","fixation","","","1","8","","","","","","","","","",""
"","","","","","","","","","","","canvas-keyboard-response","118","401573","0.0-118.0","null","null","","","","","","","","","","","","","","stimulus","","","1","8","","","","","","","","","",""
"","","","","","","","","","","","canvas-button-response","119","404793","0.0-119.0","3217","flower","","","","","","","","","","","","","","perceptual","","","1","8","","","","","17","car","10","","0",""
"","","","","","","","","","","","canvas-button-response","120","405700","0.0-120.0","905","3","","","","","","","","","","","","","","confidence","","","1","8","","","","","","","","","","5"
"","","","","","","","","","","","html-keyboard-response","121","406703","0.0-121.0","null","null","","","","","","","","","","","","","","feedback","Sat Oct 18 2025 21:02:45 GMT-0400 (Eastern Daylight Time)","27704","1","8","","","","","","","","","",""
"","","","","","","","","","","","preload","122","406704","0.0-122.0","","","","","true","","","","","","","","","","","preload","","","1","9","false","[]","[]","[]","","","","","",""
"","","","","","","","","","","","canvas-keyboard-response","123","407007","0.0-123.0","null","null","","","","","","","","","","","","","","fixation","","","1","9","","","","","","","","","",""
"","","","","","","","","","","","canvas-keyboard-response","124","407311","0.0-124.0","null","null","","","","","","","","","","","","","","stimulus","","","1","9","","","","","","","","","",""
"","","","","","","","","","","","canvas-button-response","125","411835","0.0-125.0","4521","bridge","","","","","","","","","","","","","","perceptual","","","1","9","","","","","44","bridge","6","","1",""
"","","","","","","","","","","","canvas-button-response","126","412686","0.0-126.0","849","3","","","","","","","","","","","","","","confidence","","","1","9","","","","","","","","","","6"
"","","","","","","","","","","","html-keyboard-response","127","413688","0.0-127.0","null","null","","","","","","","","","","","","","","feedback","Sat Oct 18 2025 21:02:52 GMT-0400 (Eastern Daylight Time)","27704","1","9","","","","","","","","","",""
"","","","","","","","","","","","preload","128","413690","0.0-128.0","","","","","true","","","","","","","","","","","preload","","","1","10","false","[]","[]","[]","","","","","",""
"","","","","","","","","","","","canvas-keyboard-response","129","413992","0.0-129.0","null","null","","","","","","","","","","","","","","fixation","","","1","10","","","","","","","","","",""
"","","","","","","","","","","","canvas-keyboard-response","130","414296","0.0-130.0","null","null","","","","","","","","","","","","","","stimulus","","","1","10","","","","","","","","","",""
"","","","","","","","","","","","canvas-button-response","131","415650","0.0-131.0","1351","car","","","","","","","","","","","","","","perceptual","","","1","10","","","","","77","cat","10","","0",""
"","","","","","","","","","","","canvas-button-response","132","417037","0.0-132.0","1384","2","","","","","","","","","","","","","","confidence","","","1","10","","","","","","","","","","6"
"","","","","","","","","","","","html-keyboard-response","133","418039","0.0-133.0","null","null","","","","","","","","","","","","","","feedback","Sat Oct 18 2025 21:02:56 GMT-0400 (Eastern Daylight Time)","27704","1","10","","","","","","","","","",""
"","","","","","","","","","","","preload","134","418040","0.0-134.0","","","","","true","","","","","","","","","","","preload","","","1","11","false","[]","[]","[]","","","","","",""
"","","","","","","","","","","","canvas-keyboard-response","135","418344","0.0-135.0","null","null","","","","","","","","","","","","","","fixation","","","1","11","","","","","","","","","",""
"","","","","","","","","","","","canvas-keyboard-response","136","418647","0.0-136.0","null","null","","","","","","","","","","","","","","stimulus","","","1","11","","","","","","","","","",""
"","","","","","","","","","","","canvas-button-response","137","419584","0.0-137.0","934","bed","","","","","","","","","","","","","","perceptual","","","1","11","","","","","34","bed","6","","1",""
"","","","","","","","","","","","canvas-button-response","138","420278","0.0-138.0","692","9","","","","","","","","","","","","","","confidence","","","1","11","","","","","","","","","","7"
"","","","","","","","","","","","html-keyboard-response","139","421281","0.0-139.0","null","null","","","","","","","","","","","","","","feedback","Sat Oct 18 2025 21:03:00 GMT-0400 (Eastern Daylight Time)","27704","1","11","","","","","","","","","",""
"","","","","","","","","","","","preload","140","421283","0.0-140.0","","","","","true","","","","","","","","","","","preload","","","1","12","false","[]","[]","[]","","","","","",""
"","","","","","","","","","","","canvas-keyboard-response","141","421585","0.0-141.0","null","null","","","","","","","","","","","","","","fixation","","","1","12","","","","","","","","","",""
"","","","","","","","","","","","canvas-keyboard-response","142","421889","0.0-142.0","null","null","","","","","","","","","","","","","","stimulus","","","1","12","","","","","","","","","",""
"","","","","","","","","","","","canvas-button-response","143","423199","0.0-143.0","1307","flower","","","","","","","","","","","","","","perceptual","","","1","12","","","","","57","flower","10","","1",""
"","","","","","","","","","","","canvas-button-response","144","424400","0.0-144.0","1198","5","","","","","","","","","","","","","","confidence","","","1","12","","","","","","","","","","8"
"","","","","","","","","","","","html-keyboard-response","145","425402","0.0-145.0","null","null","","","","","","","","","","","","","","feedback","Sat Oct 18 2025 21:03:04 GMT-0400 (Eastern Daylight Time)","27704","1","12","","","","","","","","","",""
"","","","","","","","","","","","preload","146","425403","0.0-146.0","","","","","true","","","","","","","","","","","preload","","","1","13","false","[]","[]","[]","","","","","",""
"","","","","","","","","","","","canvas-keyboard-response","147","425706","0.0-147.0","null","null","","","","","","","","","","","","","","fixation","","","1","13","","","","","","","","","",""
"","","","","","","","","","","","canvas-keyboard-response","148","426010","0.0-148.0","null","null","","","","","","","","","","","","","","stimulus","","","1","13","","","","","","","","","",""
"","","","","","","","","","","","canvas-button-response","149","427721","0.0-149.0","1708","phone","","","","","","","","","","","","","","perceptual","","","1","13","","","","","27","phone","10","","1",""
"","","","","","","","","","","","canvas-button-response","150","428734","0.0-150.0","1011","3","","","","","","","","","","","","","","confidence","","","1","13","","","","","","","","","","9"
"","","","","","","","","","","","html-keyboard-response","151","429738","0.0-151.0","null","null","","","","","","","","","","","","","","feedback","Sat Oct 18 2025 21:03:08 GMT-0400 (Eastern Daylight Time)","27704","1","13","","","","","","","","","",""
"","","","","","","","","","","","preload","152","429739","0.0-152.0","","","","","true","","","","","","","","","","","preload","","","1","14","false","[]","[]","[]","","","","","",""
"","","","","","","","","","","","canvas-keyboard-response","153","430042","0.0-153.0","null","null","","","","","","","","","","","","","","fixation","","","1","14","","","","","","","","","",""
"","","","","","","","","","","","canvas-keyboard-response","154","430345","0.0-154.0","null","null","","","","","","","","","","","","","","stimulus","","","1","14","","","","","","","","","",""
"","","","","","","","","","","","canvas-button-response","155","435590","0.0-155.0","5242","phone","","","","","","","","","","","","","","perceptual","","","1","14","","","","","24","phone","6","","1",""
"","","","","","","","","","","","canvas-button-response","156","436364","0.0-156.0","771","4","","","","","","","","","","","","","","confidence","","","1","14","","","","","","","","","","10"
"","","","","","","","","","","","html-keyboard-response","157","437366","0.0-157.0","null","null","","","","","","","","","","","","","","feedback","Sat Oct 18 2025 21:03:16 GMT-0400 (Eastern Daylight Time)","27704","1","14","","","","","","","","","",""
"","","","","","","","","","","","preload","158","437368","0.0-158.0","","","","","true","","","","","","","","","","","preload","","","1","15","false","[]","[]","[]","","","","","",""
"","","","","","","","","","","","canvas-keyboard-response","159","437671","0.0-159.0","null","null","","","","","","","","","","","","","","fixation","","","1","15","","","","","","","","","",""
"","","","","","","","","","","","canvas-keyboard-response","160","437974","0.0-160.0","null","null","","","","","","","","","","","","","","stimulus","","","1","15","","","","","","","","","",""
"","","","","","","","","","","","canvas-button-response","161","438791","0.0-161.0","813","train","","","","","","","","","","","","","","perceptual","","","1","15","","","","","64","train","6","","1",""
"","","","","","","","","","","","canvas-button-response","162","440018","0.0-162.0","1225","4","","","","","","","","","","","","","","confidence","","","1","15","","","","","","","","","","11"
"","","","","","","","","","","","html-keyboard-response","163","441022","0.0-163.0","null","null","","","","","","","","","","","","","","feedback","Sat Oct 18 2025 21:03:19 GMT-0400 (Eastern Daylight Time)","27704","1","15","","","","","","","","","",""
"","","","","","","","","","","","preload","164","441023","0.0-164.0","","","","","true","","","","","","","","","","","preload","","","1","16","false","[]","[]","[]","","","","","",""
"","","","","","","","","","","","canvas-keyboard-response","165","441326","0.0-165.0","null","null","","","","","","","","","","","","","","fixation","","","1","16","","","","","","","","","",""
"","","","","","","","","","","","canvas-keyboard-response","166","441629","0.0-166.0","null","null","","","","","","","","","","","","","","stimulus","","","1","16","","","","","","","","","",""
"","","","","","","","","","","","canvas-button-response","167","443620","0.0-167.0","1988","elephant","","","","","","","","","","","","","","perceptual","","","1","16","","","","","84","elephant","6","","1",""
"","","","","","","","","","","","canvas-button-response","168","444219","0.0-168.0","597","8","","","","","","","","","","","","","","confidence","","","1","16","","","","","","","","","","12"
"","","","","","","","","","","","html-keyboard-response","169","445222","0.0-169.0","null","null","","","","","","","","","","","","","","feedback","Sat Oct 18 2025 21:03:24 GMT-0400 (Eastern Daylight Time)","27704","1","16","","","","","","","","","",""
"","","","","","","","","","","","preload","170","445224","0.0-170.0","","","","","true","","","","","","","","","","","preload","","","1","17","false","[]","[]","[]","","","","","",""
"","","","","","","","","","","","canvas-keyboard-response","171","445527","0.0-171.0","null","null","","","","","","","","","","","","","","fixation","","","1","17","","","","","","","","","",""
"","","","","","","","","","","","canvas-keyboard-response","172","445830","0.0-172.0","null","null","","","","","","","","","","","","","","stimulus","","","1","17","","","","","","","","","",""
"","","","","","","","","","","","canvas-button-response","173","447674","0.0-173.0","1841","elephant","","","","","","","","","","","","","","perceptual","","","1","17","","","","","87","elephant","10","","1",""
"","","","","","","","","","","","canvas-button-response","174","448928","0.0-174.0","1252","2","","","","","","","","","","","","","","confidence","","","1","17","","","","","","","","","","13"
"","","","","","","","","","","","html-keyboard-response","175","449930","0.0-175.0","null","null","","","","","","","","","","","","","","feedback","Sat Oct 18 2025 21:03:28 GMT-0400 (Eastern Daylight Time)","27704","1","17","","","","","","","","","",""
"","","","","","","","","","","","preload","176","449931","0.0-176.0","","","","","true","","","","","","","","","","","preload","","","1","18","false","[]","[]","[]","","","","","",""
"","","","","","","","","","","","canvas-keyboard-response","177","450233","0.0-177.0","null","null","","","","","","","","","","","","","","fixation","","","1","18","","","","","","","","","",""
"","","","","","","","","","","","canvas-keyboard-response","178","450536","0.0-178.0","null","null","","","","","","","","","","","","","","stimulus","","","1","18","","","","","","","","","",""
"","","","","","","","","","","","canvas-button-response","179","451769","0.0-179.0","1230","car","","","","","","","","","","","","","","perceptual","","","1","18","","","","","37","bed","10","","0",""
"","","","","","","","","","","","canvas-button-response","180","451821","0.0-180.0","50","5","","","","","","","","","","","","","","confidence","","","1","18","","","","","","","","","","13"
"","","","","","","","","","","","html-keyboard-response","181","452824","0.0-181.0","null","null","","","","","","","","","","","","","","feedback","Sat Oct 18 2025 21:03:31 GMT-0400 (Eastern Daylight Time)","27704","1","18","","","","","","","","","",""
"","","","","","","","","","","","preload","182","452825","0.0-182.0","","","","","true","","","","","","","","","","","preload","","","1","19","false","[]","[]","[]","","","","","",""
"","","","","","","","","","","","canvas-keyboard-response","183","453128","0.0-183.0","null","null","","","","","","","","","","","","","","fixation","","","1","19","","","","","","","","","",""
"","","","","","","","","","","","canvas-keyboard-response","184","453430","0.0-184.0","null","null","","","","","","","","","","","","","","stimulus","","","1","19","","","","","","","","","",""
"","","","","","","","","","","","canvas-button-response","185","454595","0.0-185.0","1162","phone","","","","","","","","","","","","","","perceptual","","","1","19","","","","","47","bridge","10","","0",""
"","","","","","","","","","","","canvas-button-response","186","455517","0.0-186.0","921","3","","","","","","","","","","","","","","confidence","","","1","19","","","","","","","","","","13"
"","","","","","","","","","","","html-keyboard-response","187","456519","0.0-187.0","null","null","","","","","","","","","","","","","","feedback","Sat Oct 18 2025 21:03:35 GMT-0400 (Eastern Daylight Time)","27704","1","19","","","","","","","","","",""
"","","","","","","","","","","","html-button-response","188","465053","0.0-188.0","8531","0","","","","","","","","","","","","","","start experiment","Sat Oct 18 2025 21:03:36 GMT-0400 (Eastern Daylight Time)","27704","1","19","","","","","","","","","",""
"","","","","","","","","","","","preload","189","465054","0.0-189.0","","","","","true","","","","","","","","","","","preload","","","2","0","false","[]","[]","[]","","","","","",""
"","","","","","","","","","","","canvas-keyboard-response","190","465357","0.0-190.0","null","null","","","","","","","","","","","","","","fixation","","","2","0","","","","","","","","","",""
"","","","","","","","","","","","canvas-keyboard-response","191","465660","0.0-191.0","null","null","","","","","","","","","","","","","","stimulus","","","2","0","","","","","","","","","",""
"","","","","","","","","","","","canvas-button-response","192","466695","0.0-192.0","1033","house","","","","","","","","","","","","","","perceptual","","","2","0","","","","","199","bridge","10","0","0",""
"","","","","","","","","","","","canvas-button-response","193","467948","0.0-193.0","1251","4","","","","","","","","","","","","","","confidence","","","2","0","","","","","","","","","","0"
"","","","","","","","","","","","preload","194","467949","0.0-194.0","","","","","true","","","","","","","","","","","preload","","","2","1","false","[]","[]","[]","","","","","",""
"","","","","","","","","","","","canvas-keyboard-response","195","468252","0.0-195.0","null","null","","","","","","","","","","","","","","fixation","","","2","1","","","","","","","","","",""
"","","","","","","","","","","","canvas-keyboard-response","196","468554","0.0-196.0","null","null","","","","","","","","","","","","","","stimulus","","","2","1","","","","","","","","","",""
"","","","","","","","","","","","canvas-button-response","197","476363","0.0-197.0","7807","bridge","","","","","","","","","","","","","","perceptual","","","2","1","","","","","282","cat","6","0","0",""
"","","","","","","","","","","","canvas-button-response","198","476403","0.0-198.0","38","3","","","","","","","","","","","","","","confidence","","","2","1","","","","","","","","","","0"
"","","","","","","","","","","","preload","199","476403","0.0-199.0","","","","","true","","","","","","","","","","","preload","","","2","2","false","[]","[]","[]","","","","","",""
"","","","","","","","","","","","canvas-keyboard-response","200","476705","0.0-200.0","null","null","","","","","","","","","","","","","","fixation","","","2","2","","","","","","","","","",""
"","","","","","","","","","","","canvas-keyboard-response","201","477008","0.0-201.0","null","null","","","","","","","","","","","","","","stimulus","","","2","2","","","","","","","","","",""
"","","","","","","","","","","","canvas-button-response","202","478459","0.0-202.0","1448","bridge","","","","","","","","","","","","","","perceptual","","","2","2","","","","","165","bridge","6","0","1",""
"","","","","","","","","","","","canvas-button-response","203","479899","0.0-203.0","1438","5","","","","","","","","","","","","","","confidence","","","2","2","","","","","","","","","","1"
"","","","","","","","","","","","preload","204","479900","0.0-204.0","","","","","true","","","","","","","","","","","preload","","","2","3","false","[]","[]","[]","","","","","",""
"","","","","","","","","","","","canvas-keyboard-response","205","480203","0.0-205.0","null","null","","","","","","","","","","","","","","fixation","","","2","3","","","","","","","","","",""
"","","","","","","","","","","","canvas-keyboard-response","206","480505","0.0-206.0","null","null","","","","","","","","","","","","","","stimulus","","","2","3","","","","","","","","","",""
"","","","","","","","","","","","canvas-button-response","207","481459","0.0-207.0","951","bed","","","","","","","","","","","","","","perceptual","","","2","3","","","","","156","bed","10","0","1",""
"","","","","","","","","","","","canvas-button-response","208","482659","0.0-208.0","1198","7","","","","","","","","","","","","","","confidence","","","2","3","","","","","","","","","","2"
"","","","","","","","","","","","preload","209","482660","0.0-209.0","","","","","true","","","","","","","","","","","preload","","","2","4","false","[]","[]","[]","","","","","",""
"","","","","","","","","","","","canvas-keyboard-response","210","482963","0.0-210.0","null","null","","","","","","","","","","","","","","fixation","","","2","4","","","","","","","","","",""
"","","","","","","","","","","","canvas-keyboard-response","211","483266","0.0-211.0","null","null","","","","","","","","","","","","","","stimulus","","","2","4","","","","","","","","","",""
"","","","","","","","","","","","canvas-button-response","212","484287","0.0-212.0","1018","flower","","","","","","","","","","","","","","perceptual","","","2","4","","","","","229","flower","10","0","1",""
"","","","","","","","","","","","canvas-button-response","213","485180","0.0-213.0","890","4","","","","","","","","","","","","","","confidence","","","2","4","","","","","","","","","","3"
"","","","","","","","","","","","preload","214","485181","0.0-214.0","","","","","true","","","","","","","","","","","preload","","","2","5","false","[]","[]","[]","","","","","",""
"","","","","","","","","","","","canvas-keyboard-response","215","485484","0.0-215.0","null","null","","","","","","","","","","","","","","fixation","","","2","5","","","","","","","","","",""
"","","","","","","","","","","","canvas-keyboard-response","216","485787","0.0-216.0","null","null","","","","","","","","","","","","","","stimulus","","","2","5","","","","","","","","","",""
"","","","","","","","","","","","canvas-button-response","217","487395","0.0-217.0","1605","car","","","","","","","","","","","","","","perceptual","","","2","5","","","","","44","car","6","0","1",""
"","","","","","","","","","","","canvas-button-response","218","489636","0.0-218.0","2239","8","","","","","","","","","","","","","","confidence","","","2","5","","","","","","","","","","4"
"","","","","","","","","","","","preload","219","489637","0.0-219.0","","","","","true","","","","","","","","","","","preload","","","2","6","false","[]","[]","[]","","","","","",""
"","","","","","","","","","","","canvas-keyboard-response","220","489939","0.0-220.0","null","null","","","","","","","","","","","","","","fixation","","","2","6","","","","","","","","","",""
"","","","","","","","","","","","canvas-keyboard-response","221","490242","0.0-221.0","null","null","","","","","","","","","","","","","","stimulus","","","2","6","","","","","","","","","",""
"","","","","","","","","","","","canvas-button-response","222","491676","0.0-222.0","1432","bridge","","","","","","","","","","","","","","perceptual","","","2","6","","","","","114","phone","10","0","0",""
"","","","","","","","","","","","canvas-button-response","223","492490","0.0-223.0","811","5","","","","","","","","","","","","","","confidence","","","2","6","","","","","","","","","","4"
"","","","","","","","","","","","preload","224","492491","0.0-224.0","","","","","true","","","","","","","","","","","preload","","","2","7","false","[]","[]","[]","","","","","",""
"","","","","","","","","","","","canvas-keyboard-response","225","492793","0.0-225.0","null","null","","","","","","","","","","","","","","fixation","","","2","7","","","","","","","","","",""
"","","","","","","","","","","","canvas-keyboard-response","226","493096","0.0-226.0","null","null","","","","","","","","","","","","","","stimulus","","","2","7","","","","","","","","","",""
"","","","","","","","","","","","canvas-button-response","227","493890","0.0-227.0","791","flower","","","","","","","","","","","","","","perceptual","","","2","7","","","","","219","flower","6","0","1",""
"","","","","","","","","","","","canvas-button-response","228","494464","0.0-228.0","571","3","","","","","","","","","","","","","","confidence","","","2","7","","","","","","","","","","5"
"","","","","","","","","","","","preload","229","494465","0.0-229.0","","","","","true","","","","","","","","","","","preload","","","2","8","false","[]","[]","[]","","","","","",""
"","","","","","","","","","","","canvas-keyboard-response","230","494767","0.0-230.0","null","null","","","","","","","","","","","","","","fixation","","","2","8","","","","","","","","","",""
"","","","","","","","","","","","canvas-keyboard-response","231","495069","0.0-231.0","null","null","","","","","","","","","","","","","","stimulus","","","2","8","","","","","","","","","",""
"","","","","","","","","","","","canvas-button-response","232","496824","0.0-232.0","1751","bridge","","","","","","","","","","","","","","perceptual","","","2","8","","","","","150","bed","10","0","0",""
"","","","","","","","","","","","canvas-button-response","233","497532","0.0-233.0","705","1","","","","","","","","","","","","","","confidence","","","2","8","","","","","","","","","","5"
"","","","","","","","","","","","preload","234","497533","0.0-234.0","","","","","true","","","","","","","","","","","preload","","","2","9","false","[]","[]","[]","","","","","",""
"","","","","","","","","","","","canvas-keyboard-response","235","497836","0.0-235.0","null","null","","","","","","","","","","","","","","fixation","","","2","9","","","","","","","","","",""
"","","","","","","","","","","","canvas-keyboard-response","236","498138","0.0-236.0","null","null","","","","","","","","","","","","","","stimulus","","","2","9","","","","","","","","","",""
"","","","","","","","","","","","canvas-button-response","237","500346","0.0-237.0","2206","elephant","","","","","","","","","","","","","","perceptual","","","2","9","","","","","329","elephant","6","0","1",""
"","","","","","","","","","","","canvas-button-response","238","501533","0.0-238.0","1184","8","","","","","","","","","","","","","","confidence","","","2","9","","","","","","","","","","6"
"","","","","","","","","","","","preload","239","501534","0.0-239.0","","","","","true","","","","","","","","","","","preload","","","2","10","false","[]","[]","[]","","","","","",""
"","","","","","","","","","","","canvas-keyboard-response","240","501837","0.0-240.0","null","null","","","","","","","","","","","","","","fixation","","","2","10","","","","","","","","","",""
"","","","","","","","","","","","canvas-keyboard-response","241","502140","0.0-241.0","null","null","","","","","","","","","","","","","","stimulus","","","2","10","","","","","","","","","",""
"","","","","","","","","","","","canvas-button-response","242","503907","0.0-242.0","1764","train","","","","","","","","","","","","","","perceptual","","","2","10","","","","","254","train","6","0","1",""
"","","","","","","","","","","","canvas-button-response","243","505588","0.0-243.0","1678","5","","","","","","","","","","","","","","confidence","","","2","10","","","","","","","","","","7"
"","","","","","","","","","","","preload","244","505589","0.0-244.0","","","","","true","","","","","","","","","","","preload","","","2","11","false","[]","[]","[]","","","","","",""
"","","","","","","","","","","","canvas-keyboard-response","245","505892","0.0-245.0","null","null","","","","","","","","","","","","","","fixation","","","2","11","","","","","","","","","",""
"","","","","","","","","","","","canvas-keyboard-response","246","506195","0.0-246.0","null","null","","","","","","","","","","","","","","stimulus","","","2","11","","","","","","","","","",""
"","","","","","","","","","","","canvas-button-response","247","508869","0.0-247.0","2671","elephant","","","","","","","","","","","","","","perceptual","","","2","11","","","","","355","elephant","10","0","1",""
"","","","","","","","","","","","canvas-button-response","248","509950","0.0-248.0","1078","2","","","","","","","","","","","","","","confidence","","","2","11","","","","","","","","","","8"
"","","","","","","","","","","","preload","249","509951","0.0-249.0","","","","","true","","","","","","","","","","","preload","","","2","12","false","[]","[]","[]","","","","","",""
"","","","","","","","","","","","canvas-keyboard-response","250","510253","0.0-250.0","null","null","","","","","","","","","","","","","","fixation","","","2","12","","","","","","","","","",""
"","","","","","","","","","","","canvas-keyboard-response","251","510556","0.0-251.0","null","null","","","","","","","","","","","","","","stimulus","","","2","12","","","","","","","","","",""
"","","","","","","","","","","","canvas-button-response","252","513444","0.0-252.0","2885","flower","","","","","","","","","","","","","","perceptual","","","2","12","","","","","225","flower","10","0","1",""
"","","","","","","","","","","","canvas-button-response","253","514270","0.0-253.0","823","3","","","","","","","","","","","","","","confidence","","","2","12","","","","","","","","","","9"
"","","","","","","","","","","","preload","254","514271","0.0-254.0","","","","","true","","","","","","","","","","","preload","","","2","13","false","[]","[]","[]","","","","","",""
"","","","","","","","","","","","canvas-keyboard-response","255","514573","0.0-255.0","null","null","","","","","","","","","","","","","","fixation","","","2","13","","","","","","","","","",""
"","","","","","","","","","","","canvas-keyboard-response","256","514877","0.0-256.0","null","null","","","","","","","","","","","","","","stimulus","","","2","13","","","","","","","","","",""
"","","","","","","","","","","","canvas-button-response","257","515751","0.0-257.0","871","bed","","","","","","","","","","","","","","perceptual","","","2","13","","","","","127","bed","6","0","1",""
"","","","","","","","","","","","canvas-button-response","258","517085","0.0-258.0","1331","6","","","","","","","","","","","","","","confidence","","","2","13","","","","","","","","","","10"
"","","","","","","","","","","","preload","259","517086","0.0-259.0","","","","","true","","","","","","","","","","","preload","","","2","14","false","[]","[]","[]","","","","","",""
"","","","","","","","","","","","canvas-keyboard-response","260","517388","0.0-260.0","null","null","","","","","","","","","","","","","","fixation","","","2","14","","","","","","","","","",""
"","","","","","","","","","","","canvas-keyboard-response","261","517690","0.0-261.0","null","null","","","","","","","","","","","","","","stimulus","","","2","14","","","","","","","","","",""
"","","","","","","","","","","","canvas-button-response","262","519446","0.0-262.0","1753","cat","","","","","","","","","","","","","","perceptual","","","2","14","","","","","119","phone","10","0","0",""
"","","","","","","","","","","","canvas-button-response","263","520180","0.0-263.0","731","4","","","","","","","","","","","","","","confidence","","","2","14","","","","","","","","","","10"
"","","","","","","","","","","","preload","264","520181","0.0-264.0","","","","","true","","","","","","","","","","","preload","","","2","15","false","[]","[]","[]","","","","","",""
"","","","","","","","","","","","canvas-keyboard-response","265","520483","0.0-265.0","null","null","","","","","","","","","","","","","","fixation","","","2","15","","","","","","","","","",""
"","","","","","","","","","","","canvas-keyboard-response","266","520786","0.0-266.0","null","null","","","","","","","","","","","","","","stimulus","","","2","15","","","","","","","","","",""
"","","","","","","","","","","","canvas-button-response","267","521741","0.0-267.0","952","bridge","","","","","","","","","","","","","","perceptual","","","2","15","","","","","167","bridge","6","0","1",""
"","","","","","","","","","","","canvas-button-response","268","522407","0.0-268.0","663","2","","","","","","","","","","","","","","confidence","","","2","15","","","","","","","","","","11"
"","","","","","","","","","","","preload","269","522408","0.0-269.0","","","","","true","","","","","","","","","","","preload","","","2","16","false","[]","[]","[]","","","","","",""
"","","","","","","","","","","","canvas-keyboard-response","270","522711","0.0-270.0","null","null","","","","","","","","","","","","","","fixation","","","2","16","","","","","","","","","",""
"","","","","","","","","","","","canvas-keyboard-response","271","523014","0.0-271.0","null","null","","","","","","","","","","","","","","stimulus","","","2","16","","","","","","","","","",""
"","","","","","","","","","","","canvas-button-response","272","525755","0.0-272.0","2738","house","","","","","","","","","","","","","","perceptual","","","2","16","","","","","7","house","6","0","1",""
"","","","","","","","","","","","canvas-button-response","273","526556","0.0-273.0","798","10","","","","","","","","","","","","","","confidence","","","2","16","","","","","","","","","","12"
"","","","","","","","","","","","preload","274","526557","0.0-274.0","","","","","true","","","","","","","","","","","preload","","","2","17","false","[]","[]","[]","","","","","",""
"","","","","","","","","","","","canvas-keyboard-response","275","526859","0.0-275.0","null","null","","","","","","","","","","","","","","fixation","","","2","17","","","","","","","","","",""
"","","","","","","","","","","","canvas-keyboard-response","276","527162","0.0-276.0","null","null","","","","","","","","","","","","","","stimulus","","","2","17","","","","","","","","","",""
"","","","","","","","","","","","canvas-button-response","277","528502","0.0-277.0","1337","car","","","","","","","","","","","","","","perceptual","","","2","17","","","","","55","car","6","0","1",""
"","","","","","","","","","","","canvas-button-response","278","529476","0.0-278.0","971","7","","","","","","","","","","","","","","confidence","","","2","17","","","","","","","","","","13"
"","","","","","","","","","","","preload","279","529478","0.0-279.0","","","","","true","","","","","","","","","","","preload","","","2","18","false","[]","[]","[]","","","","","",""
"","","","","","","","","","","","canvas-keyboard-response","280","529780","0.0-280.0","null","null","","","","","","","","","","","","","","fixation","","","2","18","","","","","","","","","",""
"","","","","","","","","","","","canvas-keyboard-response","281","530083","0.0-281.0","null","null","","","","","","","","","","","","","","stimulus","","","2","18","","","","","","","","","",""
"","","","","","","","","","","","canvas-button-response","282","531823","0.0-282.0","1737","bridge","","","","","","","","","","","","","","perceptual","","","2","18","","","","","266","train","10","0","0",""
"","","","","","","","","","","","canvas-button-response","283","533037","0.0-283.0","1212","3","","","","","","","","","","","","","","confidence","","","2","18","","","","","","","","","","13"
"","","","","","","","","","","","preload","284","533039","0.0-284.0","","","","","true","","","","","","","","","","","preload","","","2","19","false","[]","[]","[]","","","","","",""
"","","","","","","","","","","","canvas-keyboard-response","285","533341","0.0-285.0","null","null","","","","","","","","","","","","","","fixation","","","2","19","","","","","","","","","",""
"","","","","","","","","","","","canvas-keyboard-response","286","533644","0.0-286.0","null","null","","","","","","","","","","","","","","stimulus","","","2","19","","","","","","","","","",""
"","","","","","","","","","","","canvas-button-response","287","535478","0.0-287.0","1831","train","","","","","","","","","","","","","","perceptual","","","2","19","","","","","191","bridge","10","0","0",""
"","","","","","","","","","","","canvas-button-response","288","536426","0.0-288.0","945","3","","","","","","","","","","","","","","confidence","","","2","19","","","","","","","","","","13"
"","","","","","","","","","","","preload","289","536427","0.0-289.0","","","","","true","","","","","","","","","","","preload","","","2","20","false","[]","[]","[]","","","","","",""
"","","","","","","","","","","","canvas-keyboard-response","290","536728","0.0-290.0","null","null","","","","","","","","","","","","","","fixation","","","2","20","","","","","","","","","",""
"","","","","","","","","","","","canvas-keyboard-response","291","537031","0.0-291.0","null","null","","","","","","","","","","","","","","stimulus","","","2","20","","","","","","","","","",""
"","","","","","","","","","","","canvas-button-response","292","538000","0.0-292.0","966","train","","","","","","","","","","","","","","perceptual","","","2","20","","","","","248","train","6","0","1",""
"","","","","","","","","","","","canvas-button-response","293","539413","0.0-293.0","1411","6","","","","","","","","","","","","","","confidence","","","2","20","","","","","","","","","","14"
"","","","","","","","","","","","preload","294","539415","0.0-294.0","","","","","true","","","","","","","","","","","preload","","","2","21","false","[]","[]","[]","","","","","",""
"","","","","","","","","","","","canvas-keyboard-response","295","539716","0.0-295.0","null","null","","","","","","","","","","","","","","fixation","","","2","21","","","","","","","","","",""
"","","","","","","","","","","","canvas-keyboard-response","296","540019","0.0-296.0","null","null","","","","","","","","","","","","","","stimulus","","","2","21","","","","","","","","","",""
"","","","","","","","","","","","canvas-button-response","297","541320","0.0-297.0","1297","cat","","","","","","","","","","","","","","perceptual","","","2","21","","","","","280","cat","6","0","1",""
"","","","","","","","","","","","canvas-button-response","298","542201","0.0-298.0","879","6","","","","","","","","","","","","","","confidence","","","2","21","","","","","","","","","","15"
"","","","","","","","","","","","preload","299","542202","0.0-299.0","","","","","true","","","","","","","","","","","preload","","","2","22","false","[]","[]","[]","","","","","",""
"","","","","","","","","","","","canvas-keyboard-response","300","542505","0.0-300.0","null","null","","","","","","","","","","","","","","fixation","","","2","22","","","","","","","","","",""
"","","","","","","","","","","","canvas-keyboard-response","301","542808","0.0-301.0","null","null","","","","","","","","","","","","","","stimulus","","","2","22","","","","","","","","","",""
"","","","","","","","","","","","canvas-button-response","302","544721","0.0-302.0","1910","car","","","","","","","","","","","","","","perceptual","","","2","22","","","","","94","phone","6","0","0",""
"","","","","","","","","","","","canvas-button-response","303","547629","0.0-303.0","2906","3","","","","","","","","","","","","","","confidence","","","2","22","","","","","","","","","","15"
"","","","","","","","","","","","preload","304","547630","0.0-304.0","","","","","true","","","","","","","","","","","preload","","","2","23","false","[]","[]","[]","","","","","",""
"","","","","","","","","","","","canvas-keyboard-response","305","547932","0.0-305.0","null","null","","","","","","","","","","","","","","fixation","","","2","23","","","","","","","","","",""
"","","","","","","","","","","","canvas-keyboard-response","306","548236","0.0-306.0","null","null","","","","","","","","","","","","","","stimulus","","","2","23","","","","","","","","","",""
"","","","","","","","","","","","canvas-button-response","307","549070","0.0-307.0","831","flower","","","","","","","","","","","","","","perceptual","","","2","23","","","","","201","flower","6","0","1",""
"","","","","","","","","","","","canvas-button-response","308","549817","0.0-308.0","744","8","","","","","","","","","","","","","","confidence","","","2","23","","","","","","","","","","16"
"","","","","","","","","","","","preload","309","549818","0.0-309.0","","","","","true","","","","","","","","","","","preload","","","2","24","false","[]","[]","[]","","","","","",""
"","","","","","","","","","","","canvas-keyboard-response","310","550120","0.0-310.0","null","null","","","","","","","","","","","","","","fixation","","","2","24","","","","","","","","","",""
"","","","","","","","","","","","canvas-keyboard-response","311","550422","0.0-311.0","null","null","","","","","","","","","","","","","","stimulus","","","2","24","","","","","","","","","",""
"","","","","","","","","","","","canvas-button-response","312","551710","0.0-312.0","1285","elephant","","","","","","","","","","","","","","perceptual","","","2","24","","","","","288","cat","6","0","0",""
"","","","","","","","","","","","canvas-button-response","313","552925","0.0-313.0","1212","8","","","","","","","","","","","","","","confidence","","","2","24","","","","","","","","","","16"
"","","","","","","","","","","","preload","314","552926","0.0-314.0","","","","","true","","","","","","","","","","","preload","","","2","25","false","[]","[]","[]","","","","","",""
"","","","","","","","","","","","canvas-keyboard-response","315","553228","0.0-315.0","null","null","","","","","","","","","","","","","","fixation","","","2","25","","","","","","","","","",""
"","","","","","","","","","","","canvas-keyboard-response","316","553530","0.0-316.0","null","null","","","","","","","","","","","","","","stimulus","","","2","25","","","","","","","","","",""
"","","","","","","","","","","","canvas-button-response","317","554791","0.0-317.0","1258","knife","","","","","","","","","","","","","","perceptual","","","2","25","","","","","366","knife","6","0","1",""
"","","","","","","","","","","","canvas-button-response","318","556231","0.0-318.0","1438","7","","","","","","","","","","","","","","confidence","","","2","25","","","","","","","","","","17"
"","","","","","","","","","","","preload","319","556232","0.0-319.0","","","","","true","","","","","","","","","","","preload","","","2","26","false","[]","[]","[]","","","","","",""
"","","","","","","","","","","","canvas-keyboard-response","320","556534","0.0-320.0","null","null","","","","","","","","","","","","","","fixation","","","2","26","","","","","","","","","",""
"","","","","","","","","","","","canvas-keyboard-response","321","556837","0.0-321.0","null","null","","","","","","","","","","","","","","stimulus","","","2","26","","","","","","","","","",""
"","","","","","","","","","","","canvas-button-response","322","557939","0.0-322.0","1099","flower","","","","","","","","","","","","","","perceptual","","","2","26","","","","","0","house","6","0","0",""
"","","","","","","","","","","","canvas-button-response","323","558713","0.0-323.0","771","7","","","","","","","","","","","","","","confidence","","","2","26","","","","","","","","","","17"
"","","","","","","","","","","","preload","324","558714","0.0-324.0","","","","","true","","","","","","","","","","","preload","","","2","27","false","[]","[]","[]","","","","","",""
"","","","","","","","","","","","canvas-keyboard-response","325","559016","0.0-325.0","null","null","","","","","","","","","","","","","","fixation","","","2","27","","","","","","","","","",""
"","","","","","","","","","","","canvas-keyboard-response","326","559318","0.0-326.0","null","null","","","","","","","","","","","","","","stimulus","","","2","27","","","","","","","","","",""
"","","","","","","","","","","","canvas-button-response","327","560674","0.0-327.0","1353","phone","","","","","","","","","","","","","","perceptual","","","2","27","","","","","118","phone","10","0","1",""
"","","","","","","","","","","","canvas-button-response","328","561581","0.0-328.0","904","6","","","","","","","","","","","","","","confidence","","","2","27","","","","","","","","","","18"
"","","","","","","","","","","","preload","329","561582","0.0-329.0","","","","","true","","","","","","","","","","","preload","","","2","28","false","[]","[]","[]","","","","","",""
"","","","","","","","","","","","canvas-keyboard-response","330","561885","0.0-330.0","null","null","","","","","","","","","","","","","","fixation","","","2","28","","","","","","","","","",""
"","","","","","","","","","","","canvas-keyboard-response","331","562189","0.0-331.0","null","null","","","","","","","","","","","","","","stimulus","","","2","28","","","","","","","","","",""
"","","","","","","","","","","","canvas-button-response","332","567622","0.0-332.0","5431","flower","","","","","","","","","","","","","","perceptual","","","2","28","","","","","214","flower","6","0","1",""
"","","","","","","","","","","","canvas-button-response","333","568809","0.0-333.0","1185","4","","","","","","","","","","","","","","confidence","","","2","28","","","","","","","","","","19"
"","","","","","","","","","","","preload","334","568810","0.0-334.0","","","","","true","","","","","","","","","","","preload","","","2","29","false","[]","[]","[]","","","","","",""
"","","","","","","","","","","","canvas-keyboard-response","335","569113","0.0-335.0","null","null","","","","","","","","","","","","","","fixation","","","2","29","","","","","","","","","",""
"","","","","","","","","","","","canvas-keyboard-response","336","569415","0.0-336.0","null","null","","","","","","","","","","","","","","stimulus","","","2","29","","","","","","","","","",""
"","","","","","","","","","","","canvas-button-response","337","570624","0.0-337.0","1206","bridge","","","","","","","","","","","","","","perceptual","","","2","29","","","","","172","bridge","6","0","1",""
"","","","","","","","","","","","canvas-button-response","338","572211","0.0-338.0","1585","4","","","","","","","","","","","","","","confidence","","","2","29","","","","","","","","","","20"
"","","","","","","","","","","","preload","339","572212","0.0-339.0","","","","","true","","","","","","","","","","","preload","","","2","30","false","[]","[]","[]","","","","","",""
"","","","","","","","","","","","canvas-keyboard-response","340","572515","0.0-340.0","null","null","","","","","","","","","","","","","","fixation","","","2","30","","","","","","","","","",""
"","","","","","","","","","","","canvas-keyboard-response","341","572819","0.0-341.0","null","null","","","","","","","","","","","","","","stimulus","","","2","30","","","","","","","","","",""
"","","","","","","","","","","","canvas-button-response","342","573625","0.0-342.0","802","train","","","","","","","","","","","","","","perceptual","","","2","30","","","","","251","train","6","0","1",""
"","","","","","","","","","","","canvas-button-response","343","574279","0.0-343.0","651","6","","","","","","","","","","","","","","confidence","","","2","30","","","","","","","","","","21"
"","","","","","","","","","","","preload","344","574280","0.0-344.0","","","","","true","","","","","","","","","","","preload","","","2","31","false","[]","[]","[]","","","","","",""
"","","","","","","","","","","","canvas-keyboard-response","345","574582","0.0-345.0","null","null","","","","","","","","","","","","","","fixation","","","2","31","","","","","","","","","",""
"","","","","","","","","","","","canvas-keyboard-response","346","574883","0.0-346.0","null","null","","","","","","","","","","","","","","stimulus","","","2","31","","","","","","","","","",""
"","","","","","","","","","","","canvas-button-response","347","575680","0.0-347.0","795","train","","","","","","","","","","","","","","perceptual","","","2","31","","","","","255","train","6","0","1",""
"","","","","","","","","","","","canvas-button-response","348","576306","0.0-348.0","623","6","","","","","","","","","","","","","","confidence","","","2","31","","","","","","","","","","22"
"","","","","","","","","","","","preload","349","576307","0.0-349.0","","","","","true","","","","","","","","","","","preload","","","2","32","false","[]","[]","[]","","","","","",""
"","","","","","","","","","","","canvas-keyboard-response","350","576610","0.0-350.0","null","null","","","","","","","","","","","","","","fixation","","","2","32","","","","","","","","","",""
"","","","","","","","","","","","canvas-keyboard-response","351","576913","0.0-351.0","null","null","","","","","","","","","","","","","","stimulus","","","2","32","","","","","","","","","",""
"","","","","","","","","","","","canvas-button-response","352","577653","0.0-352.0","737","cat","","","","","","","","","","","","","","perceptual","","","2","32","","","","","285","cat","6","0","1",""
"","","","","","","","","","","","canvas-button-response","353","578480","0.0-353.0","824","10","","","","","","","","","","","","","","confidence","","","2","32","","","","","","","","","","23"
"","","","","","","","","","","","preload","354","578482","0.0-354.0","","","","","true","","","","","","","","","","","preload","","","2","33","false","[]","[]","[]","","","","","",""
"","","","","","","","","","","","canvas-keyboard-response","355","578784","0.0-355.0","null","null","","","","","","","","","","","","","","fixation","","","2","33","","","","","","","","","",""
"","","","","","","","","","","","canvas-keyboard-response","356","579087","0.0-356.0","null","null","","","","","","","","","","","","","","stimulus","","","2","33","","","","","","","","","",""
"","","","","","","","","","","","canvas-button-response","357","580134","0.0-357.0","1044","phone","","","","","","","","","","","","","","perceptual","","","2","33","","","","","91","phone","6","0","1",""
"","","","","","","","","","","","canvas-button-response","358","580961","0.0-358.0","824","4","","","","","","","","","","","","","","confidence","","","2","33","","","","","","","","","","24"
"","","","","","","","","","","","preload","359","580962","0.0-359.0","","","","","true","","","","","","","","","","","preload","","","2","34","false","[]","[]","[]","","","","","",""
"","","","","","","","","","","","canvas-keyboard-response","360","581265","0.0-360.0","null","null","","","","","","","","","","","","","","fixation","","","2","34","","","","","","","","","",""
"","","","","","","","","","","","canvas-keyboard-response","361","581567","0.0-361.0","null","null","","","","","","","","","","","","","","stimulus","","","2","34","","","","","","","","","",""
"","","","","","","","","","","","canvas-button-response","362","584096","0.0-362.0","2526","phone","","","","","","","","","","","","","","perceptual","","","2","34","","","","","397","knife","10","0","0",""
"","","","","","","","","","","","canvas-button-response","363","584896","0.0-363.0","798","4","","","","","","","","","","","","","","confidence","","","2","34","","","","","","","","","","24"
"","","","","","","","","","","","preload","364","584897","0.0-364.0","","","","","true","","","","","","","","","","","preload","","","2","35","false","[]","[]","[]","","","","","",""
"","","","","","","","","","","","canvas-keyboard-response","365","585199","0.0-365.0","null","null","","","","","","","","","","","","","","fixation","","","2","35","","","","","","","","","",""
"","","","","","","","","","","","canvas-keyboard-response","366","585502","0.0-366.0","null","null","","","","","","","","","","","","","","stimulus","","","2","35","","","","","","","","","",""
"","","","","","","","","","","","canvas-button-response","367","586603","0.0-367.0","1098","house","","","","","","","","","","","","","","perceptual","","","2","35","","","","","36","house","10","0","1",""
"","","","","","","","","","","","canvas-button-response","368","587309","0.0-368.0","704","7","","","","","","","","","","","","","","confidence","","","2","35","","","","","","","","","","25"
"","","","","","","","","","","","preload","369","587310","0.0-369.0","","","","","true","","","","","","","","","","","preload","","","2","36","false","[]","[]","[]","","","","","",""
"","","","","","","","","","","","canvas-keyboard-response","370","587613","0.0-370.0","null","null","","","","","","","","","","","","","","fixation","","","2","36","","","","","","","","","",""
"","","","","","","","","","","","canvas-keyboard-response","371","587915","0.0-371.0","null","null","","","","","","","","","","","","","","stimulus","","","2","36","","","","","","","","","",""
"","","","","","","","","","","","canvas-button-response","372","589564","0.0-372.0","1646","cat","","","","","","","","","","","","","","perceptual","","","2","36","","","","","295","cat","6","0","1",""
"","","","","","","","","","","","canvas-button-response","373","590644","0.0-373.0","1077","4","","","","","","","","","","","","","","confidence","","","2","36","","","","","","","","","","26"
"","","","","","","","","","","","preload","374","590645","0.0-374.0","","","","","true","","","","","","","","","","","preload","","","2","37","false","[]","[]","[]","","","","","",""
"","","","","","","","","","","","canvas-keyboard-response","375","590948","0.0-375.0","null","null","","","","","","","","","","","","","","fixation","","","2","37","","","","","","","","","",""
"","","","","","","","","","","","canvas-keyboard-response","376","591251","0.0-376.0","null","null","","","","","","","","","","","","","","stimulus","","","2","37","","","","","","","","","",""
"","","","","","","","","","","","canvas-button-response","377","593778","0.0-377.0","2524","train","","","","","","","","","","","","","","perceptual","","","2","37","","","","","261","train","10","0","1",""
"","","","","","","","","","","","canvas-button-response","378","594539","0.0-378.0","758","6","","","","","","","","","","","","","","confidence","","","2","37","","","","","","","","","","27"
"","","","","","","","","","","","preload","379","594540","0.0-379.0","","","","","true","","","","","","","","","","","preload","","","2","38","false","[]","[]","[]","","","","","",""
"","","","","","","","","","","","canvas-keyboard-response","380","594842","0.0-380.0","null","null","","","","","","","","","","","","","","fixation","","","2","38","","","","","","","","","",""
"","","","","","","","","","","","canvas-keyboard-response","381","595145","0.0-381.0","null","null","","","","","","","","","","","","","","stimulus","","","2","38","","","","","","","","","",""
"","","","","","","","","","","","canvas-button-response","382","596313","0.0-382.0","1165","cat","","","","","","","","","","","","","","perceptual","","","2","38","","","","","308","cat","10","0","1",""
"","","","","","","","","","","","canvas-button-response","383","597006","0.0-383.0","690","7","","","","","","","","","","","","","","confidence","","","2","38","","","","","","","","","","28"
"","","","","","","","","","","","preload","384","597007","0.0-384.0","","","","","true","","","","","","","","","","","preload","","","2","39","false","[]","[]","[]","","","","","",""
"","","","","","","","","","","","canvas-keyboard-response","385","597309","0.0-385.0","null","null","","","","","","","","","","","","","","fixation","","","2","39","","","","","","","","","",""
"","","","","","","","","","","","canvas-keyboard-response","386","597612","0.0-386.0","null","null","","","","","","","","","","","","","","stimulus","","","2","39","","","","","","","","","",""
"","","","","","","","","","","","canvas-button-response","387","598647","0.0-387.0","1032","house","","","","","","","","","","","","","","perceptual","","","2","39","","","","","18","house","6","0","1",""
"","","","","","","","","","","","canvas-button-response","388","599500","0.0-388.0","850","7","","","","","","","","","","","","","","confidence","","","2","39","","","","","","","","","","29"
"","","","","","","","","","","","preload","389","599501","0.0-389.0","","","","","true","","","","","","","","","","","preload","","","2","40","false","[]","[]","[]","","","","","",""
"","","","","","","","","","","","canvas-keyboard-response","390","599804","0.0-390.0","null","null","","","","","","","","","","","","","","fixation","","","2","40","","","","","","","","","",""
"","","","","","","","","","","","canvas-keyboard-response","391","600108","0.0-391.0","null","null","","","","","","","","","","","","","","stimulus","","","2","40","","","","","","","","","",""
"","","","","","","","","","","","canvas-button-response","392","601181","0.0-392.0","1071","car","","","","","","","","","","","","","","perceptual","","","2","40","","","","","45","car","6","0","1",""
"","","","","","","","","","","","canvas-button-response","393","601809","0.0-393.0","624","10","","","","","","","","","","","","","","confidence","","","2","40","","","","","","","","","","30"
"","","","","","","","","","","","preload","394","601810","0.0-394.0","","","","","true","","","","","","","","","","","preload","","","2","41","false","[]","[]","[]","","","","","",""
"","","","","","","","","","","","canvas-keyboard-response","395","602111","0.0-395.0","null","null","","","","","","","","","","","","","","fixation","","","2","41","","","","","","","","","",""
"","","","","","","","","","","","canvas-keyboard-response","396","602414","0.0-396.0","null","null","","","","","","","","","","","","","","stimulus","","","2","41","","","","","","","","","",""
"","","","","","","","","","","","canvas-button-response","397","603355","0.0-397.0","939","bed","","","","","","","","","","","","","","perceptual","","","2","41","","","","","155","bed","10","0","1",""
"","","","","","","","","","","","canvas-button-response","398","603942","0.0-398.0","584","10","","","","","","","","","","","","","","confidence","","","2","41","","","","","","","","","","31"
"","","","","","","","","","","","preload","399","603943","0.0-399.0","","","","","true","","","","","","","","","","","preload","","","2","42","false","[]","[]","[]","","","","","",""
"","","","","","","","","","","","canvas-keyboard-response","400","604246","0.0-400.0","null","null","","","","","","","","","","","","","","fixation","","","2","42","","","","","","","","","",""
"","","","","","","","","","","","canvas-keyboard-response","401","604548","0.0-401.0","null","null","","","","","","","","","","","","","","stimulus","","","2","42","","","","","","","","","",""
"","","","","","","","","","","","canvas-button-response","402","609531","0.0-402.0","4981","car","","","","","","","","","","","","","","perceptual","","","2","42","","","","","385","knife","10","0","0",""
"","","","","","","","","","","","canvas-button-response","403","610478","0.0-403.0","944","3","","","","","","","","","","","","","","confidence","","","2","42","","","","","","","","","","31"
"","","","","","","","","","","","preload","404","610479","0.0-404.0","","","","","true","","","","","","","","","","","preload","","","2","43","false","[]","[]","[]","","","","","",""
"","","","","","","","","","","","canvas-keyboard-response","405","610782","0.0-405.0","null","null","","","","","","","","","","","","","","fixation","","","2","43","","","","","","","","","",""
"","","","","","","","","","","","canvas-keyboard-response","406","611085","0.0-406.0","null","null","","","","","","","","","","","","","","stimulus","","","2","43","","","","","","","","","",""
"","","","","","","","","","","","canvas-button-response","407","611866","0.0-407.0","778","flower","","","","","","","","","","","","","","perceptual","","","2","43","","","","","220","flower","10","0","1",""
"","","","","","","","","","","","canvas-button-response","408","612639","0.0-408.0","770","8","","","","","","","","","","","","","","confidence","","","2","43","","","","","","","","","","32"
"","","","","","","","","","","","preload","409","612640","0.0-409.0","","","","","true","","","","","","","","","","","preload","","","2","44","false","[]","[]","[]","","","","","",""
"","","","","","","","","","","","canvas-keyboard-response","410","612942","0.0-410.0","null","null","","","","","","","","","","","","","","fixation","","","2","44","","","","","","","","","",""
"","","","","","","","","","","","canvas-keyboard-response","411","613246","0.0-411.0","null","null","","","","","","","","","","","","","","stimulus","","","2","44","","","","","","","","","",""
"","","","","","","","","","","","canvas-button-response","412","614039","0.0-412.0","790","knife","","","","","","","","","","","","","","perceptual","","","2","44","","","","","379","knife","6","0","1",""
"","","","","","","","","","","","canvas-button-response","413","614680","0.0-413.0","638","9","","","","","","","","","","","","","","confidence","","","2","44","","","","","","","","","","33"
"","","","","","","","","","","","preload","414","614681","0.0-414.0","","","","","true","","","","","","","","","","","preload","","","2","45","false","[]","[]","[]","","","","","",""
"","","","","","","","","","","","canvas-keyboard-response","415","614983","0.0-415.0","null","null","","","","","","","","","","","","","","fixation","","","2","45","","","","","","","","","",""
"","","","","","","","","","","","canvas-keyboard-response","416","615286","0.0-416.0","null","null","","","","","","","","","","","","","","stimulus","","","2","45","","","","","","","","","",""
"","","","","","","","","","","","canvas-button-response","417","616067","0.0-417.0","777","train","","","","","","","","","","","","","","perceptual","","","2","45","","","","","241","train","6","0","1",""
"","","","","","","","","","","","canvas-button-response","418","617012","0.0-418.0","943","9","","","","","","","","","","","","","","confidence","","","2","45","","","","","","","","","","34"
"","","","","","","","","","","","preload","419","617013","0.0-419.0","","","","","true","","","","","","","","","","","preload","","","2","46","false","[]","[]","[]","","","","","",""
"","","","","","","","","","","","canvas-keyboard-response","420","617315","0.0-420.0","null","null","","","","","","","","","","","","","","fixation","","","2","46","","","","","","","","","",""
"","","","","","","","","","","","canvas-keyboard-response","421","617618","0.0-421.0","null","null","","","","","","","","","","","","","","stimulus","","","2","46","","","","","","","","","",""
"","","","","","","","","","","","canvas-button-response","422","618374","0.0-422.0","752","train","","","","","","","","","","","","","","perceptual","","","2","46","","","","","250","train","6","0","1",""
"","","","","","","","","","","","canvas-button-response","423","618894","0.0-423.0","517","10","","","","","","","","","","","","","","confidence","","","2","46","","","","","","","","","","35"
"","","","","","","","","","","","preload","424","618895","0.0-424.0","","","","","true","","","","","","","","","","","preload","","","2","47","false","[]","[]","[]","","","","","",""
"","","","","","","","","","","","canvas-keyboard-response","425","619198","0.0-425.0","null","null","","","","","","","","","","","","","","fixation","","","2","47","","","","","","","","","",""
"","","","","","","","","","","","canvas-keyboard-response","426","619502","0.0-426.0","null","null","","","","","","","","","","","","","","stimulus","","","2","47","","","","","","","","","",""
"","","","","","","","","","","","canvas-button-response","427","620961","0.0-427.0","1457","phone","","","","","","","","","","","","","","perceptual","","","2","47","","","","","86","phone","6","0","1",""
"","","","","","","","","","","","canvas-button-response","428","621722","0.0-428.0","758","8","","","","","","","","","","","","","","confidence","","","2","47","","","","","","","","","","36"
"","","","","","","","","","","","preload","429","621724","0.0-429.0","","","","","true","","","","","","","","","","","preload","","","2","48","false","[]","[]","[]","","","","","",""
"","","","","","","","","","","","canvas-keyboard-response","430","622026","0.0-430.0","null","null","","","","","","","","","","","","","","fixation","","","2","48","","","","","","","","","",""
"","","","","","","","","","","","canvas-keyboard-response","431","622329","0.0-431.0","null","null","","","","","","","","","","","","","","stimulus","","","2","48","","","","","","","","","",""
"","","","","","","","","","","","canvas-button-response","432","623243","0.0-432.0","910","house","","","","","","","","","","","","","","perceptual","","","2","48","","","","","4","house","6","0","1",""
"","","","","","","","","","","","canvas-button-response","433","624137","0.0-433.0","891","9","","","","","","","","","","","","","","confidence","","","2","48","","","","","","","","","","37"
"","","","","","","","","","","","preload","434","624138","0.0-434.0","","","","","true","","","","","","","","","","","preload","","","2","49","false","[]","[]","[]","","","","","",""
"","","","","","","","","","","","canvas-keyboard-response","435","624440","0.0-435.0","null","null","","","","","","","","","","","","","","fixation","","","2","49","","","","","","","","","",""
"","","","","","","","","","","","canvas-keyboard-response","436","624744","0.0-436.0","null","null","","","","","","","","","","","","","","stimulus","","","2","49","","","","","","","","","",""
"","","","","","","","","","","","canvas-button-response","437","627057","0.0-437.0","2310","bridge","","","","","","","","","","","","","","perceptual","","","2","49","","","","","27","house","10","0","0",""
"","","","","","","","","","","","canvas-button-response","438","627924","0.0-438.0","865","2","","","","","","","","","","","","","","confidence","","","2","49","","","","","","","","","","37"
"","","","","","","","","","","","html-button-response","439","635004","0.0-439.0","7078","0","","","","","","","","","","","","","","<p style=""font-size:20px;color:#000000"">You got 37 out of 50 trials correct in this block.<br><br>You have completed 6% of the experiment.<br><br>Take a short break.<br><br>When you are ready, click Continue to proceed.","","","2","49","","","","","","","","","",""
"","","","","","","","","","","","html-keyboard-response","440","636007","0.0-440.0","null","null","","","","","","","","","","","","","","<p style=""font-size:32px;color:#000000""><br><br> RUN: &nbsp 1/4 <br><br> BLOCK: 2/4 ","","","2","49","","","","","","","","","",""
"","","","","","","","","","","","preload","441","636008","0.0-441.0","","","","","true","","","","","","","","","","","preload","","","2","50","false","[]","[]","[]","","","","","",""
"","","","","","","","","","","","canvas-keyboard-response","442","636310","0.0-442.0","null","null","","","","","","","","","","","","","","fixation","","","2","50","","","","","","","","","",""
"","","","","","","","","","","","canvas-keyboard-response","443","636614","0.0-443.0","null","null","","","","","","","","","","","","","","stimulus","","","2","50","","","","","","","","","",""
"","","","","","","","","","","","canvas-button-response","444","637394","0.0-444.0","777","flower","","","","","","","","","","","","","","perceptual","","","2","50","","","","","238","flower","10","0","1",""
"","","","","","","","","","","","canvas-button-response","445","639061","0.0-445.0","1664","7","","","","","","","","","","","","","","confidence","","","2","50","","","","","","","","","","1"
"","","","","","","","","","","","preload","446","639062","0.0-446.0","","","","","true","","","","","","","","","","","preload","","","2","51","false","[]","[]","[]","","","","","",""
"","","","","","","","","","","","canvas-keyboard-response","447","639364","0.0-447.0","null","null","","","","","","","","","","","","","","fixation","","","2","51","","","","","","","","","",""
"","","","","","","","","","","","canvas-keyboard-response","448","639666","0.0-448.0","null","null","","","","","","","","","","","","","","stimulus","","","2","51","","","","","","","","","",""
"","","","","","","","","","","","canvas-button-response","449","640633","0.0-449.0","966","bed","","","","","","","","","","","","","","perceptual","","","2","51","","","","","159","bed","10","0","1",""
"","","","","","","","","","","","canvas-button-response","450","641622","0.0-450.0","987","4","","","","","","","","","","","","","","confidence","","","2","51","","","","","","","","","","2"
"","","","","","","","","","","","preload","451","641623","0.0-451.0","","","","","true","","","","","","","","","","","preload","","","2","52","false","[]","[]","[]","","","","","",""
"","","","","","","","","","","","canvas-keyboard-response","452","641925","0.0-452.0","null","null","","","","","","","","","","","","","","fixation","","","2","52","","","","","","","","","",""
"","","","","","","","","","","","canvas-keyboard-response","453","642228","0.0-453.0","null","null","","","","","","","","","","","","","","stimulus","","","2","52","","","","","","","","","",""
"","","","","","","","","","","","canvas-button-response","454","643103","0.0-454.0","871","house","","","","","","","","","","","","","","perceptual","","","2","52","","","","","19","house","6","0","1",""
"","","","","","","","","","","","canvas-button-response","455","643822","0.0-455.0","717","4","","","","","","","","","","","","","","confidence","","","2","52","","","","","","","","","","3"
"","","","","","","","","","","","preload","456","643823","0.0-456.0","","","","","true","","","","","","","","","","","preload","","","2","53","false","[]","[]","[]","","","","","",""
"","","","","","","","","","","","canvas-keyboard-response","457","644126","0.0-457.0","null","null","","","","","","","","","","","","","","fixation","","","2","53","","","","","","","","","",""
"","","","","","","","","","","","canvas-keyboard-response","458","644429","0.0-458.0","null","null","","","","","","","","","","","","","","stimulus","","","2","53","","","","","","","","","",""
"","","","","","","","","","","","canvas-button-response","459","646117","0.0-459.0","1684","knife","","","","","","","","","","","","","","perceptual","","","2","53","","","","","111","phone","10","0","0",""
"","","","","","","","","","","","canvas-button-response","460","647544","0.0-460.0","1425","1","","","","","","","","","","","","","","confidence","","","2","53","","","","","","","","","","3"
"","","","","","","","","","","","preload","461","647545","0.0-461.0","","","","","true","","","","","","","","","","","preload","","","2","54","false","[]","[]","[]","","","","","",""
"","","","","","","","","","","","canvas-keyboard-response","462","647848","0.0-462.0","null","null","","","","","","","","","","","","","","fixation","","","2","54","","","","","","","","","",""
"","","","","","","","","","","","canvas-keyboard-response","463","648150","0.0-463.0","null","null","","","","","","","","","","","","","","stimulus","","","2","54","","","","","","","","","",""
"","","","","","","","","","","","canvas-button-response","464","648984","0.0-464.0","832","flower","","","","","","","","","","","","","","perceptual","","","2","54","","","","","200","flower","6","0","1",""
"","","","","","","","","","","","canvas-button-response","465","650052","0.0-465.0","1065","4","","","","","","","","","","","","","","confidence","","","2","54","","","","","","","","","","4"
"","","","","","","","","","","","preload","466","650053","0.0-466.0","","","","","true","","","","","","","","","","","preload","","","2","55","false","[]","[]","[]","","","","","",""
"","","","","","","","","","","","canvas-keyboard-response","467","650356","0.0-467.0","null","null","","","","","","","","","","","","","","fixation","","","2","55","","","","","","","","","",""
"","","","","","","","","","","","canvas-keyboard-response","468","650658","0.0-468.0","null","null","","","","","","","","","","","","","","stimulus","","","2","55","","","","","","","","","",""
"","","","","","","","","","","","canvas-button-response","469","652904","0.0-469.0","2244","train","","","","","","","","","","","","","","perceptual","","","2","55","","","","","320","elephant","6","0","0",""
"","","","","","","","","","","","canvas-button-response","470","654600","0.0-470.0","1694","3","","","","","","","","","","","","","","confidence","","","2","55","","","","","","","","","","4"
"","","","","","","","","","","","preload","471","654601","0.0-471.0","","","","","true","","","","","","","","","","","preload","","","2","56","false","[]","[]","[]","","","","","",""
"","","","","","","","","","","","canvas-keyboard-response","472","654903","0.0-472.0","null","null","","","","","","","","","","","","","","fixation","","","2","56","","","","","","","","","",""
"","","","","","","","","","","","canvas-keyboard-response","473","655207","0.0-473.0","null","null","","","","","","","","","","","","","","stimulus","","","2","56","","","","","","","","","",""
"","","","","","","","","","","","canvas-button-response","474","656147","0.0-474.0","937","bridge","","","","","","","","","","","","","","perceptual","","","2","56","","","","","163","bridge","6","0","1",""
"","","","","","","","","","","","canvas-button-response","475","656921","0.0-475.0","771","7","","","","","","","","","","","","","","confidence","","","2","56","","","","","","","","","","5"
"","","","","","","","","","","","preload","476","656922","0.0-476.0","","","","","true","","","","","","","","","","","preload","","","2","57","false","[]","[]","[]","","","","","",""
"","","","","","","","","","","","canvas-keyboard-response","477","657224","0.0-477.0","null","null","","","","","","","","","","","","","","fixation","","","2","57","","","","","","","","","",""
"","","","","","","","","","","","canvas-keyboard-response","478","657527","0.0-478.0","null","null","","","","","","","","","","","","","","stimulus","","","2","57","","","","","","","","","",""
"","","","","","","","","","","","canvas-button-response","479","658574","0.0-479.0","1044","house","","","","","","","","","","","","","","perceptual","","","2","57","","","","","345","elephant","10","0","0",""
"","","","","","","","","","","","canvas-button-response","480","659589","0.0-480.0","1012","7","","","","","","","","","","","","","","confidence","","","2","57","","","","","","","","","","5"
"","","","","","","","","","","","preload","481","659590","0.0-481.0","","","","","true","","","","","","","","","","","preload","","","2","58","false","[]","[]","[]","","","","","",""
"","","","","","","","","","","","canvas-keyboard-response","482","659892","0.0-482.0","null","null","","","","","","","","","","","","","","fixation","","","2","58","","","","","","","","","",""
"","","","","","","","","","","","canvas-keyboard-response","483","660195","0.0-483.0","null","null","","","","","","","","","","","","","","stimulus","","","2","58","","","","","","","","","",""
"","","","","","","","","","","","canvas-button-response","484","663923","0.0-484.0","3725","car","","","","","","","","","","","","","","perceptual","","","2","58","","","","","204","flower","6","0","0",""
"","","","","","","","","","","","canvas-button-response","485","664709","0.0-485.0","784","1","","","","","","","","","","","","","","confidence","","","2","58","","","","","","","","","","5"
"","","","","","","","","","","","preload","486","664710","0.0-486.0","","","","","true","","","","","","","","","","","preload","","","2","59","false","[]","[]","[]","","","","","",""
"","","","","","","","","","","","canvas-keyboard-response","487","665012","0.0-487.0","null","null","","","","","","","","","","","","","","fixation","","","2","59","","","","","","","","","",""
"","","","","","","","","","","","canvas-keyboard-response","488","665316","0.0-488.0","null","null","","","","","","","","","","","","","","stimulus","","","2","59","","","","","","","","","",""
"","","","","","","","","","","","canvas-button-response","489","666244","0.0-489.0","925","bridge","","","","","","","","","","","","","","perceptual","","","2","59","","","","","166","bridge","6","0","1",""
