"width","height","webaudio","browser","browser_version","mobile","os","fullscreen","vsync_rate","webcam","microphone","trial_type","trial_index","time_elapsed","internal_node_id","rt","response","accuracy","view_history","success","item_width_mm","item_height_mm","item_width_px","px2mm","view_dist_mm","item_width_deg","px2deg","scale_factor","win_width_deg","win_height_deg","stimulus","datetime","subjectID","curr_triallist","trial_no","timeout","failed_images","failed_audio","failed_video","image_index","category","blur","reps","correct","running_score"
"1426","728","true","chrome","141.0.0","false","Mac OS","true","60.57","true","true","browser-check","0","995","0.0-0.0","","","","","","","","","","","","","","","","","","","","","","","","","","","","","",""
"","","","","","","","","","","","survey","1","16637","0.0-1.0","15604","{""P0_Q0"":""904015510"",""P0_Q1"":""19"",""P1_Q0"":""Male"",""P1_Q1"":""Not Hispanic or Latino"",""P1_Q2"":""White"",""P1_Q3"":""Corrected-to-Normal (using glasses/contacts)"",""P1_Q4"":""Right-Handed""}","[]","","","","","","","","","","","","","","","","","","","","","","","","","","",""
"","","","","","","","","","","","instructions","2","32398","0.0-2.0","15761","","","[{""page_index"":0,""viewing_time"":1297},{""page_index"":1,""viewing_time"":206},{""page_index"":2,""viewing_time"":683},{""page_index"":1,""viewing_time"":3651},{""page_index"":2,""viewing_time"":1917},{""page_index"":3,""viewing_time"":8006}]","","","","","","","","","","","","","","","","","","","","","","","","","",""
"","","","","","","","","","","","fullscreen","3","36424","0.0-3.0","3022","","","","true","","","","","","","","","","","","","","","","","","","","","","","","",""
"","","","","","","","","","","","virtual-chinrest","4","75594","0.0-4.0","39168","","","","","85.6","53.98","269.81992626520974","3.149961983233756","544.19","8.993997542173659","30","1.6158925177803567","49","30.633333333333333","","","","","","","","","","","","","","",""
"","","","","","","","","","","","instructions","5","158043","0.0-5.0","82449","","","[{""page_index"":0,""viewing_time"":11146},{""page_index"":1,""viewing_time"":5498},{""page_index"":2,""viewing_time"":19708},{""page_index"":3,""viewing_time"":4821},{""page_index"":4,""viewing_time"":12897},{""page_index"":5,""viewing_time"":19509},{""page_index"":6,""viewing_time"":8869}]","","","","","","","","","","","","","","","","","","","","","","","","","",""
"","","","","","","","","","","","html-button-response","6","162419","0.0-6.0","4370","0","","","","","","","","","","","","","","start_practice","Thu Oct 09 2025 17:04:54 GMT-0400 (Eastern Daylight Time)","27707","","","","","","","","","","","",""
"","","","","","","","","","","","preload","7","162420","0.0-7.0","","","","","true","","","","","","","","","","","preload","","","0","0","false","[]","[]","[]","","","","","",""
"","","","","","","","","","","","canvas-keyboard-response","8","162725","0.0-8.0","null","null","","","","","","","","","","","","","","fixation","","","0","0","","","","","","","","","",""
"","","","","","","","","","","","canvas-keyboard-response","9","163027","0.0-9.0","null","null","","","","","","","","","","","","","","stimulus","","","0","0","","","","","","","","","",""
"","","","","","","","","","","","canvas-button-response","10","164435","0.0-10.0","1405","house","","","","","","","","","","","","","","perceptual","","","0","0","","","","","2","house","1","","1",""
"","","","","","","","","","","","canvas-button-response","11","166085","0.0-11.0","1648","10","","","","","","","","","","","","","","confidence","","","0","0","","","","","","","","","","1"
"","","","","","","","","","","","html-keyboard-response","12","167089","0.0-12.0","null","null","","","","","","","","","","","","","","feedback","Thu Oct 09 2025 17:05:02 GMT-0400 (Eastern Daylight Time)","27707","0","0","","","","","","","","","",""
"","","","","","","","","","","","preload","13","167090","0.0-13.0","","","","","true","","","","","","","","","","","preload","","","0","1","false","[]","[]","[]","","","","","",""
"","","","","","","","","","","","canvas-keyboard-response","14","167393","0.0-14.0","null","null","","","","","","","","","","","","","","fixation","","","0","1","","","","","","","","","",""
"","","","","","","","","","","","canvas-keyboard-response","15","167696","0.0-15.0","null","null","","","","","","","","","","","","","","stimulus","","","0","1","","","","","","","","","",""
"","","","","","","","","","","","canvas-button-response","16","168918","0.0-16.0","1220","knife","","","","","","","","","","","","","","perceptual","","","0","1","","","","","92","knife","1","","1",""
"","","","","","","","","","","","canvas-button-response","17","169668","0.0-17.0","748","6","","","","","","","","","","","","","","confidence","","","0","1","","","","","","","","","","2"
"","","","","","","","","","","","html-keyboard-response","18","170671","0.0-18.0","null","null","","","","","","","","","","","","","","feedback","Thu Oct 09 2025 17:05:05 GMT-0400 (Eastern Daylight Time)","27707","0","1","","","","","","","","","",""
"","","","","","","","","","","","preload","19","170672","0.0-19.0","","","","","true","","","","","","","","","","","preload","","","0","2","false","[]","[]","[]","","","","","",""
"","","","","","","","","","","","canvas-keyboard-response","20","170975","0.0-20.0","null","null","","","","","","","","","","","","","","fixation","","","0","2","","","","","","","","","",""
"","","","","","","","","","","","canvas-keyboard-response","21","171278","0.0-21.0","null","null","","","","","","","","","","","","","","stimulus","","","0","2","","","","","","","","","",""
"","","","","","","","","","","","canvas-button-response","22","172468","0.0-22.0","1188","bed","","","","","","","","","","","","","","perceptual","","","0","2","","","","","32","bed","1","","1",""
"","","","","","","","","","","","canvas-button-response","23","173568","0.0-23.0","1098","7","","","","","","","","","","","","","","confidence","","","0","2","","","","","","","","","","3"
"","","","","","","","","","","","html-keyboard-response","24","174571","0.0-24.0","null","null","","","","","","","","","","","","","","feedback","Thu Oct 09 2025 17:05:09 GMT-0400 (Eastern Daylight Time)","27707","0","2","","","","","","","","","",""
"","","","","","","","","","","","preload","25","174572","0.0-25.0","","","","","true","","","","","","","","","","","preload","","","0","3","false","[]","[]","[]","","","","","",""
"","","","","","","","","","","","canvas-keyboard-response","26","174875","0.0-26.0","null","null","","","","","","","","","","","","","","fixation","","","0","3","","","","","","","","","",""
"","","","","","","","","","","","canvas-keyboard-response","27","175178","0.0-27.0","null","null","","","","","","","","","","","","","","stimulus","","","0","3","","","","","","","","","",""
"","","","","","","","","","","","canvas-button-response","28","178535","0.0-28.0","3355","flower","","","","","","","","","","","","","","perceptual","","","0","3","","","","","52","flower","1","","1",""
"","","","","","","","","","","","canvas-button-response","29","179501","0.0-29.0","965","3","","","","","","","","","","","","","","confidence","","","0","3","","","","","","","","","","4"
"","","","","","","","","","","","html-keyboard-response","30","180504","0.0-30.0","null","null","","","","","","","","","","","","","","feedback","Thu Oct 09 2025 17:05:15 GMT-0400 (Eastern Daylight Time)","27707","0","3","","","","","","","","","",""
"","","","","","","","","","","","preload","31","180505","0.0-31.0","","","","","true","","","","","","","","","","","preload","","","0","4","false","[]","[]","[]","","","","","",""
"","","","","","","","","","","","canvas-keyboard-response","32","180809","0.0-32.0","null","null","","","","","","","","","","","","","","fixation","","","0","4","","","","","","","","","",""
"","","","","","","","","","","","canvas-keyboard-response","33","181112","0.0-33.0","null","null","","","","","","","","","","","","","","stimulus","","","0","4","","","","","","","","","",""
"","","","","","","","","","","","canvas-button-response","34","181968","0.0-34.0","854","car","","","","","","","","","","","","","","perceptual","","","0","4","","","","","12","car","1","","1",""
"","","","","","","","","","","","canvas-button-response","35","182685","0.0-35.0","715","10","","","","","","","","","","","","","","confidence","","","0","4","","","","","","","","","","5"
"","","","","","","","","","","","html-keyboard-response","36","183688","0.0-36.0","null","null","","","","","","","","","","","","","","feedback","Thu Oct 09 2025 17:05:18 GMT-0400 (Eastern Daylight Time)","27707","0","4","","","","","","","","","",""
"","","","","","","","","","","","preload","37","183689","0.0-37.0","","","","","true","","","","","","","","","","","preload","","","0","5","false","[]","[]","[]","","","","","",""
"","","","","","","","","","","","canvas-keyboard-response","38","183991","0.0-38.0","null","null","","","","","","","","","","","","","","fixation","","","0","5","","","","","","","","","",""
"","","","","","","","","","","","canvas-keyboard-response","39","184295","0.0-39.0","null","null","","","","","","","","","","","","","","stimulus","","","0","5","","","","","","","","","",""
"","","","","","","","","","","","canvas-button-response","40","185251","0.0-40.0","954","phone","","","","","","","","","","","","","","perceptual","","","0","5","","","","","22","phone","1","","1",""
"","","","","","","","","","","","canvas-button-response","41","187684","0.0-41.0","2432","7","","","","","","","","","","","","","","confidence","","","0","5","","","","","","","","","","6"
"","","","","","","","","","","","html-keyboard-response","42","188687","0.0-42.0","null","null","","","","","","","","","","","","","","feedback","Thu Oct 09 2025 17:05:23 GMT-0400 (Eastern Daylight Time)","27707","0","5","","","","","","","","","",""
"","","","","","","","","","","","preload","43","188688","0.0-43.0","","","","","true","","","","","","","","","","","preload","","","0","6","false","[]","[]","[]","","","","","",""
"","","","","","","","","","","","canvas-keyboard-response","44","188991","0.0-44.0","null","null","","","","","","","","","","","","","","fixation","","","0","6","","","","","","","","","",""
"","","","","","","","","","","","canvas-keyboard-response","45","189294","0.0-45.0","null","null","","","","","","","","","","","","","","stimulus","","","0","6","","","","","","","","","",""
"","","","","","","","","","","","canvas-button-response","46","193151","0.0-46.0","3855","train","","","","","","","","","","","","","","perceptual","","","0","6","","","","","62","train","1","","1",""
"","","","","","","","","","","","canvas-button-response","47","194735","0.0-47.0","1581","10","","","","","","","","","","","","","","confidence","","","0","6","","","","","","","","","","7"
"","","","","","","","","","","","html-keyboard-response","48","195737","0.0-48.0","null","null","","","","","","","","","","","","","","feedback","Thu Oct 09 2025 17:05:30 GMT-0400 (Eastern Daylight Time)","27707","0","6","","","","","","","","","",""
"","","","","","","","","","","","preload","49","195738","0.0-49.0","","","","","true","","","","","","","","","","","preload","","","0","7","false","[]","[]","[]","","","","","",""
"","","","","","","","","","","","canvas-keyboard-response","50","196041","0.0-50.0","null","null","","","","","","","","","","","","","","fixation","","","0","7","","","","","","","","","",""
"","","","","","","","","","","","canvas-keyboard-response","51","196344","0.0-51.0","null","null","","","","","","","","","","","","","","stimulus","","","0","7","","","","","","","","","",""
"","","","","","","","","","","","canvas-button-response","52","198916","0.0-52.0","2571","elephant","","","","","","","","","","","","","","perceptual","","","0","7","","","","","82","elephant","1","","1",""
"","","","","","","","","","","","canvas-button-response","53","199867","0.0-53.0","950","4","","","","","","","","","","","","","","confidence","","","0","7","","","","","","","","","","8"
"","","","","","","","","","","","html-keyboard-response","54","200870","0.0-54.0","null","null","","","","","","","","","","","","","","feedback","Thu Oct 09 2025 17:05:36 GMT-0400 (Eastern Daylight Time)","27707","0","7","","","","","","","","","",""
"","","","","","","","","","","","preload","55","200871","0.0-55.0","","","","","true","","","","","","","","","","","preload","","","0","8","false","[]","[]","[]","","","","","",""
"","","","","","","","","","","","canvas-keyboard-response","56","201173","0.0-56.0","null","null","","","","","","","","","","","","","","fixation","","","0","8","","","","","","","","","",""
"","","","","","","","","","","","canvas-keyboard-response","57","201475","0.0-57.0","null","null","","","","","","","","","","","","","","stimulus","","","0","8","","","","","","","","","",""
"","","","","","","","","","","","canvas-button-response","58","202184","0.0-58.0","706","cat","","","","","","","","","","","","","","perceptual","","","0","8","","","","","72","cat","1","","1",""
"","","","","","","","","","","","canvas-button-response","59","202867","0.0-59.0","681","10","","","","","","","","","","","","","","confidence","","","0","8","","","","","","","","","","9"
"","","","","","","","","","","","html-keyboard-response","60","203870","0.0-60.0","null","null","","","","","","","","","","","","","","feedback","Thu Oct 09 2025 17:05:39 GMT-0400 (Eastern Daylight Time)","27707","0","8","","","","","","","","","",""
"","","","","","","","","","","","preload","61","203871","0.0-61.0","","","","","true","","","","","","","","","","","preload","","","0","9","false","[]","[]","[]","","","","","",""
"","","","","","","","","","","","canvas-keyboard-response","62","204173","0.0-62.0","null","null","","","","","","","","","","","","","","fixation","","","0","9","","","","","","","","","",""
"","","","","","","","","","","","canvas-keyboard-response","63","204476","0.0-63.0","null","null","","","","","","","","","","","","","","stimulus","","","0","9","","","","","","","","","",""
"","","","","","","","","","","","canvas-button-response","64","205850","0.0-64.0","1372","bridge","","","","","","","","","","","","","","perceptual","","","0","9","","","","","42","bridge","1","","1",""
"","","","","","","","","","","","canvas-button-response","65","206701","0.0-65.0","848","10","","","","","","","","","","","","","","confidence","","","0","9","","","","","","","","","","10"
"","","","","","","","","","","","html-keyboard-response","66","207704","0.0-66.0","null","null","","","","","","","","","","","","","","feedback","Thu Oct 09 2025 17:05:42 GMT-0400 (Eastern Daylight Time)","27707","0","9","","","","","","","","","",""
"","","","","","","","","","","","html-button-response","67","226316","0.0-67.0","18609","0","","","","","","","","","","","","","","start_practice","Thu Oct 09 2025 17:05:43 GMT-0400 (Eastern Daylight Time)","27707","0","9","","","","","","","","","",""
"","","","","","","","","","","","preload","68","226317","0.0-68.0","","","","","true","","","","","","","","","","","preload","","","1","0","false","[]","[]","[]","","","","","",""
"","","","","","","","","","","","canvas-keyboard-response","69","226620","0.0-69.0","null","null","","","","","","","","","","","","","","fixation","","","1","0","","","","","","","","","",""
"","","","","","","","","","","","canvas-keyboard-response","70","226922","0.0-70.0","null","null","","","","","","","","","","","","","","stimulus","","","1","0","","","","","","","","","",""
"","","","","","","","","","","","canvas-button-response","71","231383","0.0-71.0","4458","train","","","","","","","","","","","","","","perceptual","","","1","0","","","","","27","phone","10","","0",""
"","","","","","","","","","","","canvas-button-response","72","236400","0.0-72.0","5015","1","","","","","","","","","","","","","","confidence","","","1","0","","","","","","","","","","0"
"","","","","","","","","","","","html-keyboard-response","73","237403","0.0-73.0","null","null","","","","","","","","","","","","","","feedback","Thu Oct 09 2025 17:06:12 GMT-0400 (Eastern Daylight Time)","27707","1","0","","","","","","","","","",""
"","","","","","","","","","","","preload","74","237403","0.0-74.0","","","","","true","","","","","","","","","","","preload","","","1","1","false","[]","[]","[]","","","","","",""
"","","","","","","","","","","","canvas-keyboard-response","75","237706","0.0-75.0","null","null","","","","","","","","","","","","","","fixation","","","1","1","","","","","","","","","",""
"","","","","","","","","","","","canvas-keyboard-response","76","238009","0.0-76.0","null","null","","","","","","","","","","","","","","stimulus","","","1","1","","","","","","","","","",""
"","","","","","","","","","","","canvas-button-response","77","240333","0.0-77.0","2322","bridge","","","","","","","","","","","","","","perceptual","","","1","1","","","","","47","bridge","10","","1",""
"","","","","","","","","","","","canvas-button-response","78","241283","0.0-78.0","948","1","","","","","","","","","","","","","","confidence","","","1","1","","","","","","","","","","1"
"","","","","","","","","","","","html-keyboard-response","79","242285","0.0-79.0","null","null","","","","","","","","","","","","","","feedback","Thu Oct 09 2025 17:06:17 GMT-0400 (Eastern Daylight Time)","27707","1","1","","","","","","","","","",""
"","","","","","","","","","","","preload","80","242286","0.0-80.0","","","","","true","","","","","","","","","","","preload","","","1","2","false","[]","[]","[]","","","","","",""
"","","","","","","","","","","","canvas-keyboard-response","81","242589","0.0-81.0","null","null","","","","","","","","","","","","","","fixation","","","1","2","","","","","","","","","",""
"","","","","","","","","","","","canvas-keyboard-response","82","242891","0.0-82.0","null","null","","","","","","","","","","","","","","stimulus","","","1","2","","","","","","","","","",""
"","","","","","","","","","","","canvas-button-response","83","245183","0.0-83.0","2290","car","","","","","","","","","","","","","","perceptual","","","1","2","","","","","14","car","6","","1",""
"","","","","","","","","","","","canvas-button-response","84","246633","0.0-84.0","1447","2","","","","","","","","","","","","","","confidence","","","1","2","","","","","","","","","","2"
"","","","","","","","","","","","html-keyboard-response","85","247636","0.0-85.0","null","null","","","","","","","","","","","","","","feedback","Thu Oct 09 2025 17:06:22 GMT-0400 (Eastern Daylight Time)","27707","1","2","","","","","","","","","",""
"","","","","","","","","","","","preload","86","247637","0.0-86.0","","","","","true","","","","","","","","","","","preload","","","1","3","false","[]","[]","[]","","","","","",""
"","","","","","","","","","","","canvas-keyboard-response","87","247939","0.0-87.0","null","null","","","","","","","","","","","","","","fixation","","","1","3","","","","","","","","","",""
"","","","","","","","","","","","canvas-keyboard-response","88","248242","0.0-88.0","null","null","","","","","","","","","","","","","","stimulus","","","1","3","","","","","","","","","",""
"","","","","","","","","","","","canvas-button-response","89","249183","0.0-89.0","939","flower","","","","","","","","","","","","","","perceptual","","","1","3","","","","","57","flower","10","","1",""
"","","","","","","","","","","","canvas-button-response","90","250516","0.0-90.0","1331","7","","","","","","","","","","","","","","confidence","","","1","3","","","","","","","","","","3"
"","","","","","","","","","","","html-keyboard-response","91","251518","0.0-91.0","null","null","","","","","","","","","","","","","","feedback","Thu Oct 09 2025 17:06:26 GMT-0400 (Eastern Daylight Time)","27707","1","3","","","","","","","","","",""
"","","","","","","","","","","","preload","92","251519","0.0-92.0","","","","","true","","","","","","","","","","","preload","","","1","4","false","[]","[]","[]","","","","","",""
"","","","","","","","","","","","canvas-keyboard-response","93","251821","0.0-93.0","null","null","","","","","","","","","","","","","","fixation","","","1","4","","","","","","","","","",""
"","","","","","","","","","","","canvas-keyboard-response","94","252124","0.0-94.0","null","null","","","","","","","","","","","","","","stimulus","","","1","4","","","","","","","","","",""
"","","","","","","","","","","","canvas-button-response","95","253099","0.0-95.0","973","train","","","","","","","","","","","","","","perceptual","","","1","4","","","","","67","train","10","","1",""
"","","","","","","","","","","","canvas-button-response","96","254166","0.0-96.0","1065","7","","","","","","","","","","","","","","confidence","","","1","4","","","","","","","","","","4"
"","","","","","","","","","","","html-keyboard-response","97","255168","0.0-97.0","null","null","","","","","","","","","","","","","","feedback","Thu Oct 09 2025 17:06:30 GMT-0400 (Eastern Daylight Time)","27707","1","4","","","","","","","","","",""
"","","","","","","","","","","","preload","98","255169","0.0-98.0","","","","","true","","","","","","","","","","","preload","","","1","5","false","[]","[]","[]","","","","","",""
"","","","","","","","","","","","canvas-keyboard-response","99","255472","0.0-99.0","null","null","","","","","","","","","","","","","","fixation","","","1","5","","","","","","","","","",""
"","","","","","","","","","","","canvas-keyboard-response","100","255774","0.0-100.0","null","null","","","","","","","","","","","","","","stimulus","","","1","5","","","","","","","","","",""
"","","","","","","","","","","","canvas-button-response","101","256699","0.0-101.0","923","house","","","","","","","","","","","","","","perceptual","","","1","5","","","","","7","house","10","","1",""
"","","","","","","","","","","","canvas-button-response","102","257616","0.0-102.0","914","8","","","","","","","","","","","","","","confidence","","","1","5","","","","","","","","","","5"
"","","","","","","","","","","","html-keyboard-response","103","258618","0.0-103.0","null","null","","","","","","","","","","","","","","feedback","Thu Oct 09 2025 17:06:33 GMT-0400 (Eastern Daylight Time)","27707","1","5","","","","","","","","","",""
"","","","","","","","","","","","preload","104","258619","0.0-104.0","","","","","true","","","","","","","","","","","preload","","","1","6","false","[]","[]","[]","","","","","",""
"","","","","","","","","","","","canvas-keyboard-response","105","258922","0.0-105.0","null","null","","","","","","","","","","","","","","fixation","","","1","6","","","","","","","","","",""
"","","","","","","","","","","","canvas-keyboard-response","106","259224","0.0-106.0","null","null","","","","","","","","","","","","","","stimulus","","","1","6","","","","","","","","","",""
"","","","","","","","","","","","canvas-button-response","107","260116","0.0-107.0","889","train","","","","","","","","","","","","","","perceptual","","","1","6","","","","","64","train","6","","1",""
"","","","","","","","","","","","canvas-button-response","108","261266","0.0-108.0","1148","10","","","","","","","","","","","","","","confidence","","","1","6","","","","","","","","","","6"
"","","","","","","","","","","","html-keyboard-response","109","262269","0.0-109.0","null","null","","","","","","","","","","","","","","feedback","Thu Oct 09 2025 17:06:37 GMT-0400 (Eastern Daylight Time)","27707","1","6","","","","","","","","","",""
"","","","","","","","","","","","preload","110","262269","0.0-110.0","","","","","true","","","","","","","","","","","preload","","","1","7","false","[]","[]","[]","","","","","",""
"","","","","","","","","","","","canvas-keyboard-response","111","262572","0.0-111.0","null","null","","","","","","","","","","","","","","fixation","","","1","7","","","","","","","","","",""
"","","","","","","","","","","","canvas-keyboard-response","112","262874","0.0-112.0","null","null","","","","","","","","","","","","","","stimulus","","","1","7","","","","","","","","","",""
"","","","","","","","","","","","canvas-button-response","113","264116","0.0-113.0","1240","house","","","","","","","","","","","","","","perceptual","","","1","7","","","","","44","bridge","6","","0",""
"","","","","","","","","","","","canvas-button-response","114","264816","0.0-114.0","697","4","","","","","","","","","","","","","","confidence","","","1","7","","","","","","","","","","6"
"","","","","","","","","","","","html-keyboard-response","115","265819","0.0-115.0","null","null","","","","","","","","","","","","","","feedback","Thu Oct 09 2025 17:06:41 GMT-0400 (Eastern Daylight Time)","27707","1","7","","","","","","","","","",""
"","","","","","","","","","","","preload","116","265820","0.0-116.0","","","","","true","","","","","","","","","","","preload","","","1","8","false","[]","[]","[]","","","","","",""
"","","","","","","","","","","","canvas-keyboard-response","117","266123","0.0-117.0","null","null","","","","","","","","","","","","","","fixation","","","1","8","","","","","","","","","",""
"","","","","","","","","","","","canvas-keyboard-response","118","266426","0.0-118.0","null","null","","","","","","","","","","","","","","stimulus","","","1","8","","","","","","","","","",""
"","","","","","","","","","","","canvas-button-response","119","267982","0.0-119.0","1554","elephant","","","","","","","","","","","","","","perceptual","","","1","8","","","","","84","elephant","6","","1",""
"","","","","","","","","","","","canvas-button-response","120","268449","0.0-120.0","465","10","","","","","","","","","","","","","","confidence","","","1","8","","","","","","","","","","7"
"","","","","","","","","","","","html-keyboard-response","121","269451","0.0-121.0","null","null","","","","","","","","","","","","","","feedback","Thu Oct 09 2025 17:06:44 GMT-0400 (Eastern Daylight Time)","27707","1","8","","","","","","","","","",""
"","","","","","","","","","","","preload","122","269452","0.0-122.0","","","","","true","","","","","","","","","","","preload","","","1","9","false","[]","[]","[]","","","","","",""
"","","","","","","","","","","","canvas-keyboard-response","123","269755","0.0-123.0","null","null","","","","","","","","","","","","","","fixation","","","1","9","","","","","","","","","",""
"","","","","","","","","","","","canvas-keyboard-response","124","270058","0.0-124.0","null","null","","","","","","","","","","","","","","stimulus","","","1","9","","","","","","","","","",""
"","","","","","","","","","","","canvas-button-response","125","270865","0.0-125.0","806","cat","","","","","","","","","","","","","","perceptual","","","1","9","","","","","74","cat","6","","1",""
"","","","","","","","","","","","canvas-button-response","126","271432","0.0-126.0","565","9","","","","","","","","","","","","","","confidence","","","1","9","","","","","","","","","","8"
"","","","","","","","","","","","html-keyboard-response","127","272434","0.0-127.0","null","null","","","","","","","","","","","","","","feedback","Thu Oct 09 2025 17:06:47 GMT-0400 (Eastern Daylight Time)","27707","1","9","","","","","","","","","",""
"","","","","","","","","","","","preload","128","272435","0.0-128.0","","","","","true","","","","","","","","","","","preload","","","1","10","false","[]","[]","[]","","","","","",""
"","","","","","","","","","","","canvas-keyboard-response","129","272738","0.0-129.0","null","null","","","","","","","","","","","","","","fixation","","","1","10","","","","","","","","","",""
"","","","","","","","","","","","canvas-keyboard-response","130","273041","0.0-130.0","null","null","","","","","","","","","","","","","","stimulus","","","1","10","","","","","","","","","",""
"","","","","","","","","","","","canvas-button-response","131","274016","0.0-131.0","972","house","","","","","","","","","","","","","","perceptual","","","1","10","","","","","4","house","6","","1",""
"","","","","","","","","","","","canvas-button-response","132","274732","0.0-132.0","714","9","","","","","","","","","","","","","","confidence","","","1","10","","","","","","","","","","9"
"","","","","","","","","","","","html-keyboard-response","133","275734","0.0-133.0","null","null","","","","","","","","","","","","","","feedback","Thu Oct 09 2025 17:06:50 GMT-0400 (Eastern Daylight Time)","27707","1","10","","","","","","","","","",""
"","","","","","","","","","","","preload","134","275735","0.0-134.0","","","","","true","","","","","","","","","","","preload","","","1","11","false","[]","[]","[]","","","","","",""
"","","","","","","","","","","","canvas-keyboard-response","135","276038","0.0-135.0","null","null","","","","","","","","","","","","","","fixation","","","1","11","","","","","","","","","",""
"","","","","","","","","","","","canvas-keyboard-response","136","276340","0.0-136.0","null","null","","","","","","","","","","","","","","stimulus","","","1","11","","","","","","","","","",""
"","","","","","","","","","","","canvas-button-response","137","283649","0.0-137.0","7306","elephant","","","","","","","","","","","","","","perceptual","","","1","11","","","","","17","car","10","","0",""
"","","","","","","","","","","","canvas-button-response","138","284515","0.0-138.0","865","3","","","","","","","","","","","","","","confidence","","","1","11","","","","","","","","","","9"
"","","","","","","","","","","","html-keyboard-response","139","285517","0.0-139.0","null","null","","","","","","","","","","","","","","feedback","Thu Oct 09 2025 17:07:00 GMT-0400 (Eastern Daylight Time)","27707","1","11","","","","","","","","","",""
"","","","","","","","","","","","preload","140","285518","0.0-140.0","","","","","true","","","","","","","","","","","preload","","","1","12","false","[]","[]","[]","","","","","",""
"","","","","","","","","","","","canvas-keyboard-response","141","285821","0.0-141.0","null","null","","","","","","","","","","","","","","fixation","","","1","12","","","","","","","","","",""
"","","","","","","","","","","","canvas-keyboard-response","142","286124","0.0-142.0","null","null","","","","","","","","","","","","","","stimulus","","","1","12","","","","","","","","","",""
"","","","","","","","","","","","canvas-button-response","143","286915","0.0-143.0","789","flower","","","","","","","","","","","","","","perceptual","","","1","12","","","","","54","flower","6","","1",""
"","","","","","","","","","","","canvas-button-response","144","287715","0.0-144.0","798","7","","","","","","","","","","","","","","confidence","","","1","12","","","","","","","","","","10"
"","","","","","","","","","","","html-keyboard-response","145","288717","0.0-145.0","null","null","","","","","","","","","","","","","","feedback","Thu Oct 09 2025 17:07:03 GMT-0400 (Eastern Daylight Time)","27707","1","12","","","","","","","","","",""
"","","","","","","","","","","","preload","146","288718","0.0-146.0","","","","","true","","","","","","","","","","","preload","","","1","13","false","[]","[]","[]","","","","","",""
"","","","","","","","","","","","canvas-keyboard-response","147","289021","0.0-147.0","null","null","","","","","","","","","","","","","","fixation","","","1","13","","","","","","","","","",""
"","","","","","","","","","","","canvas-keyboard-response","148","289323","0.0-148.0","null","null","","","","","","","","","","","","","","stimulus","","","1","13","","","","","","","","","",""
"","","","","","","","","","","","canvas-button-response","149","290148","0.0-149.0","823","bed","","","","","","","","","","","","","","perceptual","","","1","13","","","","","34","bed","6","","1",""
"","","","","","","","","","","","canvas-button-response","150","290849","0.0-150.0","698","7","","","","","","","","","","","","","","confidence","","","1","13","","","","","","","","","","11"
"","","","","","","","","","","","html-keyboard-response","151","291852","0.0-151.0","null","null","","","","","","","","","","","","","","feedback","Thu Oct 09 2025 17:07:07 GMT-0400 (Eastern Daylight Time)","27707","1","13","","","","","","","","","",""
"","","","","","","","","","","","preload","152","291853","0.0-152.0","","","","","true","","","","","","","","","","","preload","","","1","14","false","[]","[]","[]","","","","","",""
"","","","","","","","","","","","canvas-keyboard-response","153","292155","0.0-153.0","null","null","","","","","","","","","","","","","","fixation","","","1","14","","","","","","","","","",""
"","","","","","","","","","","","canvas-keyboard-response","154","292459","0.0-154.0","null","null","","","","","","","","","","","","","","stimulus","","","1","14","","","","","","","","","",""
"","","","","","","","","","","","canvas-button-response","155","293732","0.0-155.0","1271","cat","","","","","","","","","","","","","","perceptual","","","1","14","","","","","77","cat","10","","1",""
"","","","","","","","","","","","canvas-button-response","156","294765","0.0-156.0","1032","4","","","","","","","","","","","","","","confidence","","","1","14","","","","","","","","","","12"
"","","","","","","","","","","","html-keyboard-response","157","295767","0.0-157.0","null","null","","","","","","","","","","","","","","feedback","Thu Oct 09 2025 17:07:11 GMT-0400 (Eastern Daylight Time)","27707","1","14","","","","","","","","","",""
"","","","","","","","","","","","preload","158","295768","0.0-158.0","","","","","true","","","","","","","","","","","preload","","","1","15","false","[]","[]","[]","","","","","",""
"","","","","","","","","","","","canvas-keyboard-response","159","296070","0.0-159.0","null","null","","","","","","","","","","","","","","fixation","","","1","15","","","","","","","","","",""
"","","","","","","","","","","","canvas-keyboard-response","160","296373","0.0-160.0","null","null","","","","","","","","","","","","","","stimulus","","","1","15","","","","","","","","","",""
"","","","","","","","","","","","canvas-button-response","161","297298","0.0-161.0","923","knife","","","","","","","","","","","","","","perceptual","","","1","15","","","","","97","knife","10","","1",""
"","","","","","","","","","","","canvas-button-response","162","298032","0.0-162.0","732","10","","","","","","","","","","","","","","confidence","","","1","15","","","","","","","","","","13"
"","","","","","","","","","","","html-keyboard-response","163","299035","0.0-163.0","null","null","","","","","","","","","","","","","","feedback","Thu Oct 09 2025 17:07:14 GMT-0400 (Eastern Daylight Time)","27707","1","15","","","","","","","","","",""
"","","","","","","","","","","","preload","164","299035","0.0-164.0","","","","","true","","","","","","","","","","","preload","","","1","16","false","[]","[]","[]","","","","","",""
"","","","","","","","","","","","canvas-keyboard-response","165","299338","0.0-165.0","null","null","","","","","","","","","","","","","","fixation","","","1","16","","","","","","","","","",""
"","","","","","","","","","","","canvas-keyboard-response","166","299641","0.0-166.0","null","null","","","","","","","","","","","","","","stimulus","","","1","16","","","","","","","","","",""
"","","","","","","","","","","","canvas-button-response","167","300948","0.0-167.0","1305","elephant","","","","","","","","","","","","","","perceptual","","","1","16","","","","","87","elephant","10","","1",""
"","","","","","","","","","","","canvas-button-response","168","301765","0.0-168.0","815","2","","","","","","","","","","","","","","confidence","","","1","16","","","","","","","","","","14"
"","","","","","","","","","","","html-keyboard-response","169","302768","0.0-169.0","null","null","","","","","","","","","","","","","","feedback","Thu Oct 09 2025 17:07:18 GMT-0400 (Eastern Daylight Time)","27707","1","16","","","","","","","","","",""
"","","","","","","","","","","","preload","170","302769","0.0-170.0","","","","","true","","","","","","","","","","","preload","","","1","17","false","[]","[]","[]","","","","","",""
"","","","","","","","","","","","canvas-keyboard-response","171","303072","0.0-171.0","null","null","","","","","","","","","","","","","","fixation","","","1","17","","","","","","","","","",""
"","","","","","","","","","","","canvas-keyboard-response","172","303375","0.0-172.0","null","null","","","","","","","","","","","","","","stimulus","","","1","17","","","","","","","","","",""
"","","","","","","","","","","","canvas-button-response","173","304081","0.0-173.0","705","phone","","","","","","","","","","","","","","perceptual","","","1","17","","","","","24","phone","6","","1",""
"","","","","","","","","","","","canvas-button-response","174","304815","0.0-174.0","730","10","","","","","","","","","","","","","","confidence","","","1","17","","","","","","","","","","15"
"","","","","","","","","","","","html-keyboard-response","175","305817","0.0-175.0","null","null","","","","","","","","","","","","","","feedback","Thu Oct 09 2025 17:07:21 GMT-0400 (Eastern Daylight Time)","27707","1","17","","","","","","","","","",""
"","","","","","","","","","","","preload","176","305818","0.0-176.0","","","","","true","","","","","","","","","","","preload","","","1","18","false","[]","[]","[]","","","","","",""
"","","","","","","","","","","","canvas-keyboard-response","177","306121","0.0-177.0","null","null","","","","","","","","","","","","","","fixation","","","1","18","","","","","","","","","",""
"","","","","","","","","","","","canvas-keyboard-response","178","306424","0.0-178.0","null","null","","","","","","","","","","","","","","stimulus","","","1","18","","","","","","","","","",""
"","","","","","","","","","","","canvas-button-response","179","310064","0.0-179.0","3639","phone","","","","","","","","","","","","","","perceptual","","","1","18","","","","","94","knife","6","","0",""
"","","","","","","","","","","","canvas-button-response","180","311214","0.0-180.0","1148","2","","","","","","","","","","","","","","confidence","","","1","18","","","","","","","","","","15"
"","","","","","","","","","","","html-keyboard-response","181","312217","0.0-181.0","null","null","","","","","","","","","","","","","","feedback","Thu Oct 09 2025 17:07:27 GMT-0400 (Eastern Daylight Time)","27707","1","18","","","","","","","","","",""
"","","","","","","","","","","","preload","182","312218","0.0-182.0","","","","","true","","","","","","","","","","","preload","","","1","19","false","[]","[]","[]","","","","","",""
"","","","","","","","","","","","canvas-keyboard-response","183","312521","0.0-183.0","null","null","","","","","","","","","","","","","","fixation","","","1","19","","","","","","","","","",""
"","","","","","","","","","","","canvas-keyboard-response","184","312824","0.0-184.0","null","null","","","","","","","","","","","","","","stimulus","","","1","19","","","","","","","","","",""
"","","","","","","","","","","","canvas-button-response","185","315031","0.0-185.0","2205","bridge","","","","","","","","","","","","","","perceptual","","","1","19","","","","","37","bed","10","","0",""
"","","","","","","","","","","","canvas-button-response","186","315714","0.0-186.0","681","2","","","","","","","","","","","","","","confidence","","","1","19","","","","","","","","","","15"
"","","","","","","","","","","","html-keyboard-response","187","316717","0.0-187.0","null","null","","","","","","","","","","","","","","feedback","Thu Oct 09 2025 17:07:31 GMT-0400 (Eastern Daylight Time)","27707","1","19","","","","","","","","","",""
"","","","","","","","","","","","html-button-response","188","336114","0.0-188.0","19395","0","","","","","","","","","","","","","","start experiment","Thu Oct 09 2025 17:07:32 GMT-0400 (Eastern Daylight Time)","27707","1","19","","","","","","","","","",""
"","","","","","","","","","","","preload","189","336115","0.0-189.0","","","","","true","","","","","","","","","","","preload","","","2","0","false","[]","[]","[]","","","","","",""
"","","","","","","","","","","","canvas-keyboard-response","190","336418","0.0-190.0","null","null","","","","","","","","","","","","","","fixation","","","2","0","","","","","","","","","",""
"","","","","","","","","","","","canvas-keyboard-response","191","336721","0.0-191.0","null","null","","","","","","","","","","","","","","stimulus","","","2","0","","","","","","","","","",""
"","","","","","","","","","","","canvas-button-response","192","337564","0.0-192.0","841","knife","","","","","","","","","","","","","","perceptual","","","2","0","","","","","369","knife","6","0","1",""
"","","","","","","","","","","","canvas-button-response","193","338929","0.0-193.0","1363","7","","","","","","","","","","","","","","confidence","","","2","0","","","","","","","","","","1"
"","","","","","","","","","","","preload","194","338930","0.0-194.0","","","","","true","","","","","","","","","","","preload","","","2","1","false","[]","[]","[]","","","","","",""
"","","","","","","","","","","","canvas-keyboard-response","195","339232","0.0-195.0","null","null","","","","","","","","","","","","","","fixation","","","2","1","","","","","","","","","",""
"","","","","","","","","","","","canvas-keyboard-response","196","339535","0.0-196.0","null","null","","","","","","","","","","","","","","stimulus","","","2","1","","","","","","","","","",""
"","","","","","","","","","","","canvas-button-response","197","340330","0.0-197.0","794","bed","","","","","","","","","","","","","","perceptual","","","2","1","","","","","121","bed","6","0","1",""
"","","","","","","","","","","","canvas-button-response","198","341180","0.0-198.0","848","10","","","","","","","","","","","","","","confidence","","","2","1","","","","","","","","","","2"
"","","","","","","","","","","","preload","199","341181","0.0-199.0","","","","","true","","","","","","","","","","","preload","","","2","2","false","[]","[]","[]","","","","","",""
"","","","","","","","","","","","canvas-keyboard-response","200","341483","0.0-200.0","null","null","","","","","","","","","","","","","","fixation","","","2","2","","","","","","","","","",""
"","","","","","","","","","","","canvas-keyboard-response","201","341785","0.0-201.0","null","null","","","","","","","","","","","","","","stimulus","","","2","2","","","","","","","","","",""
"","","","","","","","","","","","canvas-button-response","202","342747","0.0-202.0","960","knife","","","","","","","","","","","","","","perceptual","","","2","2","","","","","387","knife","10","0","1",""
"","","","","","","","","","","","canvas-button-response","203","343481","0.0-203.0","731","10","","","","","","","","","","","","","","confidence","","","2","2","","","","","","","","","","3"
"","","","","","","","","","","","preload","204","343482","0.0-204.0","","","","","true","","","","","","","","","","","preload","","","2","3","false","[]","[]","[]","","","","","",""
"","","","","","","","","","","","canvas-keyboard-response","205","343784","0.0-205.0","null","null","","","","","","","","","","","","","","fixation","","","2","3","","","","","","","","","",""
"","","","","","","","","","","","canvas-keyboard-response","206","344086","0.0-206.0","null","null","","","","","","","","","","","","","","stimulus","","","2","3","","","","","","","","","",""
"","","","","","","","","","","","canvas-button-response","207","345197","0.0-207.0","1109","knife","","","","","","","","","","","","","","perceptual","","","2","3","","","","","383","knife","10","0","1",""
"","","","","","","","","","","","canvas-button-response","208","345997","0.0-208.0","798","3","","","","","","","","","","","","","","confidence","","","2","3","","","","","","","","","","4"
"","","","","","","","","","","","preload","209","345998","0.0-209.0","","","","","true","","","","","","","","","","","preload","","","2","4","false","[]","[]","[]","","","","","",""
"","","","","","","","","","","","canvas-keyboard-response","210","346300","0.0-210.0","null","null","","","","","","","","","","","","","","fixation","","","2","4","","","","","","","","","",""
"","","","","","","","","","","","canvas-keyboard-response","211","346602","0.0-211.0","null","null","","","","","","","","","","","","","","stimulus","","","2","4","","","","","","","","","",""
"","","","","","","","","","","","canvas-button-response","212","347796","0.0-212.0","1192","bed","","","","","","","","","","","","","","perceptual","","","2","4","","","","","137","bed","6","0","1",""
"","","","","","","","","","","","canvas-button-response","213","348797","0.0-213.0","998","3","","","","","","","","","","","","","","confidence","","","2","4","","","","","","","","","","5"
"","","","","","","","","","","","preload","214","348798","0.0-214.0","","","","","true","","","","","","","","","","","preload","","","2","5","false","[]","[]","[]","","","","","",""
"","","","","","","","","","","","canvas-keyboard-response","215","349099","0.0-215.0","null","null","","","","","","","","","","","","","","fixation","","","2","5","","","","","","","","","",""
"","","","","","","","","","","","canvas-keyboard-response","216","349402","0.0-216.0","null","null","","","","","","","","","","","","","","stimulus","","","2","5","","","","","","","","","",""
"","","","","","","","","","","","canvas-button-response","217","350331","0.0-217.0","926","car","","","","","","","","","","","","","","perceptual","","","2","5","","","","","72","car","10","0","1",""
"","","","","","","","","","","","canvas-button-response","218","351063","0.0-218.0","730","10","","","","","","","","","","","","","","confidence","","","2","5","","","","","","","","","","6"
"","","","","","","","","","","","preload","219","351064","0.0-219.0","","","","","true","","","","","","","","","","","preload","","","2","6","false","[]","[]","[]","","","","","",""
"","","","","","","","","","","","canvas-keyboard-response","220","351366","0.0-220.0","null","null","","","","","","","","","","","","","","fixation","","","2","6","","","","","","","","","",""
"","","","","","","","","","","","canvas-keyboard-response","221","351669","0.0-221.0","null","null","","","","","","","","","","","","","","stimulus","","","2","6","","","","","","","","","",""
"","","","","","","","","","","","canvas-button-response","222","353982","0.0-222.0","2311","car","","","","","","","","","","","","","","perceptual","","","2","6","","","","","22","house","10","0","0",""
"","","","","","","","","","","","canvas-button-response","223","355063","0.0-223.0","1079","3","","","","","","","","","","","","","","confidence","","","2","6","","","","","","","","","","6"
"","","","","","","","","","","","preload","224","355063","0.0-224.0","","","","","true","","","","","","","","","","","preload","","","2","7","false","[]","[]","[]","","","","","",""
"","","","","","","","","","","","canvas-keyboard-response","225","355365","0.0-225.0","null","null","","","","","","","","","","","","","","fixation","","","2","7","","","","","","","","","",""
"","","","","","","","","","","","canvas-keyboard-response","226","355668","0.0-226.0","null","null","","","","","","","","","","","","","","stimulus","","","2","7","","","","","","","","","",""
"","","","","","","","","","","","canvas-button-response","227","356713","0.0-227.0","1043","house","","","","","","","","","","","","","","perceptual","","","2","7","","","","","29","house","10","0","1",""
"","","","","","","","","","","","canvas-button-response","228","357297","0.0-228.0","582","3","","","","","","","","","","","","","","confidence","","","2","7","","","","","","","","","","7"
"","","","","","","","","","","","preload","229","357298","0.0-229.0","","","","","true","","","","","","","","","","","preload","","","2","8","false","[]","[]","[]","","","","","",""
"","","","","","","","","","","","canvas-keyboard-response","230","357599","0.0-230.0","null","null","","","","","","","","","","","","","","fixation","","","2","8","","","","","","","","","",""
"","","","","","","","","","","","canvas-keyboard-response","231","357902","0.0-231.0","null","null","","","","","","","","","","","","","","stimulus","","","2","8","","","","","","","","","",""
"","","","","","","","","","","","canvas-button-response","232","358913","0.0-232.0","1009","car","","","","","","","","","","","","","","perceptual","","","2","8","","","","","66","car","10","0","1",""
"","","","","","","","","","","","canvas-button-response","233","359614","0.0-233.0","699","6","","","","","","","","","","","","","","confidence","","","2","8","","","","","","","","","","8"
"","","","","","","","","","","","preload","234","359614","0.0-234.0","","","","","true","","","","","","","","","","","preload","","","2","9","false","[]","[]","[]","","","","","",""
"","","","","","","","","","","","canvas-keyboard-response","235","359916","0.0-235.0","null","null","","","","","","","","","","","","","","fixation","","","2","9","","","","","","","","","",""
"","","","","","","","","","","","canvas-keyboard-response","236","360219","0.0-236.0","null","null","","","","","","","","","","","","","","stimulus","","","2","9","","","","","","","","","",""
"","","","","","","","","","","","canvas-button-response","237","366846","0.0-237.0","6626","bed","","","","","","","","","","","","","","perceptual","","","2","9","","","","","141","bed","10","0","1",""
"","","","","","","","","","","","canvas-button-response","238","367763","0.0-238.0","914","1","","","","","","","","","","","","","","confidence","","","2","9","","","","","","","","","","9"
"","","","","","","","","","","","preload","239","367764","0.0-239.0","","","","","true","","","","","","","","","","","preload","","","2","10","false","[]","[]","[]","","","","","",""
"","","","","","","","","","","","canvas-keyboard-response","240","368066","0.0-240.0","null","null","","","","","","","","","","","","","","fixation","","","2","10","","","","","","","","","",""
"","","","","","","","","","","","canvas-keyboard-response","241","368368","0.0-241.0","null","null","","","","","","","","","","","","","","stimulus","","","2","10","","","","","","","","","",""
"","","","","","","","","","","","canvas-button-response","242","370797","0.0-242.0","2426","car","","","","","","","","","","","","","","perceptual","","","2","10","","","","","43","car","6","0","1",""
"","","","","","","","","","","","canvas-button-response","243","371880","0.0-243.0","1081","3","","","","","","","","","","","","","","confidence","","","2","10","","","","","","","","","","10"
"","","","","","","","","","","","preload","244","371881","0.0-244.0","","","","","true","","","","","","","","","","","preload","","","2","11","false","[]","[]","[]","","","","","",""
"","","","","","","","","","","","canvas-keyboard-response","245","372182","0.0-245.0","null","null","","","","","","","","","","","","","","fixation","","","2","11","","","","","","","","","",""
"","","","","","","","","","","","canvas-keyboard-response","246","372485","0.0-246.0","null","null","","","","","","","","","","","","","","stimulus","","","2","11","","","","","","","","","",""
"","","","","","","","","","","","canvas-button-response","247","373396","0.0-247.0","909","bed","","","","","","","","","","","","","","perceptual","","","2","11","","","","","156","bed","10","0","1",""
"","","","","","","","","","","","canvas-button-response","248","374611","0.0-248.0","1214","7","","","","","","","","","","","","","","confidence","","","2","11","","","","","","","","","","11"
"","","","","","","","","","","","preload","249","374612","0.0-249.0","","","","","true","","","","","","","","","","","preload","","","2","12","false","[]","[]","[]","","","","","",""
"","","","","","","","","","","","canvas-keyboard-response","250","374914","0.0-250.0","null","null","","","","","","","","","","","","","","fixation","","","2","12","","","","","","","","","",""
"","","","","","","","","","","","canvas-keyboard-response","251","375217","0.0-251.0","null","null","","","","","","","","","","","","","","stimulus","","","2","12","","","","","","","","","",""
"","","","","","","","","","","","canvas-button-response","252","376096","0.0-252.0","877","flower","","","","","","","","","","","","","","perceptual","","","2","12","","","","","239","flower","10","0","1",""
"","","","","","","","","","","","canvas-button-response","253","377113","0.0-253.0","1015","5","","","","","","","","","","","","","","confidence","","","2","12","","","","","","","","","","12"
"","","","","","","","","","","","preload","254","377114","0.0-254.0","","","","","true","","","","","","","","","","","preload","","","2","13","false","[]","[]","[]","","","","","",""
"","","","","","","","","","","","canvas-keyboard-response","255","377416","0.0-255.0","null","null","","","","","","","","","","","","","","fixation","","","2","13","","","","","","","","","",""
"","","","","","","","","","","","canvas-keyboard-response","256","377718","0.0-256.0","null","null","","","","","","","","","","","","","","stimulus","","","2","13","","","","","","","","","",""
"","","","","","","","","","","","canvas-button-response","257","378813","0.0-257.0","1093","house","","","","","","","","","","","","","","perceptual","","","2","13","","","","","16","house","6","0","1",""
"","","","","","","","","","","","canvas-button-response","258","379480","0.0-258.0","664","8","","","","","","","","","","","","","","confidence","","","2","13","","","","","","","","","","13"
"","","","","","","","","","","","preload","259","379480","0.0-259.0","","","","","true","","","","","","","","","","","preload","","","2","14","false","[]","[]","[]","","","","","",""
"","","","","","","","","","","","canvas-keyboard-response","260","379783","0.0-260.0","null","null","","","","","","","","","","","","","","fixation","","","2","14","","","","","","","","","",""
"","","","","","","","","","","","canvas-keyboard-response","261","380085","0.0-261.0","null","null","","","","","","","","","","","","","","stimulus","","","2","14","","","","","","","","","",""
"","","","","","","","","","","","canvas-button-response","262","380846","0.0-262.0","759","bed","","","","","","","","","","","","","","perceptual","","","2","14","","","","","120","bed","6","0","1",""
"","","","","","","","","","","","canvas-button-response","263","381630","0.0-263.0","781","10","","","","","","","","","","","","","","confidence","","","2","14","","","","","","","","","","14"
"","","","","","","","","","","","preload","264","381630","0.0-264.0","","","","","true","","","","","","","","","","","preload","","","2","15","false","[]","[]","[]","","","","","",""
"","","","","","","","","","","","canvas-keyboard-response","265","381933","0.0-265.0","null","null","","","","","","","","","","","","","","fixation","","","2","15","","","","","","","","","",""
"","","","","","","","","","","","canvas-keyboard-response","266","382236","0.0-266.0","null","null","","","","","","","","","","","","","","stimulus","","","2","15","","","","","","","","","",""
"","","","","","","","","","","","canvas-button-response","267","383146","0.0-267.0","908","car","","","","","","","","","","","","","","perceptual","","","2","15","","","","","48","car","6","0","1",""
"","","","","","","","","","","","canvas-button-response","268","383913","0.0-268.0","765","9","","","","","","","","","","","","","","confidence","","","2","15","","","","","","","","","","15"
"","","","","","","","","","","","preload","269","383914","0.0-269.0","","","","","true","","","","","","","","","","","preload","","","2","16","false","[]","[]","[]","","","","","",""
"","","","","","","","","","","","canvas-keyboard-response","270","384216","0.0-270.0","null","null","","","","","","","","","","","","","","fixation","","","2","16","","","","","","","","","",""
"","","","","","","","","","","","canvas-keyboard-response","271","384519","0.0-271.0","null","null","","","","","","","","","","","","","","stimulus","","","2","16","","","","","","","","","",""
"","","","","","","","","","","","canvas-button-response","272","391063","0.0-272.0","6542","knife","","","","","","","","","","","","","","perceptual","","","2","16","","","","","286","cat","6","0","0",""
"","","","","","","","","","","","canvas-button-response","273","392646","0.0-273.0","1581","1","","","","","","","","","","","","","","confidence","","","2","16","","","","","","","","","","15"
"","","","","","","","","","","","preload","274","392647","0.0-274.0","","","","","true","","","","","","","","","","","preload","","","2","17","false","[]","[]","[]","","","","","",""
"","","","","","","","","","","","canvas-keyboard-response","275","392950","0.0-275.0","null","null","","","","","","","","","","","","","","fixation","","","2","17","","","","","","","","","",""
"","","","","","","","","","","","canvas-keyboard-response","276","393253","0.0-276.0","null","null","","","","","","","","","","","","","","stimulus","","","2","17","","","","","","","","","",""
"","","","","","","","","","","","canvas-button-response","277","394896","0.0-277.0","1641","cat","","","","","","","","","","","","","","perceptual","","","2","17","","","","","311","cat","10","0","1",""
"","","","","","","","","","","","canvas-button-response","278","396096","0.0-278.0","1198","2","","","","","","","","","","","","","","confidence","","","2","17","","","","","","","","","","16"
"","","","","","","","","","","","preload","279","396097","0.0-279.0","","","","","true","","","","","","","","","","","preload","","","2","18","false","[]","[]","[]","","","","","",""
"","","","","","","","","","","","canvas-keyboard-response","280","396399","0.0-280.0","null","null","","","","","","","","","","","","","","fixation","","","2","18","","","","","","","","","",""
"","","","","","","","","","","","canvas-keyboard-response","281","396701","0.0-281.0","null","null","","","","","","","","","","","","","","stimulus","","","2","18","","","","","","","","","",""
"","","","","","","","","","","","canvas-button-response","282","397595","0.0-282.0","893","cat","","","","","","","","","","","","","","perceptual","","","2","18","","","","","304","cat","10","0","1",""
"","","","","","","","","","","","canvas-button-response","283","398646","0.0-283.0","1048","10","","","","","","","","","","","","","","confidence","","","2","18","","","","","","","","","","17"
"","","","","","","","","","","","preload","284","398647","0.0-284.0","","","","","true","","","","","","","","","","","preload","","","2","19","false","[]","[]","[]","","","","","",""
"","","","","","","","","","","","canvas-keyboard-response","285","398949","0.0-285.0","null","null","","","","","","","","","","","","","","fixation","","","2","19","","","","","","","","","",""
"","","","","","","","","","","","canvas-keyboard-response","286","399252","0.0-286.0","null","null","","","","","","","","","","","","","","stimulus","","","2","19","","","","","","","","","",""
"","","","","","","","","","","","canvas-button-response","287","400596","0.0-287.0","1341","bridge","","","","","","","","","","","","","","perceptual","","","2","19","","","","","323","elephant","6","0","0",""
"","","","","","","","","","","","canvas-button-response","288","401312","0.0-288.0","714","5","","","","","","","","","","","","","","confidence","","","2","19","","","","","","","","","","17"
"","","","","","","","","","","","preload","289","401313","0.0-289.0","","","","","true","","","","","","","","","","","preload","","","2","20","false","[]","[]","[]","","","","","",""
"","","","","","","","","","","","canvas-keyboard-response","290","401615","0.0-290.0","null","null","","","","","","","","","","","","","","fixation","","","2","20","","","","","","","","","",""
"","","","","","","","","","","","canvas-keyboard-response","291","401918","0.0-291.0","null","null","","","","","","","","","","","","","","stimulus","","","2","20","","","","","","","","","",""
"","","","","","","","","","","","canvas-button-response","292","403679","0.0-292.0","1759","phone","","","","","","","","","","","","","","perceptual","","","2","20","","","","","105","phone","10","0","1",""
"","","","","","","","","","","","canvas-button-response","293","404729","0.0-293.0","1048","3","","","","","","","","","","","","","","confidence","","","2","20","","","","","","","","","","18"
"","","","","","","","","","","","preload","294","404730","0.0-294.0","","","","","true","","","","","","","","","","","preload","","","2","21","false","[]","[]","[]","","","","","",""
"","","","","","","","","","","","canvas-keyboard-response","295","405032","0.0-295.0","null","null","","","","","","","","","","","","","","fixation","","","2","21","","","","","","","","","",""
"","","","","","","","","","","","canvas-keyboard-response","296","405333","0.0-296.0","null","null","","","","","","","","","","","","","","stimulus","","","2","21","","","","","","","","","",""
"","","","","","","","","","","","canvas-button-response","297","405962","0.0-297.0","627","flower","","","","","","","","","","","","","","perceptual","","","2","21","","","","","213","flower","6","0","1",""
"","","","","","","","","","","","canvas-button-response","298","406829","0.0-298.0","865","10","","","","","","","","","","","","","","confidence","","","2","21","","","","","","","","","","19"
"","","","","","","","","","","","preload","299","406830","0.0-299.0","","","","","true","","","","","","","","","","","preload","","","2","22","false","[]","[]","[]","","","","","",""
"","","","","","","","","","","","canvas-keyboard-response","300","407132","0.0-300.0","null","null","","","","","","","","","","","","","","fixation","","","2","22","","","","","","","","","",""
"","","","","","","","","","","","canvas-keyboard-response","301","407435","0.0-301.0","null","null","","","","","","","","","","","","","","stimulus","","","2","22","","","","","","","","","",""
"","","","","","","","","","","","canvas-button-response","302","416229","0.0-302.0","8792","knife","","","","","","","","","","","","","","perceptual","","","2","22","","","","","222","flower","10","0","0",""
"","","","","","","","","","","","canvas-button-response","303","417462","0.0-303.0","1231","1","","","","","","","","","","","","","","confidence","","","2","22","","","","","","","","","","19"
"","","","","","","","","","","","preload","304","417463","0.0-304.0","","","","","true","","","","","","","","","","","preload","","","2","23","false","[]","[]","[]","","","","","",""
"","","","","","","","","","","","canvas-keyboard-response","305","417765","0.0-305.0","null","null","","","","","","","","","","","","","","fixation","","","2","23","","","","","","","","","",""
"","","","","","","","","","","","canvas-keyboard-response","306","418068","0.0-306.0","null","null","","","","","","","","","","","","","","stimulus","","","2","23","","","","","","","","","",""
"","","","","","","","","","","","canvas-button-response","307","419129","0.0-307.0","1058","car","","","","","","","","","","","","","","perceptual","","","2","23","","","","","269","train","10","0","0",""
"","","","","","","","","","","","canvas-button-response","308","420295","0.0-308.0","1164","6","","","","","","","","","","","","","","confidence","","","2","23","","","","","","","","","","19"
"","","","","","","","","","","","preload","309","420296","0.0-309.0","","","","","true","","","","","","","","","","","preload","","","2","24","false","[]","[]","[]","","","","","",""
"","","","","","","","","","","","canvas-keyboard-response","310","420598","0.0-310.0","null","null","","","","","","","","","","","","","","fixation","","","2","24","","","","","","","","","",""
"","","","","","","","","","","","canvas-keyboard-response","311","420901","0.0-311.0","null","null","","","","","","","","","","","","","","stimulus","","","2","24","","","","","","","","","",""
"","","","","","","","","","","","canvas-button-response","312","422728","0.0-312.0","1825","bridge","","","","","","","","","","","","","","perceptual","","","2","24","","","","","260","train","10","0","0",""
"","","","","","","","","","","","canvas-button-response","313","423378","0.0-313.0","648","5","","","","","","","","","","","","","","confidence","","","2","24","","","","","","","","","","19"
"","","","","","","","","","","","preload","314","423379","0.0-314.0","","","","","true","","","","","","","","","","","preload","","","2","25","false","[]","[]","[]","","","","","",""
"","","","","","","","","","","","canvas-keyboard-response","315","423682","0.0-315.0","null","null","","","","","","","","","","","","","","fixation","","","2","25","","","","","","","","","",""
"","","","","","","","","","","","canvas-keyboard-response","316","423984","0.0-316.0","null","null","","","","","","","","","","","","","","stimulus","","","2","25","","","","","","","","","",""
"","","","","","","","","","","","canvas-button-response","317","425195","0.0-317.0","1208","bridge","","","","","","","","","","","","","","perceptual","","","2","25","","","","","187","bridge","10","0","1",""
"","","","","","","","","","","","canvas-button-response","318","425911","0.0-318.0","715","5","","","","","","","","","","","","","","confidence","","","2","25","","","","","","","","","","20"
"","","","","","","","","","","","preload","319","425912","0.0-319.0","","","","","true","","","","","","","","","","","preload","","","2","26","false","[]","[]","[]","","","","","",""
"","","","","","","","","","","","canvas-keyboard-response","320","426215","0.0-320.0","null","null","","","","","","","","","","","","","","fixation","","","2","26","","","","","","","","","",""
"","","","","","","","","","","","canvas-keyboard-response","321","426517","0.0-321.0","null","null","","","","","","","","","","","","","","stimulus","","","2","26","","","","","","","","","",""
"","","","","","","","","","","","canvas-button-response","322","430395","0.0-322.0","3875","bridge","","","","","","","","","","","","","","perceptual","","","2","26","","","","","193","bridge","10","0","1",""
"","","","","","","","","","","","canvas-button-response","323","431478","0.0-323.0","1081","1","","","","","","","","","","","","","","confidence","","","2","26","","","","","","","","","","21"
"","","","","","","","","","","","preload","324","431479","0.0-324.0","","","","","true","","","","","","","","","","","preload","","","2","27","false","[]","[]","[]","","","","","",""
"","","","","","","","","","","","canvas-keyboard-response","325","431782","0.0-325.0","null","null","","","","","","","","","","","","","","fixation","","","2","27","","","","","","","","","",""
"","","","","","","","","","","","canvas-keyboard-response","326","432085","0.0-326.0","null","null","","","","","","","","","","","","","","stimulus","","","2","27","","","","","","","","","",""
"","","","","","","","","","","","canvas-button-response","327","434695","0.0-327.0","2607","cat","","","","","","","","","","","","","","perceptual","","","2","27","","","","","86","phone","6","0","0",""
"","","","","","","","","","","","canvas-button-response","328","436828","0.0-328.0","2131","5","","","","","","","","","","","","","","confidence","","","2","27","","","","","","","","","","21"
"","","","","","","","","","","","preload","329","436829","0.0-329.0","","","","","true","","","","","","","","","","","preload","","","2","28","false","[]","[]","[]","","","","","",""
"","","","","","","","","","","","canvas-keyboard-response","330","437131","0.0-330.0","null","null","","","","","","","","","","","","","","fixation","","","2","28","","","","","","","","","",""
"","","","","","","","","","","","canvas-keyboard-response","331","437434","0.0-331.0","null","null","","","","","","","","","","","","","","stimulus","","","2","28","","","","","","","","","",""
"","","","","","","","","","","","canvas-button-response","332","438095","0.0-332.0","659","knife","","","","","","","","","","","","","","perceptual","","","2","28","","","","","362","knife","6","0","1",""
"","","","","","","","","","","","canvas-button-response","333","438878","0.0-333.0","781","10","","","","","","","","","","","","","","confidence","","","2","28","","","","","","","","","","22"
"","","","","","","","","","","","preload","334","438879","0.0-334.0","","","","","true","","","","","","","","","","","preload","","","2","29","false","[]","[]","[]","","","","","",""
"","","","","","","","","","","","canvas-keyboard-response","335","439181","0.0-335.0","null","null","","","","","","","","","","","","","","fixation","","","2","29","","","","","","","","","",""
"","","","","","","","","","","","canvas-keyboard-response","336","439483","0.0-336.0","null","null","","","","","","","","","","","","","","stimulus","","","2","29","","","","","","","","","",""
"","","","","","","","","","","","canvas-button-response","337","440911","0.0-337.0","1427","bed","","","","","","","","","","","","","","perceptual","","","2","29","","","","","147","bed","10","0","1",""
"","","","","","","","","","","","canvas-button-response","338","441845","0.0-338.0","932","4","","","","","","","","","","","","","","confidence","","","2","29","","","","","","","","","","23"
"","","","","","","","","","","","preload","339","441846","0.0-339.0","","","","","true","","","","","","","","","","","preload","","","2","30","false","[]","[]","[]","","","","","",""
"","","","","","","","","","","","canvas-keyboard-response","340","442147","0.0-340.0","null","null","","","","","","","","","","","","","","fixation","","","2","30","","","","","","","","","",""
"","","","","","","","","","","","canvas-keyboard-response","341","442450","0.0-341.0","null","null","","","","","","","","","","","","","","stimulus","","","2","30","","","","","","","","","",""
"","","","","","","","","","","","canvas-button-response","342","443611","0.0-342.0","1159","knife","","","","","","","","","","","","","","perceptual","","","2","30","","","","","327","elephant","6","0","0",""
"","","","","","","","","","","","canvas-button-response","343","444828","0.0-343.0","1215","2","","","","","","","","","","","","","","confidence","","","2","30","","","","","","","","","","23"
"","","","","","","","","","","","preload","344","444829","0.0-344.0","","","","","true","","","","","","","","","","","preload","","","2","31","false","[]","[]","[]","","","","","",""
"","","","","","","","","","","","canvas-keyboard-response","345","445131","0.0-345.0","null","null","","","","","","","","","","","","","","fixation","","","2","31","","","","","","","","","",""
"","","","","","","","","","","","canvas-keyboard-response","346","445433","0.0-346.0","null","null","","","","","","","","","","","","","","stimulus","","","2","31","","","","","","","","","",""
"","","","","","","","","","","","canvas-button-response","347","453161","0.0-347.0","7726","knife","","","","","","","","","","","","","","perceptual","","","2","31","","","","","128","bed","6","0","0",""
"","","","","","","","","","","","canvas-button-response","348","453977","0.0-348.0","815","1","","","","","","","","","","","","","","confidence","","","2","31","","","","","","","","","","23"
"","","","","","","","","","","","preload","349","453978","0.0-349.0","","","","","true","","","","","","","","","","","preload","","","2","32","false","[]","[]","[]","","","","","",""
"","","","","","","","","","","","canvas-keyboard-response","350","454281","0.0-350.0","null","null","","","","","","","","","","","","","","fixation","","","2","32","","","","","","","","","",""
"","","","","","","","","","","","canvas-keyboard-response","351","454583","0.0-351.0","null","null","","","","","","","","","","","","","","stimulus","","","2","32","","","","","","","","","",""
"","","","","","","","","","","","canvas-button-response","352","455694","0.0-352.0","1109","train","","","","","","","","","","","","","","perceptual","","","2","32","","","","","261","train","10","0","1",""
"","","","","","","","","","","","canvas-button-response","353","456361","0.0-353.0","664","6","","","","","","","","","","","","","","confidence","","","2","32","","","","","","","","","","24"
"","","","","","","","","","","","preload","354","456362","0.0-354.0","","","","","true","","","","","","","","","","","preload","","","2","33","false","[]","[]","[]","","","","","",""
"","","","","","","","","","","","canvas-keyboard-response","355","456664","0.0-355.0","null","null","","","","","","","","","","","","","","fixation","","","2","33","","","","","","","","","",""
"","","","","","","","","","","","canvas-keyboard-response","356","456966","0.0-356.0","null","null","","","","","","","","","","","","","","stimulus","","","2","33","","","","","","","","","",""
"","","","","","","","","","","","canvas-button-response","357","458077","0.0-357.0","1108","house","","","","","","","","","","","","","","perceptual","","","2","33","","","","","263","train","10","0","0",""
"","","","","","","","","","","","canvas-button-response","358","458844","0.0-358.0","765","2","","","","","","","","","","","","","","confidence","","","2","33","","","","","","","","","","24"
"","","","","","","","","","","","preload","359","458845","0.0-359.0","","","","","true","","","","","","","","","","","preload","","","2","34","false","[]","[]","[]","","","","","",""
"","","","","","","","","","","","canvas-keyboard-response","360","459148","0.0-360.0","null","null","","","","","","","","","","","","","","fixation","","","2","34","","","","","","","","","",""
"","","","","","","","","","","","canvas-keyboard-response","361","459450","0.0-361.0","null","null","","","","","","","","","","","","","","stimulus","","","2","34","","","","","","","","","",""
"","","","","","","","","","","","canvas-button-response","362","460077","0.0-362.0","625","flower","","","","","","","","","","","","","","perceptual","","","2","34","","","","","232","flower","10","0","1",""
"","","","","","","","","","","","canvas-button-response","363","461344","0.0-363.0","1265","7","","","","","","","","","","","","","","confidence","","","2","34","","","","","","","","","","25"
"","","","","","","","","","","","preload","364","461345","0.0-364.0","","","","","true","","","","","","","","","","","preload","","","2","35","false","[]","[]","[]","","","","","",""
"","","","","","","","","","","","canvas-keyboard-response","365","461647","0.0-365.0","null","null","","","","","","","","","","","","","","fixation","","","2","35","","","","","","","","","",""
"","","","","","","","","","","","canvas-keyboard-response","366","461949","0.0-366.0","null","null","","","","","","","","","","","","","","stimulus","","","2","35","","","","","","","","","",""
"","","","","","","","","","","","canvas-button-response","367","462761","0.0-367.0","809","train","","","","","","","","","","","","","","perceptual","","","2","35","","","","","243","train","6","0","1",""
"","","","","","","","","","","","canvas-button-response","368","464244","0.0-368.0","1482","10","","","","","","","","","","","","","","confidence","","","2","35","","","","","","","","","","26"
"","","","","","","","","","","","preload","369","464245","0.0-369.0","","","","","true","","","","","","","","","","","preload","","","2","36","false","[]","[]","[]","","","","","",""
"","","","","","","","","","","","canvas-keyboard-response","370","464547","0.0-370.0","null","null","","","","","","","","","","","","","","fixation","","","2","36","","","","","","","","","",""
"","","","","","","","","","","","canvas-keyboard-response","371","464850","0.0-371.0","null","null","","","","","","","","","","","","","","stimulus","","","2","36","","","","","","","","","",""
"","","","","","","","","","","","canvas-button-response","372","467044","0.0-372.0","2192","bed","","","","","","","","","","","","","","perceptual","","","2","36","","","","","218","flower","6","0","0",""
"","","","","","","","","","","","canvas-button-response","373","467744","0.0-373.0","698","2","","","","","","","","","","","","","","confidence","","","2","36","","","","","","","","","","26"
"","","","","","","","","","","","preload","374","467744","0.0-374.0","","","","","true","","","","","","","","","","","preload","","","2","37","false","[]","[]","[]","","","","","",""
"","","","","","","","","","","","canvas-keyboard-response","375","468046","0.0-375.0","null","null","","","","","","","","","","","","","","fixation","","","2","37","","","","","","","","","",""
"","","","","","","","","","","","canvas-keyboard-response","376","468348","0.0-376.0","null","null","","","","","","","","","","","","","","stimulus","","","2","37","","","","","","","","","",""
"","","","","","","","","","","","canvas-button-response","377","471410","0.0-377.0","3060","flower","","","","","","","","","","","","","","perceptual","","","2","37","","","","","214","flower","6","0","1",""
"","","","","","","","","","","","canvas-button-response","378","472327","0.0-378.0","915","4","","","","","","","","","","","","","","confidence","","","2","37","","","","","","","","","","27"
"","","","","","","","","","","","preload","379","472328","0.0-379.0","","","","","true","","","","","","","","","","","preload","","","2","38","false","[]","[]","[]","","","","","",""
"","","","","","","","","","","","canvas-keyboard-response","380","472630","0.0-380.0","null","null","","","","","","","","","","","","","","fixation","","","2","38","","","","","","","","","",""
"","","","","","","","","","","","canvas-keyboard-response","381","472933","0.0-381.0","null","null","","","","","","","","","","","","","","stimulus","","","2","38","","","","","","","","","",""
"","","","","","","","","","","","canvas-button-response","382","473860","0.0-382.0","925","car","","","","","","","","","","","","","","perceptual","","","2","38","","","","","47","car","6","0","1",""
"","","","","","","","","","","","canvas-button-response","383","474478","0.0-383.0","615","10","","","","","","","","","","","","","","confidence","","","2","38","","","","","","","","","","28"
"","","","","","","","","","","","preload","384","474479","0.0-384.0","","","","","true","","","","","","","","","","","preload","","","2","39","false","[]","[]","[]","","","","","",""
"","","","","","","","","","","","canvas-keyboard-response","385","474780","0.0-385.0","null","null","","","","","","","","","","","","","","fixation","","","2","39","","","","","","","","","",""
"","","","","","","","","","","","canvas-keyboard-response","386","475083","0.0-386.0","null","null","","","","","","","","","","","","","","stimulus","","","2","39","","","","","","","","","",""
"","","","","","","","","","","","canvas-button-response","387","478393","0.0-387.0","3308","house","","","","","","","","","","","","","","perceptual","","","2","39","","","","","33","house","10","0","1",""
"","","","","","","","","","","","canvas-button-response","388","479227","0.0-388.0","832","3","","","","","","","","","","","","","","confidence","","","2","39","","","","","","","","","","29"
"","","","","","","","","","","","preload","389","479228","0.0-389.0","","","","","true","","","","","","","","","","","preload","","","2","40","false","[]","[]","[]","","","","","",""
"","","","","","","","","","","","canvas-keyboard-response","390","479530","0.0-390.0","null","null","","","","","","","","","","","","","","fixation","","","2","40","","","","","","","","","",""
"","","","","","","","","","","","canvas-keyboard-response","391","479833","0.0-391.0","null","null","","","","","","","","","","","","","","stimulus","","","2","40","","","","","","","","","",""
"","","","","","","","","","","","canvas-button-response","392","480761","0.0-392.0","926","house","","","","","","","","","","","","","","perceptual","","","2","40","","","","","181","bridge","10","0","0",""
"","","","","","","","","","","","canvas-button-response","393","481594","0.0-393.0","831","2","","","","","","","","","","","","","","confidence","","","2","40","","","","","","","","","","29"
"","","","","","","","","","","","preload","394","481594","0.0-394.0","","","","","true","","","","","","","","","","","preload","","","2","41","false","[]","[]","[]","","","","","",""
"","","","","","","","","","","","canvas-keyboard-response","395","481896","0.0-395.0","null","null","","","","","","","","","","","","","","fixation","","","2","41","","","","","","","","","",""
"","","","","","","","","","","","canvas-keyboard-response","396","482200","0.0-396.0","null","null","","","","","","","","","","","","","","stimulus","","","2","41","","","","","","","","","",""
"","","","","","","","","","","","canvas-button-response","397","484043","0.0-397.0","1842","flower","","","","","","","","","","","","","","perceptual","","","2","41","","","","","235","flower","10","0","1",""
"","","","","","","","","","","","canvas-button-response","398","484676","0.0-398.0","631","1","","","","","","","","","","","","","","confidence","","","2","41","","","","","","","","","","30"
"","","","","","","","","","","","preload","399","484677","0.0-399.0","","","","","true","","","","","","","","","","","preload","","","2","42","false","[]","[]","[]","","","","","",""
"","","","","","","","","","","","canvas-keyboard-response","400","484980","0.0-400.0","null","null","","","","","","","","","","","","","","fixation","","","2","42","","","","","","","","","",""
"","","","","","","","","","","","canvas-keyboard-response","401","485282","0.0-401.0","null","null","","","","","","","","","","","","","","stimulus","","","2","42","","","","","","","","","",""
"","","","","","","","","","","","canvas-button-response","402","486360","0.0-402.0","1075","bridge","","","","","","","","","","","","","","perceptual","","","2","42","","","","","166","bridge","6","0","1",""
"","","","","","","","","","","","canvas-button-response","403","488610","0.0-403.0","2248","6","","","","","","","","","","","","","","confidence","","","2","42","","","","","","","","","","31"
"","","","","","","","","","","","preload","404","488611","0.0-404.0","","","","","true","","","","","","","","","","","preload","","","2","43","false","[]","[]","[]","","","","","",""
"","","","","","","","","","","","canvas-keyboard-response","405","488914","0.0-405.0","null","null","","","","","","","","","","","","","","fixation","","","2","43","","","","","","","","","",""
"","","","","","","","","","","","canvas-keyboard-response","406","489217","0.0-406.0","null","null","","","","","","","","","","","","","","stimulus","","","2","43","","","","","","","","","",""
"","","","","","","","","","","","canvas-button-response","407","490010","0.0-407.0","791","phone","","","","","","","","","","","","","","perceptual","","","2","43","","","","","117","phone","10","0","1",""
"","","","","","","","","","","","canvas-button-response","408","491557","0.0-408.0","1466","8","","","","","","","","","","","","","","confidence","","","2","43","","","","","","","","","","32"
"","","","","","","","","","","","preload","409","491558","0.0-409.0","","","","","true","","","","","","","","","","","preload","","","2","44","false","[]","[]","[]","","","","","",""
"","","","","","","","","","","","canvas-keyboard-response","410","491860","0.0-410.0","null","null","","","","","","","","","","","","","","fixation","","","2","44","","","","","","","","","",""
"","","","","","","","","","","","canvas-keyboard-response","411","492163","0.0-411.0","null","null","","","","","","","","","","","","","","stimulus","","","2","44","","","","","","","","","",""
"","","","","","","","","","","","canvas-button-response","412","493256","0.0-412.0","1091","car","","","","","","","","","","","","","","perceptual","","","2","44","","","","","49","car","6","0","1",""
"","","","","","","","","","","","canvas-button-response","413","493923","0.0-413.0","665","9","","","","","","","","","","","","","","confidence","","","2","44","","","","","","","","","","33"
"","","","","","","","","","","","preload","414","493924","0.0-414.0","","","","","true","","","","","","","","","","","preload","","","2","45","false","[]","[]","[]","","","","","",""
"","","","","","","","","","","","canvas-keyboard-response","415","494226","0.0-415.0","null","null","","","","","","","","","","","","","","fixation","","","2","45","","","","","","","","","",""
"","","","","","","","","","","","canvas-keyboard-response","416","494528","0.0-416.0","null","null","","","","","","","","","","","","","","stimulus","","","2","45","","","","","","","","","",""
"","","","","","","","","","","","canvas-button-response","417","495306","0.0-417.0","775","train","","","","","","","","","","","","","","perceptual","","","2","45","","","","","241","train","6","0","1",""
"","","","","","","","","","","","canvas-button-response","418","496123","0.0-418.0","815","10","","","","","","","","","","","","","","confidence","","","2","45","","","","","","","","","","34"
"","","","","","","","","","","","preload","419","496124","0.0-419.0","","","","","true","","","","","","","","","","","preload","","","2","46","false","[]","[]","[]","","","","","",""
"","","","","","","","","","","","canvas-keyboard-response","420","496426","0.0-420.0","null","null","","","","","","","","","","","","","","fixation","","","2","46","","","","","","","","","",""
"","","","","","","","","","","","canvas-keyboard-response","421","496729","0.0-421.0","null","null","","","","","","","","","","","","","","stimulus","","","2","46","","","","","","","","","",""
"","","","","","","","","","","","canvas-button-response","422","498639","0.0-422.0","1908","cat","","","","","","","","","","","","","","perceptual","","","2","46","","","","","307","cat","10","0","1",""
"","","","","","","","","","","","canvas-button-response","423","499740","0.0-423.0","1098","3","","","","","","","","","","","","","","confidence","","","2","46","","","","","","","","","","35"
"","","","","","","","","","","","preload","424","499741","0.0-424.0","","","","","true","","","","","","","","","","","preload","","","2","47","false","[]","[]","[]","","","","","",""
"","","","","","","","","","","","canvas-keyboard-response","425","500042","0.0-425.0","null","null","","","","","","","","","","","","","","fixation","","","2","47","","","","","","","","","",""
"","","","","","","","","","","","canvas-keyboard-response","426","500345","0.0-426.0","null","null","","","","","","","","","","","","","","stimulus","","","2","47","","","","","","","","","",""
"","","","","","","","","","","","canvas-button-response","427","501273","0.0-427.0","925","train","","","","","","","","","","","","","","perceptual","","","2","47","","","","","271","train","10","0","1",""
"","","","","","","","","","","","canvas-button-response","428","502222","0.0-428.0","948","10","","","","","","","","","","","","","","confidence","","","2","47","","","","","","","","","","36"
"","","","","","","","","","","","preload","429","502223","0.0-429.0","","","","","true","","","","","","","","","","","preload","","","2","48","false","[]","[]","[]","","","","","",""
"","","","","","","","","","","","canvas-keyboard-response","430","502526","0.0-430.0","null","null","","","","","","","","","","","","","","fixation","","","2","48","","","","","","","","","",""
"","","","","","","","","","","","canvas-keyboard-response","431","502828","0.0-431.0","null","null","","","","","","","","","","","","","","stimulus","","","2","48","","","","","","","","","",""
"","","","","","","","","","","","canvas-button-response","432","503739","0.0-432.0","909","phone","","","","","","","","","","","","","","perceptual","","","2","48","","","","","88","phone","6","0","1",""
"","","","","","","","","","","","canvas-button-response","433","504606","0.0-433.0","865","10","","","","","","","","","","","","","","confidence","","","2","48","","","","","","","","","","37"
"","","","","","","","","","","","preload","434","504607","0.0-434.0","","","","","true","","","","","","","","","","","preload","","","2","49","false","[]","[]","[]","","","","","",""
"","","","","","","","","","","","canvas-keyboard-response","435","504909","0.0-435.0","null","null","","","","","","","","","","","","","","fixation","","","2","49","","","","","","","","","",""
"","","","","","","","","","","","canvas-keyboard-response","436","505212","0.0-436.0","null","null","","","","","","","","","","","","","","stimulus","","","2","49","","","","","","","","","",""
"","","","","","","","","","","","canvas-button-response","437","506906","0.0-437.0","1692","elephant","","","","","","","","","","","","","","perceptual","","","2","49","","","","","353","elephant","10","0","1",""
"","","","","","","","","","","","canvas-button-response","438","508239","0.0-438.0","1332","2","","","","","","","","","","","","","","confidence","","","2","49","","","","","","","","","","38"
"","","","","","","","","","","","html-button-response","439","514689","0.0-439.0","6447","0","","","","","","","","","","","","","","<p style=""font-size:20px;color:#000000"">You got 38 out of 50 trials correct in this block.<br><br>You have completed 6% of the experiment.<br><br>Take a short break.<br><br>When you are ready, click Continue to proceed.","","","2","49","","","","","","","","","",""
"","","","","","","","","","","","html-keyboard-response","440","515693","0.0-440.0","null","null","","","","","","","","","","","","","","<p style=""font-size:32px;color:#000000""><br><br> RUN: &nbsp 1/4 <br><br> BLOCK: 2/4 ","","","2","49","","","","","","","","","",""
"","","","","","","","","","","","preload","441","515694","0.0-441.0","","","","","true","","","","","","","","","","","preload","","","2","50","false","[]","[]","[]","","","","","",""
"","","","","","","","","","","","canvas-keyboard-response","442","515997","0.0-442.0","null","null","","","","","","","","","","","","","","fixation","","","2","50","","","","","","","","","",""
"","","","","","","","","","","","canvas-keyboard-response","443","516299","0.0-443.0","null","null","","","","","","","","","","","","","","stimulus","","","2","50","","","","","","","","","",""
"","","","","","","","","","","","canvas-button-response","444","518039","0.0-444.0","1738","bridge","","","","","","","","","","","","","","perceptual","","","2","50","","","","","185","bridge","10","0","1",""
"","","","","","","","","","","","canvas-button-response","445","518989","0.0-445.0","948","1","","","","","","","","","","","","","","confidence","","","2","50","","","","","","","","","","1"
"","","","","","","","","","","","preload","446","518990","0.0-446.0","","","","","true","","","","","","","","","","","preload","","","2","51","false","[]","[]","[]","","","","","",""
"","","","","","","","","","","","canvas-keyboard-response","447","519293","0.0-447.0","null","null","","","","","","","","","","","","","","fixation","","","2","51","","","","","","","","","",""
"","","","","","","","","","","","canvas-keyboard-response","448","519595","0.0-448.0","null","null","","","","","","","","","","","","","","stimulus","","","2","51","","","","","","","","","",""
"","","","","","","","","","","","canvas-button-response","449","520673","0.0-449.0","1076","bridge","","","","","","","","","","","","","","perceptual","","","2","51","","","","","175","bridge","6","0","1",""
"","","","","","","","","","","","canvas-button-response","450","521423","0.0-450.0","748","10","","","","","","","","","","","","","","confidence","","","2","51","","","","","","","","","","2"
"","","","","","","","","","","","preload","451","521424","0.0-451.0","","","","","true","","","","","","","","","","","preload","","","2","52","false","[]","[]","[]","","","","","",""
"","","","","","","","","","","","canvas-keyboard-response","452","521726","0.0-452.0","null","null","","","","","","","","","","","","","","fixation","","","2","52","","","","","","","","","",""
"","","","","","","","","","","","canvas-keyboard-response","453","522029","0.0-453.0","null","null","","","","","","","","","","","","","","stimulus","","","2","52","","","","","","","","","",""
"","","","","","","","","","","","canvas-button-response","454","523323","0.0-454.0","1292","phone","","","","","","","","","","","","","","perceptual","","","2","52","","","","","189","bridge","10","0","0",""
"","","","","","","","","","","","canvas-button-response","455","524006","0.0-455.0","681","2","","","","","","","","","","","","","","confidence","","","2","52","","","","","","","","","","2"
"","","","","","","","","","","","preload","456","524007","0.0-456.0","","","","","true","","","","","","","","","","","preload","","","2","53","false","[]","[]","[]","","","","","",""
"","","","","","","","","","","","canvas-keyboard-response","457","524309","0.0-457.0","null","null","","","","","","","","","","","","","","fixation","","","2","53","","","","","","","","","",""
"","","","","","","","","","","","canvas-keyboard-response","458","524612","0.0-458.0","null","null","","","","","","","","","","","","","","stimulus","","","2","53","","","","","","","","","",""
"","","","","","","","","","","","canvas-button-response","459","525372","0.0-459.0","759","flower","","","","","","","","","","","","","","perceptual","","","2","53","","","","","200","flower","6","0","1",""
"","","","","","","","","","","","canvas-button-response","460","526173","0.0-460.0","798","1","","","","","","","","","","","","","","confidence","","","2","53","","","","","","","","","","3"
"","","","","","","","","","","","preload","461","526174","0.0-461.0","","","","","true","","","","","","","","","","","preload","","","2","54","false","[]","[]","[]","","","","","",""
"","","","","","","","","","","","canvas-keyboard-response","462","526476","0.0-462.0","null","null","","","","","","","","","","","","","","fixation","","","2","54","","","","","","","","","",""
"","","","","","","","","","","","canvas-keyboard-response","463","526779","0.0-463.0","null","null","","","","","","","","","","","","","","stimulus","","","2","54","","","","","","","","","",""
"","","","","","","","","","","","canvas-button-response","464","528273","0.0-464.0","1492","car","","","","","","","","","","","","","","perceptual","","","2","54","","","","","40","car","6","0","1",""
"","","","","","","","","","","","canvas-button-response","465","528840","0.0-465.0","565","6","","","","","","","","","","","","","","confidence","","","2","54","","","","","","","","","","4"
"","","","","","","","","","","","preload","466","528841","0.0-466.0","","","","","true","","","","","","","","","","","preload","","","2","55","false","[]","[]","[]","","","","","",""
"","","","","","","","","","","","canvas-keyboard-response","467","529143","0.0-467.0","null","null","","","","","","","","","","","","","","fixation","","","2","55","","","","","","","","","",""
"","","","","","","","","","","","canvas-keyboard-response","468","529446","0.0-468.0","null","null","","","","","","","","","","","","","","stimulus","","","2","55","","","","","","","","","",""
"","","","","","","","","","","","canvas-button-response","469","531439","0.0-469.0","1991","knife","","","","","","","","","","","","","","perceptual","","","2","55","","","","","155","bed","10","0","0",""
"","","","","","","","","","","","canvas-button-response","470","532223","0.0-470.0","783","1","","","","","","","","","","","","","","confidence","","","2","55","","","","","","","","","","4"
"","","","","","","","","","","","preload","471","532224","0.0-471.0","","","","","true","","","","","","","","","","","preload","","","2","56","false","[]","[]","[]","","","","","",""
"","","","","","","","","","","","canvas-keyboard-response","472","532527","0.0-472.0","null","null","","","","","","","","","","","","","","fixation","","","2","56","","","","","","","","","",""
"","","","","","","","","","","","canvas-keyboard-response","473","532830","0.0-473.0","null","null","","","","","","","","","","","","","","stimulus","","","2","56","","","","","","","","","",""
"","","","","","","","","","","","canvas-button-response","474","533772","0.0-474.0","941","phone","","","","","","","","","","","","","","perceptual","","","2","56","","","","","103","phone","10","0","1",""
"","","","","","","","","","","","canvas-button-response","475","534540","0.0-475.0","765","8","","","","","","","","","","","","","","confidence","","","2","56","","","","","","","","","","5"
"","","","","","","","","","","","preload","476","534541","0.0-476.0","","","","","true","","","","","","","","","","","preload","","","2","57","false","[]","[]","[]","","","","","",""
"","","","","","","","","","","","canvas-keyboard-response","477","534842","0.0-477.0","null","null","","","","","","","","","","","","","","fixation","","","2","57","","","","","","","","","",""
"","","","","","","","","","","","canvas-keyboard-response","478","535144","0.0-478.0","null","null","","","","","","","","","","","","","","stimulus","","","2","57","","","","","","","","","",""
"","","","","","","","","","","","canvas-button-response","479","536656","0.0-479.0","1510","cat","","","","","","","","","","","","","","perceptual","","","2","57","","","","","308","cat","10","0","1",""
"","","","","","","","","","","","canvas-button-response","480","537640","0.0-480.0","982","1","","","","","","","","","","","","","","confidence","","","2","57","","","","","","","","","","6"
"","","","","","","","","","","","preload","481","537641","0.0-481.0","","","","","true","","","","","","","","","","","preload","","","2","58","false","[]","[]","[]","","","","","",""
"","","","","","","","","","","","canvas-keyboard-response","482","537943","0.0-482.0","null","null","","","","","","","","","","","","","","fixation","","","2","58","","","","","","","","","",""
"","","","","","","","","","","","canvas-keyboard-response","483","538246","0.0-483.0","null","null","","","","","","","","","","","","","","stimulus","","","2","58","","","","","","","","","",""
"","","","","","","","","","","","canvas-button-response","484","540640","0.0-484.0","2391","knife","","","","","","","","","","","","","","perceptual","","","2","58","","","","","320","elephant","6","0","0",""
"","","","","","","","","","","","canvas-button-response","485","542056","0.0-485.0","1414","1","","","","","","","","","","","","","","confidence","","","2","58","","","","","","","","","","6"
"","","","","","","","","","","","preload","486","542057","0.0-486.0","","","","","true","","","","","","","","","","","preload","","","2","59","false","[]","[]","[]","","","","","",""
"","","","","","","","","","","","canvas-keyboard-response","487","542359","0.0-487.0","null","null","","","","","","","","","","","","","","fixation","","","2","59","","","","","","","","","",""
"","","","","","","","","","","","canvas-keyboard-response","488","542662","0.0-488.0","null","null","","","","","","","","","","","","","","stimulus","","","2","59","","","","","","","","","",""
"","","","","","","","","","","","canvas-button-response","489","543456","0.0-489.0","792","knife","","","","","","","","","","","","","","perceptual","","","2","59","","","","","380","knife","10","0","1",""
"","","","","","","","","","","","canvas-button-response","490","544374","0.0-490.0","915","8","","","","","","","","","","","","","","confidence","","","2","59","","","","","","","","","","7"
"","","","","","","","","","","","preload","491","544375","0.0-491.0","","","","","true","","","","","","","","","","","preload","","","2","60","false","[]","[]","[]","","","","","",""
