"width","height","webaudio","browser","browser_version","mobile","os","fullscreen","vsync_rate","webcam","microphone","trial_type","trial_index","time_elapsed","internal_node_id","rt","response","accuracy","view_history","success","item_width_mm","item_height_mm","item_width_px","px2mm","view_dist_mm","item_width_deg","px2deg","scale_factor","win_width_deg","win_height_deg","stimulus","datetime","subjectID","curr_triallist","trial_no","timeout","failed_images","failed_audio","failed_video","image_index","category","blur","reps","correct","running_score"
"1470","732","true","chrome","140.0.0","false","Mac OS","true","60","true","true","browser-check","0","1013","0.0-0.0","","","","","","","","","","","","","","","","","","","","","","","","","","","","","",""
"","","","","","","","","","","","survey","1","33054","0.0-1.0","32005","{""P0_Q0"":""903865324"",""P0_Q1"":""20"",""P1_Q0"":""Female"",""P1_Q1"":""Not Hispanic or Latino"",""P1_Q2"":""Asian"",""P1_Q3"":""Normal"",""P1_Q4"":""Right-Handed""}","[]","","","","","","","","","","","","","","","","","","","","","","","","","","",""
"","","","","","","","","","","","instructions","2","59138","0.0-2.0","26083","","","[{""page_index"":0,""viewing_time"":5682},{""page_index"":1,""viewing_time"":9549},{""page_index"":2,""viewing_time"":9684},{""page_index"":3,""viewing_time"":1167}]","","","","","","","","","","","","","","","","","","","","","","","","","",""
"","","","","","","","","","","","fullscreen","3","62224","0.0-3.0","2081","","","","true","","","","","","","","","","","","","","","","","","","","","","","","",""
"","","","","","","","","","","","virtual-chinrest","4","144986","0.0-4.0","82758","","","","","85.6","53.98","225.0281125168743","2.6313355948769512","652.92","7.50093708389581","30","1.9419795825165198","49","30.633333333333333","","","","","","","","","","","","","","",""
"","","","","","","","","","","","instructions","5","186236","0.0-5.0","41249","","","[{""page_index"":0,""viewing_time"":4385},{""page_index"":1,""viewing_time"":10598},{""page_index"":0,""viewing_time"":8283},{""page_index"":1,""viewing_time"":3735},{""page_index"":2,""viewing_time"":5784},{""page_index"":3,""viewing_time"":1999},{""page_index"":4,""viewing_time"":3635},{""page_index"":5,""viewing_time"":1600},{""page_index"":6,""viewing_time"":1232}]","","","","","","","","","","","","","","","","","","","","","","","","","",""
"","","","","","","","","","","","html-button-response","6","191706","0.0-6.0","5468","0","","","","","","","","","","","","","","start_practice","Sat Oct 18 2025 17:26:39 GMT-0400 (Eastern Daylight Time)","27787","","","","","","","","","","","",""
"","","","","","","","","","","","preload","7","191708","0.0-7.0","","","","","true","","","","","","","","","","","preload","","","0","0","false","[]","[]","[]","","","","","",""
"","","","","","","","","","","","canvas-keyboard-response","8","192013","0.0-8.0","null","null","","","","","","","","","","","","","","fixation","","","0","0","","","","","","","","","",""
"","","","","","","","","","","","canvas-keyboard-response","9","192317","0.0-9.0","null","null","","","","","","","","","","","","","","stimulus","","","0","0","","","","","","","","","",""
"","","","","","","","","","","","canvas-button-response","10","205789","0.0-10.0","13471","bridge","","","","","","","","","","","","","","perceptual","","","0","0","","","","","42","bridge","1","","1",""
"","","","","","","","","","","","canvas-button-response","11","209088","0.0-11.0","3296","1","","","","","","","","","","","","","","confidence","","","0","0","","","","","","","","","","1"
"","","","","","","","","","","","html-keyboard-response","12","210093","0.0-12.0","null","null","","","","","","","","","","","","","","feedback","Sat Oct 18 2025 17:27:02 GMT-0400 (Eastern Daylight Time)","27787","0","0","","","","","","","","","",""
"","","","","","","","","","","","preload","13","210094","0.0-13.0","","","","","true","","","","","","","","","","","preload","","","0","1","false","[]","[]","[]","","","","","",""
"","","","","","","","","","","","canvas-keyboard-response","14","210397","0.0-14.0","null","null","","","","","","","","","","","","","","fixation","","","0","1","","","","","","","","","",""
"","","","","","","","","","","","canvas-keyboard-response","15","210700","0.0-15.0","null","null","","","","","","","","","","","","","","stimulus","","","0","1","","","","","","","","","",""
"","","","","","","","","","","","canvas-button-response","16","218707","0.0-16.0","8004","house","","","","","","","","","","","","","","perceptual","","","0","1","","","","","82","elephant","1","","0",""
"","","","","","","","","","","","canvas-button-response","17","220123","0.0-17.0","1414","2","","","","","","","","","","","","","","confidence","","","0","1","","","","","","","","","","1"
"","","","","","","","","","","","html-keyboard-response","18","221125","0.0-18.0","null","null","","","","","","","","","","","","","","feedback","Sat Oct 18 2025 17:27:13 GMT-0400 (Eastern Daylight Time)","27787","0","1","","","","","","","","","",""
"","","","","","","","","","","","preload","19","221126","0.0-19.0","","","","","true","","","","","","","","","","","preload","","","0","2","false","[]","[]","[]","","","","","",""
"","","","","","","","","","","","canvas-keyboard-response","20","221429","0.0-20.0","null","null","","","","","","","","","","","","","","fixation","","","0","2","","","","","","","","","",""
"","","","","","","","","","","","canvas-keyboard-response","21","221732","0.0-21.0","null","null","","","","","","","","","","","","","","stimulus","","","0","2","","","","","","","","","",""
"","","","","","","","","","","","canvas-button-response","22","223389","0.0-22.0","1653","train","","","","","","","","","","","","","","perceptual","","","0","2","","","","","62","train","1","","1",""
"","","","","","","","","","","","canvas-button-response","23","224655","0.0-23.0","1264","9","","","","","","","","","","","","","","confidence","","","0","2","","","","","","","","","","2"
"","","","","","","","","","","","html-keyboard-response","24","225657","0.0-24.0","null","null","","","","","","","","","","","","","","feedback","Sat Oct 18 2025 17:27:17 GMT-0400 (Eastern Daylight Time)","27787","0","2","","","","","","","","","",""
"","","","","","","","","","","","preload","25","225658","0.0-25.0","","","","","true","","","","","","","","","","","preload","","","0","3","false","[]","[]","[]","","","","","",""
"","","","","","","","","","","","canvas-keyboard-response","26","225961","0.0-26.0","null","null","","","","","","","","","","","","","","fixation","","","0","3","","","","","","","","","",""
"","","","","","","","","","","","canvas-keyboard-response","27","226264","0.0-27.0","null","null","","","","","","","","","","","","","","stimulus","","","0","3","","","","","","","","","",""
"","","","","","","","","","","","canvas-button-response","28","227405","0.0-28.0","1140","car","","","","","","","","","","","","","","perceptual","","","0","3","","","","","12","car","1","","1",""
"","","","","","","","","","","","canvas-button-response","29","228523","0.0-29.0","1116","9","","","","","","","","","","","","","","confidence","","","0","3","","","","","","","","","","3"
"","","","","","","","","","","","html-keyboard-response","30","229526","0.0-30.0","null","null","","","","","","","","","","","","","","feedback","Sat Oct 18 2025 17:27:21 GMT-0400 (Eastern Daylight Time)","27787","0","3","","","","","","","","","",""
"","","","","","","","","","","","preload","31","229527","0.0-31.0","","","","","true","","","","","","","","","","","preload","","","0","4","false","[]","[]","[]","","","","","",""
"","","","","","","","","","","","canvas-keyboard-response","32","229828","0.0-32.0","null","null","","","","","","","","","","","","","","fixation","","","0","4","","","","","","","","","",""
"","","","","","","","","","","","canvas-keyboard-response","33","230131","0.0-33.0","null","null","","","","","","","","","","","","","","stimulus","","","0","4","","","","","","","","","",""
"","","","","","","","","","","","canvas-button-response","34","231606","0.0-34.0","1473","house","","","","","","","","","","","","","","perceptual","","","0","4","","","","","52","flower","1","","0",""
"","","","","","","","","","","","canvas-button-response","35","232956","0.0-35.0","1348","9","","","","","","","","","","","","","","confidence","","","0","4","","","","","","","","","","3"
"","","","","","","","","","","","html-keyboard-response","36","233959","0.0-36.0","null","null","","","","","","","","","","","","","","feedback","Sat Oct 18 2025 17:27:26 GMT-0400 (Eastern Daylight Time)","27787","0","4","","","","","","","","","",""
"","","","","","","","","","","","preload","37","233960","0.0-37.0","","","","","true","","","","","","","","","","","preload","","","0","5","false","[]","[]","[]","","","","","",""
"","","","","","","","","","","","canvas-keyboard-response","38","234262","0.0-38.0","null","null","","","","","","","","","","","","","","fixation","","","0","5","","","","","","","","","",""
"","","","","","","","","","","","canvas-keyboard-response","39","234565","0.0-39.0","null","null","","","","","","","","","","","","","","stimulus","","","0","5","","","","","","","","","",""
"","","","","","","","","","","","canvas-button-response","40","235688","0.0-40.0","1121","cat","","","","","","","","","","","","","","perceptual","","","0","5","","","","","72","cat","1","","1",""
"","","","","","","","","","","","canvas-button-response","41","236637","0.0-41.0","948","9","","","","","","","","","","","","","","confidence","","","0","5","","","","","","","","","","4"
"","","","","","","","","","","","html-keyboard-response","42","237639","0.0-42.0","null","null","","","","","","","","","","","","","","feedback","Sat Oct 18 2025 17:27:29 GMT-0400 (Eastern Daylight Time)","27787","0","5","","","","","","","","","",""
"","","","","","","","","","","","preload","43","237640","0.0-43.0","","","","","true","","","","","","","","","","","preload","","","0","6","false","[]","[]","[]","","","","","",""
"","","","","","","","","","","","canvas-keyboard-response","44","237942","0.0-44.0","null","null","","","","","","","","","","","","","","fixation","","","0","6","","","","","","","","","",""
"","","","","","","","","","","","canvas-keyboard-response","45","238245","0.0-45.0","null","null","","","","","","","","","","","","","","stimulus","","","0","6","","","","","","","","","",""
"","","","","","","","","","","","canvas-button-response","46","239555","0.0-46.0","1309","phone","","","","","","","","","","","","","","perceptual","","","0","6","","","","","22","phone","1","","1",""
"","","","","","","","","","","","canvas-button-response","47","240420","0.0-47.0","864","9","","","","","","","","","","","","","","confidence","","","0","6","","","","","","","","","","5"
"","","","","","","","","","","","html-keyboard-response","48","241423","0.0-48.0","null","null","","","","","","","","","","","","","","feedback","Sat Oct 18 2025 17:27:33 GMT-0400 (Eastern Daylight Time)","27787","0","6","","","","","","","","","",""
"","","","","","","","","","","","preload","49","241423","0.0-49.0","","","","","true","","","","","","","","","","","preload","","","0","7","false","[]","[]","[]","","","","","",""
"","","","","","","","","","","","canvas-keyboard-response","50","241725","0.0-50.0","null","null","","","","","","","","","","","","","","fixation","","","0","7","","","","","","","","","",""
"","","","","","","","","","","","canvas-keyboard-response","51","242028","0.0-51.0","null","null","","","","","","","","","","","","","","stimulus","","","0","7","","","","","","","","","",""
"","","","","","","","","","","","canvas-button-response","52","243503","0.0-52.0","1475","bed","","","","","","","","","","","","","","perceptual","","","0","7","","","","","32","bed","1","","1",""
"","","","","","","","","","","","canvas-button-response","53","244687","0.0-53.0","1182","9","","","","","","","","","","","","","","confidence","","","0","7","","","","","","","","","","6"
"","","","","","","","","","","","html-keyboard-response","54","245689","0.0-54.0","null","null","","","","","","","","","","","","","","feedback","Sat Oct 18 2025 17:27:37 GMT-0400 (Eastern Daylight Time)","27787","0","7","","","","","","","","","",""
"","","","","","","","","","","","preload","55","245690","0.0-55.0","","","","","true","","","","","","","","","","","preload","","","0","8","false","[]","[]","[]","","","","","",""
"","","","","","","","","","","","canvas-keyboard-response","56","245992","0.0-56.0","null","null","","","","","","","","","","","","","","fixation","","","0","8","","","","","","","","","",""
"","","","","","","","","","","","canvas-keyboard-response","57","246295","0.0-57.0","null","null","","","","","","","","","","","","","","stimulus","","","0","8","","","","","","","","","",""
"","","","","","","","","","","","canvas-button-response","58","247556","0.0-58.0","1260","house","","","","","","","","","","","","","","perceptual","","","0","8","","","","","2","house","1","","1",""
"","","","","","","","","","","","canvas-button-response","59","248556","0.0-59.0","998","9","","","","","","","","","","","","","","confidence","","","0","8","","","","","","","","","","7"
"","","","","","","","","","","","html-keyboard-response","60","249559","0.0-60.0","null","null","","","","","","","","","","","","","","feedback","Sat Oct 18 2025 17:27:41 GMT-0400 (Eastern Daylight Time)","27787","0","8","","","","","","","","","",""
"","","","","","","","","","","","preload","61","249560","0.0-61.0","","","","","true","","","","","","","","","","","preload","","","0","9","false","[]","[]","[]","","","","","",""
"","","","","","","","","","","","canvas-keyboard-response","62","249862","0.0-62.0","null","null","","","","","","","","","","","","","","fixation","","","0","9","","","","","","","","","",""
"","","","","","","","","","","","canvas-keyboard-response","63","250165","0.0-63.0","null","null","","","","","","","","","","","","","","stimulus","","","0","9","","","","","","","","","",""
"","","","","","","","","","","","canvas-button-response","64","255123","0.0-64.0","4955","knife","","","","","","","","","","","","","","perceptual","","","0","9","","","","","92","knife","1","","1",""
"","","","","","","","","","","","canvas-button-response","65","256022","0.0-65.0","897","9","","","","","","","","","","","","","","confidence","","","0","9","","","","","","","","","","8"
"","","","","","","","","","","","html-keyboard-response","66","257025","0.0-66.0","null","null","","","","","","","","","","","","","","feedback","Sat Oct 18 2025 17:27:49 GMT-0400 (Eastern Daylight Time)","27787","0","9","","","","","","","","","",""
"","","","","","","","","","","","html-button-response","67","266643","0.0-67.0","9616","0","","","","","","","","","","","","","","start_practice","Sat Oct 18 2025 17:27:50 GMT-0400 (Eastern Daylight Time)","27787","0","9","","","","","","","","","",""
"","","","","","","","","","","","preload","68","266644","0.0-68.0","","","","","true","","","","","","","","","","","preload","","","1","0","false","[]","[]","[]","","","","","",""
"","","","","","","","","","","","canvas-keyboard-response","69","266947","0.0-69.0","null","null","","","","","","","","","","","","","","fixation","","","1","0","","","","","","","","","",""
"","","","","","","","","","","","canvas-keyboard-response","70","267249","0.0-70.0","null","null","","","","","","","","","","","","","","stimulus","","","1","0","","","","","","","","","",""
"","","","","","","","","","","","canvas-button-response","71","271956","0.0-71.0","4704","train","","","","","","","","","","","","","","perceptual","","","1","0","","","","","44","bridge","6","","0",""
"","","","","","","","","","","","canvas-button-response","72","273288","0.0-72.0","1330","1","","","","","","","","","","","","","","confidence","","","1","0","","","","","","","","","","0"
"","","","","","","","","","","","html-keyboard-response","73","274290","0.0-73.0","null","null","","","","","","","","","","","","","","feedback","Sat Oct 18 2025 17:28:06 GMT-0400 (Eastern Daylight Time)","27787","1","0","","","","","","","","","",""
"","","","","","","","","","","","preload","74","274290","0.0-74.0","","","","","true","","","","","","","","","","","preload","","","1","1","false","[]","[]","[]","","","","","",""
"","","","","","","","","","","","canvas-keyboard-response","75","274593","0.0-75.0","null","null","","","","","","","","","","","","","","fixation","","","1","1","","","","","","","","","",""
"","","","","","","","","","","","canvas-keyboard-response","76","274896","0.0-76.0","null","null","","","","","","","","","","","","","","stimulus","","","1","1","","","","","","","","","",""
"","","","","","","","","","","","canvas-button-response","77","276006","0.0-77.0","1107","car","","","","","","","","","","","","","","perceptual","","","1","1","","","","","64","train","6","","0",""
"","","","","","","","","","","","canvas-button-response","78","277006","0.0-78.0","998","8","","","","","","","","","","","","","","confidence","","","1","1","","","","","","","","","","0"
"","","","","","","","","","","","html-keyboard-response","79","278008","0.0-79.0","null","null","","","","","","","","","","","","","","feedback","Sat Oct 18 2025 17:28:10 GMT-0400 (Eastern Daylight Time)","27787","1","1","","","","","","","","","",""
"","","","","","","","","","","","preload","80","278009","0.0-80.0","","","","","true","","","","","","","","","","","preload","","","1","2","false","[]","[]","[]","","","","","",""
"","","","","","","","","","","","canvas-keyboard-response","81","278311","0.0-81.0","null","null","","","","","","","","","","","","","","fixation","","","1","2","","","","","","","","","",""
"","","","","","","","","","","","canvas-keyboard-response","82","278614","0.0-82.0","null","null","","","","","","","","","","","","","","stimulus","","","1","2","","","","","","","","","",""
"","","","","","","","","","","","canvas-button-response","83","281372","0.0-83.0","2756","phone","","","","","","","","","","","","","","perceptual","","","1","2","","","","","94","knife","6","","0",""
"","","","","","","","","","","","canvas-button-response","84","282056","0.0-84.0","681","6","","","","","","","","","","","","","","confidence","","","1","2","","","","","","","","","","0"
"","","","","","","","","","","","html-keyboard-response","85","283058","0.0-85.0","null","null","","","","","","","","","","","","","","feedback","Sat Oct 18 2025 17:28:15 GMT-0400 (Eastern Daylight Time)","27787","1","2","","","","","","","","","",""
"","","","","","","","","","","","preload","86","283059","0.0-86.0","","","","","true","","","","","","","","","","","preload","","","1","3","false","[]","[]","[]","","","","","",""
"","","","","","","","","","","","canvas-keyboard-response","87","283362","0.0-87.0","null","null","","","","","","","","","","","","","","fixation","","","1","3","","","","","","","","","",""
"","","","","","","","","","","","canvas-keyboard-response","88","283664","0.0-88.0","null","null","","","","","","","","","","","","","","stimulus","","","1","3","","","","","","","","","",""
"","","","","","","","","","","","canvas-button-response","89","285991","0.0-89.0","2326","flower","","","","","","","","","","","","","","perceptual","","","1","3","","","","","84","elephant","6","","0",""
"","","","","","","","","","","","canvas-button-response","90","286655","0.0-90.0","662","5","","","","","","","","","","","","","","confidence","","","1","3","","","","","","","","","","0"
"","","","","","","","","","","","html-keyboard-response","91","287658","0.0-91.0","null","null","","","","","","","","","","","","","","feedback","Sat Oct 18 2025 17:28:19 GMT-0400 (Eastern Daylight Time)","27787","1","3","","","","","","","","","",""
"","","","","","","","","","","","preload","92","287659","0.0-92.0","","","","","true","","","","","","","","","","","preload","","","1","4","false","[]","[]","[]","","","","","",""
"","","","","","","","","","","","canvas-keyboard-response","93","287961","0.0-93.0","null","null","","","","","","","","","","","","","","fixation","","","1","4","","","","","","","","","",""
"","","","","","","","","","","","canvas-keyboard-response","94","288263","0.0-94.0","null","null","","","","","","","","","","","","","","stimulus","","","1","4","","","","","","","","","",""
"","","","","","","","","","","","canvas-button-response","95","289389","0.0-95.0","1125","bed","","","","","","","","","","","","","","perceptual","","","1","4","","","","","34","bed","6","","1",""
"","","","","","","","","","","","canvas-button-response","96","290489","0.0-96.0","1097","6","","","","","","","","","","","","","","confidence","","","1","4","","","","","","","","","","1"
"","","","","","","","","","","","html-keyboard-response","97","291490","0.0-97.0","null","null","","","","","","","","","","","","","","feedback","Sat Oct 18 2025 17:28:23 GMT-0400 (Eastern Daylight Time)","27787","1","4","","","","","","","","","",""
"","","","","","","","","","","","preload","98","291491","0.0-98.0","","","","","true","","","","","","","","","","","preload","","","1","5","false","[]","[]","[]","","","","","",""
"","","","","","","","","","","","canvas-keyboard-response","99","291794","0.0-99.0","null","null","","","","","","","","","","","","","","fixation","","","1","5","","","","","","","","","",""
"","","","","","","","","","","","canvas-keyboard-response","100","292097","0.0-100.0","null","null","","","","","","","","","","","","","","stimulus","","","1","5","","","","","","","","","",""
"","","","","","","","","","","","canvas-button-response","101","296320","0.0-101.0","4222","train","","","","","","","","","","","","","","perceptual","","","1","5","","","","","67","train","10","","1",""
"","","","","","","","","","","","canvas-button-response","102","297106","0.0-102.0","784","6","","","","","","","","","","","","","","confidence","","","1","5","","","","","","","","","","2"
"","","","","","","","","","","","html-keyboard-response","103","298109","0.0-103.0","null","null","","","","","","","","","","","","","","feedback","Sat Oct 18 2025 17:28:30 GMT-0400 (Eastern Daylight Time)","27787","1","5","","","","","","","","","",""
"","","","","","","","","","","","preload","104","298110","0.0-104.0","","","","","true","","","","","","","","","","","preload","","","1","6","false","[]","[]","[]","","","","","",""
"","","","","","","","","","","","canvas-keyboard-response","105","298412","0.0-105.0","null","null","","","","","","","","","","","","","","fixation","","","1","6","","","","","","","","","",""
"","","","","","","","","","","","canvas-keyboard-response","106","298714","0.0-106.0","null","null","","","","","","","","","","","","","","stimulus","","","1","6","","","","","","","","","",""
"","","","","","","","","","","","canvas-button-response","107","300287","0.0-107.0","1571","elephant","","","","","","","","","","","","","","perceptual","","","1","6","","","","","14","car","6","","0",""
"","","","","","","","","","","","canvas-button-response","108","301653","0.0-108.0","1366","2","","","","","","","","","","","","","","confidence","","","1","6","","","","","","","","","","2"
"","","","","","","","","","","","html-keyboard-response","109","302656","0.0-109.0","null","null","","","","","","","","","","","","","","feedback","Sat Oct 18 2025 17:28:34 GMT-0400 (Eastern Daylight Time)","27787","1","6","","","","","","","","","",""
"","","","","","","","","","","","preload","110","302656","0.0-110.0","","","","","true","","","","","","","","","","","preload","","","1","7","false","[]","[]","[]","","","","","",""
"","","","","","","","","","","","canvas-keyboard-response","111","302959","0.0-111.0","null","null","","","","","","","","","","","","","","fixation","","","1","7","","","","","","","","","",""
"","","","","","","","","","","","canvas-keyboard-response","112","303262","0.0-112.0","null","null","","","","","","","","","","","","","","stimulus","","","1","7","","","","","","","","","",""
"","","","","","","","","","","","canvas-button-response","113","305370","0.0-113.0","2107","bridge","","","","","","","","","","","","","","perceptual","","","1","7","","","","","87","elephant","10","","0",""
"","","","","","","","","","","","canvas-button-response","114","306420","0.0-114.0","1049","1","","","","","","","","","","","","","","confidence","","","1","7","","","","","","","","","","2"
"","","","","","","","","","","","html-keyboard-response","115","307422","0.0-115.0","null","null","","","","","","","","","","","","","","feedback","Sat Oct 18 2025 17:28:39 GMT-0400 (Eastern Daylight Time)","27787","1","7","","","","","","","","","",""
"","","","","","","","","","","","preload","116","307423","0.0-116.0","","","","","true","","","","","","","","","","","preload","","","1","8","false","[]","[]","[]","","","","","",""
"","","","","","","","","","","","canvas-keyboard-response","117","307725","0.0-117.0","null","null","","","","","","","","","","","","","","fixation","","","1","8","","","","","","","","","",""
"","","","","","","","","","","","canvas-keyboard-response","118","308026","0.0-118.0","null","null","","","","","","","","","","","","","","stimulus","","","1","8","","","","","","","","","",""
"","","","","","","","","","","","canvas-button-response","119","311388","0.0-119.0","3360","phone","","","","","","","","","","","","","","perceptual","","","1","8","","","","","47","bridge","10","","0",""
"","","","","","","","","","","","canvas-button-response","120","312308","0.0-120.0","918","3","","","","","","","","","","","","","","confidence","","","1","8","","","","","","","","","","2"
"","","","","","","","","","","","html-keyboard-response","121","313310","0.0-121.0","null","null","","","","","","","","","","","","","","feedback","Sat Oct 18 2025 17:28:45 GMT-0400 (Eastern Daylight Time)","27787","1","8","","","","","","","","","",""
"","","","","","","","","","","","preload","122","313311","0.0-122.0","","","","","true","","","","","","","","","","","preload","","","1","9","false","[]","[]","[]","","","","","",""
"","","","","","","","","","","","canvas-keyboard-response","123","313613","0.0-123.0","null","null","","","","","","","","","","","","","","fixation","","","1","9","","","","","","","","","",""
"","","","","","","","","","","","canvas-keyboard-response","124","313915","0.0-124.0","null","null","","","","","","","","","","","","","","stimulus","","","1","9","","","","","","","","","",""
"","","","","","","","","","","","canvas-button-response","125","315155","0.0-125.0","1239","house","","","","","","","","","","","","","","perceptual","","","1","9","","","","","7","house","10","","1",""
"","","","","","","","","","","","canvas-button-response","126","316039","0.0-126.0","881","4","","","","","","","","","","","","","","confidence","","","1","9","","","","","","","","","","3"
"","","","","","","","","","","","html-keyboard-response","127","317042","0.0-127.0","null","null","","","","","","","","","","","","","","feedback","Sat Oct 18 2025 17:28:49 GMT-0400 (Eastern Daylight Time)","27787","1","9","","","","","","","","","",""
"","","","","","","","","","","","preload","128","317043","0.0-128.0","","","","","true","","","","","","","","","","","preload","","","1","10","false","[]","[]","[]","","","","","",""
"","","","","","","","","","","","canvas-keyboard-response","129","317345","0.0-129.0","null","null","","","","","","","","","","","","","","fixation","","","1","10","","","","","","","","","",""
"","","","","","","","","","","","canvas-keyboard-response","130","317648","0.0-130.0","null","null","","","","","","","","","","","","","","stimulus","","","1","10","","","","","","","","","",""
"","","","","","","","","","","","canvas-button-response","131","318522","0.0-131.0","871","house","","","","","","","","","","","","","","perceptual","","","1","10","","","","","4","house","6","","1",""
"","","","","","","","","","","","canvas-button-response","132","320539","0.0-132.0","2016","9","","","","","","","","","","","","","","confidence","","","1","10","","","","","","","","","","4"
"","","","","","","","","","","","html-keyboard-response","133","321541","0.0-133.0","null","null","","","","","","","","","","","","","","feedback","Sat Oct 18 2025 17:28:53 GMT-0400 (Eastern Daylight Time)","27787","1","10","","","","","","","","","",""
"","","","","","","","","","","","preload","134","321542","0.0-134.0","","","","","true","","","","","","","","","","","preload","","","1","11","false","[]","[]","[]","","","","","",""
"","","","","","","","","","","","canvas-keyboard-response","135","321844","0.0-135.0","null","null","","","","","","","","","","","","","","fixation","","","1","11","","","","","","","","","",""
"","","","","","","","","","","","canvas-keyboard-response","136","322146","0.0-136.0","null","null","","","","","","","","","","","","","","stimulus","","","1","11","","","","","","","","","",""
"","","","","","","","","","","","canvas-button-response","137","323472","0.0-137.0","1324","car","","","","","","","","","","","","","","perceptual","","","1","11","","","","","17","car","10","","1",""
"","","","","","","","","","","","canvas-button-response","138","324704","0.0-138.0","1230","2","","","","","","","","","","","","","","confidence","","","1","11","","","","","","","","","","5"
"","","","","","","","","","","","html-keyboard-response","139","325706","0.0-139.0","null","null","","","","","","","","","","","","","","feedback","Sat Oct 18 2025 17:28:57 GMT-0400 (Eastern Daylight Time)","27787","1","11","","","","","","","","","",""
"","","","","","","","","","","","preload","140","325707","0.0-140.0","","","","","true","","","","","","","","","","","preload","","","1","12","false","[]","[]","[]","","","","","",""
"","","","","","","","","","","","canvas-keyboard-response","141","326009","0.0-141.0","null","null","","","","","","","","","","","","","","fixation","","","1","12","","","","","","","","","",""
"","","","","","","","","","","","canvas-keyboard-response","142","326310","0.0-142.0","null","null","","","","","","","","","","","","","","stimulus","","","1","12","","","","","","","","","",""
"","","","","","","","","","","","canvas-button-response","143","328990","0.0-143.0","2679","train","","","","","","","","","","","","","","perceptual","","","1","12","","","","","37","bed","10","","0",""
"","","","","","","","","","","","canvas-button-response","144","329603","0.0-144.0","613","2","","","","","","","","","","","","","","confidence","","","1","12","","","","","","","","","","5"
"","","","","","","","","","","","html-keyboard-response","145","330605","0.0-145.0","null","null","","","","","","","","","","","","","","feedback","Sat Oct 18 2025 17:29:02 GMT-0400 (Eastern Daylight Time)","27787","1","12","","","","","","","","","",""
"","","","","","","","","","","","preload","146","330606","0.0-146.0","","","","","true","","","","","","","","","","","preload","","","1","13","false","[]","[]","[]","","","","","",""
"","","","","","","","","","","","canvas-keyboard-response","147","330908","0.0-147.0","null","null","","","","","","","","","","","","","","fixation","","","1","13","","","","","","","","","",""
"","","","","","","","","","","","canvas-keyboard-response","148","331210","0.0-148.0","null","null","","","","","","","","","","","","","","stimulus","","","1","13","","","","","","","","","",""
"","","","","","","","","","","","canvas-button-response","149","332156","0.0-149.0","944","knife","","","","","","","","","","","","","","perceptual","","","1","13","","","","","97","knife","10","","1",""
"","","","","","","","","","","","canvas-button-response","150","333439","0.0-150.0","1281","9","","","","","","","","","","","","","","confidence","","","1","13","","","","","","","","","","6"
"","","","","","","","","","","","html-keyboard-response","151","334442","0.0-151.0","null","null","","","","","","","","","","","","","","feedback","Sat Oct 18 2025 17:29:06 GMT-0400 (Eastern Daylight Time)","27787","1","13","","","","","","","","","",""
"","","","","","","","","","","","preload","152","334442","0.0-152.0","","","","","true","","","","","","","","","","","preload","","","1","14","false","[]","[]","[]","","","","","",""
"","","","","","","","","","","","canvas-keyboard-response","153","334745","0.0-153.0","null","null","","","","","","","","","","","","","","fixation","","","1","14","","","","","","","","","",""
"","","","","","","","","","","","canvas-keyboard-response","154","335047","0.0-154.0","null","null","","","","","","","","","","","","","","stimulus","","","1","14","","","","","","","","","",""
"","","","","","","","","","","","canvas-button-response","155","336656","0.0-155.0","1607","elephant","","","","","","","","","","","","","","perceptual","","","1","14","","","","","77","cat","10","","0",""
"","","","","","","","","","","","canvas-button-response","156","337872","0.0-156.0","1214","1","","","","","","","","","","","","","","confidence","","","1","14","","","","","","","","","","6"
"","","","","","","","","","","","html-keyboard-response","157","338875","0.0-157.0","null","null","","","","","","","","","","","","","","feedback","Sat Oct 18 2025 17:29:11 GMT-0400 (Eastern Daylight Time)","27787","1","14","","","","","","","","","",""
"","","","","","","","","","","","preload","158","338876","0.0-158.0","","","","","true","","","","","","","","","","","preload","","","1","15","false","[]","[]","[]","","","","","",""
"","","","","","","","","","","","canvas-keyboard-response","159","339178","0.0-159.0","null","null","","","","","","","","","","","","","","fixation","","","1","15","","","","","","","","","",""
"","","","","","","","","","","","canvas-keyboard-response","160","339480","0.0-160.0","null","null","","","","","","","","","","","","","","stimulus","","","1","15","","","","","","","","","",""
"","","","","","","","","","","","canvas-button-response","161","341823","0.0-161.0","2340","bed","","","","","","","","","","","","","","perceptual","","","1","15","","","","","24","phone","6","","0",""
"","","","","","","","","","","","canvas-button-response","162","343272","0.0-162.0","1448","1","","","","","","","","","","","","","","confidence","","","1","15","","","","","","","","","","6"
"","","","","","","","","","","","html-keyboard-response","163","344274","0.0-163.0","null","null","","","","","","","","","","","","","","feedback","Sat Oct 18 2025 17:29:16 GMT-0400 (Eastern Daylight Time)","27787","1","15","","","","","","","","","",""
"","","","","","","","","","","","preload","164","344274","0.0-164.0","","","","","true","","","","","","","","","","","preload","","","1","16","false","[]","[]","[]","","","","","",""
"","","","","","","","","","","","canvas-keyboard-response","165","344576","0.0-165.0","null","null","","","","","","","","","","","","","","fixation","","","1","16","","","","","","","","","",""
"","","","","","","","","","","","canvas-keyboard-response","166","344878","0.0-166.0","null","null","","","","","","","","","","","","","","stimulus","","","1","16","","","","","","","","","",""
"","","","","","","","","","","","canvas-button-response","167","346572","0.0-167.0","1692","flower","","","","","","","","","","","","","","perceptual","","","1","16","","","","","54","flower","6","","1",""
"","","","","","","","","","","","canvas-button-response","168","348472","0.0-168.0","1898","9","","","","","","","","","","","","","","confidence","","","1","16","","","","","","","","","","7"
"","","","","","","","","","","","html-keyboard-response","169","349475","0.0-169.0","null","null","","","","","","","","","","","","","","feedback","Sat Oct 18 2025 17:29:21 GMT-0400 (Eastern Daylight Time)","27787","1","16","","","","","","","","","",""
"","","","","","","","","","","","preload","170","349476","0.0-170.0","","","","","true","","","","","","","","","","","preload","","","1","17","false","[]","[]","[]","","","","","",""
"","","","","","","","","","","","canvas-keyboard-response","171","349779","0.0-171.0","null","null","","","","","","","","","","","","","","fixation","","","1","17","","","","","","","","","",""
"","","","","","","","","","","","canvas-keyboard-response","172","350082","0.0-172.0","null","null","","","","","","","","","","","","","","stimulus","","","1","17","","","","","","","","","",""
"","","","","","","","","","","","canvas-button-response","173","351139","0.0-173.0","1054","cat","","","","","","","","","","","","","","perceptual","","","1","17","","","","","74","cat","6","","1",""
"","","","","","","","","","","","canvas-button-response","174","352456","0.0-174.0","1315","9","","","","","","","","","","","","","","confidence","","","1","17","","","","","","","","","","8"
"","","","","","","","","","","","html-keyboard-response","175","353458","0.0-175.0","null","null","","","","","","","","","","","","","","feedback","Sat Oct 18 2025 17:29:25 GMT-0400 (Eastern Daylight Time)","27787","1","17","","","","","","","","","",""
"","","","","","","","","","","","preload","176","353458","0.0-176.0","","","","","true","","","","","","","","","","","preload","","","1","18","false","[]","[]","[]","","","","","",""
"","","","","","","","","","","","canvas-keyboard-response","177","353761","0.0-177.0","null","null","","","","","","","","","","","","","","fixation","","","1","18","","","","","","","","","",""
"","","","","","","","","","","","canvas-keyboard-response","178","354064","0.0-178.0","null","null","","","","","","","","","","","","","","stimulus","","","1","18","","","","","","","","","",""
"","","","","","","","","","","","canvas-button-response","179","355354","0.0-179.0","1288","flower","","","","","","","","","","","","","","perceptual","","","1","18","","","","","57","flower","10","","1",""
"","","","","","","","","","","","canvas-button-response","180","356572","0.0-180.0","1217","9","","","","","","","","","","","","","","confidence","","","1","18","","","","","","","","","","9"
"","","","","","","","","","","","html-keyboard-response","181","357575","0.0-181.0","null","null","","","","","","","","","","","","","","feedback","Sat Oct 18 2025 17:29:29 GMT-0400 (Eastern Daylight Time)","27787","1","18","","","","","","","","","",""
"","","","","","","","","","","","preload","182","357575","0.0-182.0","","","","","true","","","","","","","","","","","preload","","","1","19","false","[]","[]","[]","","","","","",""
"","","","","","","","","","","","canvas-keyboard-response","183","357878","0.0-183.0","null","null","","","","","","","","","","","","","","fixation","","","1","19","","","","","","","","","",""
"","","","","","","","","","","","canvas-keyboard-response","184","358181","0.0-184.0","null","null","","","","","","","","","","","","","","stimulus","","","1","19","","","","","","","","","",""
"","","","","","","","","","","","canvas-button-response","185","359472","0.0-185.0","1289","knife","","","","","","","","","","","","","","perceptual","","","1","19","","","","","27","phone","10","","0",""
"","","","","","","","","","","","canvas-button-response","186","360220","0.0-186.0","747","9","","","","","","","","","","","","","","confidence","","","1","19","","","","","","","","","","9"
"","","","","","","","","","","","html-keyboard-response","187","361222","0.0-187.0","null","null","","","","","","","","","","","","","","feedback","Sat Oct 18 2025 17:29:33 GMT-0400 (Eastern Daylight Time)","27787","1","19","","","","","","","","","",""
"","","","","","","","","","","","html-button-response","188","423658","0.0-188.0","62433","0","","","","","","","","","","","","","","start experiment","Sat Oct 18 2025 17:29:34 GMT-0400 (Eastern Daylight Time)","27787","1","19","","","","","","","","","",""
"","","","","","","","","","","","preload","189","423660","0.0-189.0","","","","","true","","","","","","","","","","","preload","","","2","0","false","[]","[]","[]","","","","","",""
"","","","","","","","","","","","canvas-keyboard-response","190","423963","0.0-190.0","null","null","","","","","","","","","","","","","","fixation","","","2","0","","","","","","","","","",""
"","","","","","","","","","","","canvas-keyboard-response","191","424265","0.0-191.0","null","null","","","","","","","","","","","","","","stimulus","","","2","0","","","","","","","","","",""
"","","","","","","","","","","","canvas-button-response","192","426873","0.0-192.0","2606","bridge","","","","","","","","","","","","","","perceptual","","","2","0","","","","","31","house","10","0","0",""
"","","","","","","","","","","","canvas-button-response","193","427856","0.0-193.0","981","8","","","","","","","","","","","","","","confidence","","","2","0","","","","","","","","","","0"
"","","","","","","","","","","","preload","194","427857","0.0-194.0","","","","","true","","","","","","","","","","","preload","","","2","1","false","[]","[]","[]","","","","","",""
"","","","","","","","","","","","canvas-keyboard-response","195","428160","0.0-195.0","null","null","","","","","","","","","","","","","","fixation","","","2","1","","","","","","","","","",""
"","","","","","","","","","","","canvas-keyboard-response","196","428461","0.0-196.0","null","null","","","","","","","","","","","","","","stimulus","","","2","1","","","","","","","","","",""
"","","","","","","","","","","","canvas-button-response","197","429656","0.0-197.0","1192","flower","","","","","","","","","","","","","","perceptual","","","2","1","","","","","221","flower","10","0","1",""
"","","","","","","","","","","","canvas-button-response","198","430837","0.0-198.0","1179","9","","","","","","","","","","","","","","confidence","","","2","1","","","","","","","","","","1"
"","","","","","","","","","","","preload","199","430838","0.0-199.0","","","","","true","","","","","","","","","","","preload","","","2","2","false","[]","[]","[]","","","","","",""
"","","","","","","","","","","","canvas-keyboard-response","200","431139","0.0-200.0","null","null","","","","","","","","","","","","","","fixation","","","2","2","","","","","","","","","",""
"","","","","","","","","","","","canvas-keyboard-response","201","431442","0.0-201.0","null","null","","","","","","","","","","","","","","stimulus","","","2","2","","","","","","","","","",""
"","","","","","","","","","","","canvas-button-response","202","433555","0.0-202.0","2112","cat","","","","","","","","","","","","","","perceptual","","","2","2","","","","","306","cat","10","0","1",""
"","","","","","","","","","","","canvas-button-response","203","434354","0.0-203.0","797","1","","","","","","","","","","","","","","confidence","","","2","2","","","","","","","","","","2"
"","","","","","","","","","","","preload","204","434354","0.0-204.0","","","","","true","","","","","","","","","","","preload","","","2","3","false","[]","[]","[]","","","","","",""
"","","","","","","","","","","","canvas-keyboard-response","205","434657","0.0-205.0","null","null","","","","","","","","","","","","","","fixation","","","2","3","","","","","","","","","",""
"","","","","","","","","","","","canvas-keyboard-response","206","434959","0.0-206.0","null","null","","","","","","","","","","","","","","stimulus","","","2","3","","","","","","","","","",""
"","","","","","","","","","","","canvas-button-response","207","435839","0.0-207.0","877","knife","","","","","","","","","","","","","","perceptual","","","2","3","","","","","367","knife","6","0","1",""
"","","","","","","","","","","","canvas-button-response","208","436720","0.0-208.0","880","9","","","","","","","","","","","","","","confidence","","","2","3","","","","","","","","","","3"
"","","","","","","","","","","","preload","209","436721","0.0-209.0","","","","","true","","","","","","","","","","","preload","","","2","4","false","[]","[]","[]","","","","","",""
"","","","","","","","","","","","canvas-keyboard-response","210","437023","0.0-210.0","null","null","","","","","","","","","","","","","","fixation","","","2","4","","","","","","","","","",""
"","","","","","","","","","","","canvas-keyboard-response","211","437327","0.0-211.0","null","null","","","","","","","","","","","","","","stimulus","","","2","4","","","","","","","","","",""
"","","","","","","","","","","","canvas-button-response","212","438353","0.0-212.0","1026","elephant","","","","","","","","","","","","","","perceptual","","","2","4","","","","","340","elephant","10","0","1",""
"","","","","","","","","","","","canvas-button-response","213","438904","0.0-213.0","550","9","","","","","","","","","","","","","","confidence","","","2","4","","","","","","","","","","4"
"","","","","","","","","","","","preload","214","438905","0.0-214.0","","","","","true","","","","","","","","","","","preload","","","2","5","false","[]","[]","[]","","","","","",""
"","","","","","","","","","","","canvas-keyboard-response","215","439207","0.0-215.0","null","null","","","","","","","","","","","","","","fixation","","","2","5","","","","","","","","","",""
"","","","","","","","","","","","canvas-keyboard-response","216","439510","0.0-216.0","null","null","","","","","","","","","","","","","","stimulus","","","2","5","","","","","","","","","",""
"","","","","","","","","","","","canvas-button-response","217","440354","0.0-217.0","842","car","","","","","","","","","","","","","","perceptual","","","2","5","","","","","64","car","10","0","1",""
"","","","","","","","","","","","canvas-button-response","218","440939","0.0-218.0","583","5","","","","","","","","","","","","","","confidence","","","2","5","","","","","","","","","","5"
"","","","","","","","","","","","preload","219","440940","0.0-219.0","","","","","true","","","","","","","","","","","preload","","","2","6","false","[]","[]","[]","","","","","",""
"","","","","","","","","","","","canvas-keyboard-response","220","441242","0.0-220.0","null","null","","","","","","","","","","","","","","fixation","","","2","6","","","","","","","","","",""
"","","","","","","","","","","","canvas-keyboard-response","221","441544","0.0-221.0","null","null","","","","","","","","","","","","","","stimulus","","","2","6","","","","","","","","","",""
"","","","","","","","","","","","canvas-button-response","222","443237","0.0-222.0","1692","house","","","","","","","","","","","","","","perceptual","","","2","6","","","","","24","house","10","0","1",""
"","","","","","","","","","","","canvas-button-response","223","444072","0.0-223.0","834","2","","","","","","","","","","","","","","confidence","","","2","6","","","","","","","","","","6"
"","","","","","","","","","","","preload","224","444073","0.0-224.0","","","","","true","","","","","","","","","","","preload","","","2","7","false","[]","[]","[]","","","","","",""
"","","","","","","","","","","","canvas-keyboard-response","225","444376","0.0-225.0","null","null","","","","","","","","","","","","","","fixation","","","2","7","","","","","","","","","",""
"","","","","","","","","","","","canvas-keyboard-response","226","444679","0.0-226.0","null","null","","","","","","","","","","","","","","stimulus","","","2","7","","","","","","","","","",""
"","","","","","","","","","","","canvas-button-response","227","447977","0.0-227.0","3296","bridge","","","","","","","","","","","","","","perceptual","","","2","7","","","","","287","cat","6","0","0",""
"","","","","","","","","","","","canvas-button-response","228","448756","0.0-228.0","777","3","","","","","","","","","","","","","","confidence","","","2","7","","","","","","","","","","6"
"","","","","","","","","","","","preload","229","448757","0.0-229.0","","","","","true","","","","","","","","","","","preload","","","2","8","false","[]","[]","[]","","","","","",""
"","","","","","","","","","","","canvas-keyboard-response","230","449059","0.0-230.0","null","null","","","","","","","","","","","","","","fixation","","","2","8","","","","","","","","","",""
"","","","","","","","","","","","canvas-keyboard-response","231","449362","0.0-231.0","null","null","","","","","","","","","","","","","","stimulus","","","2","8","","","","","","","","","",""
"","","","","","","","","","","","canvas-button-response","232","450253","0.0-232.0","890","elephant","","","","","","","","","","","","","","perceptual","","","2","8","","","","","352","elephant","10","0","1",""
"","","","","","","","","","","","canvas-button-response","233","450754","0.0-233.0","500","9","","","","","","","","","","","","","","confidence","","","2","8","","","","","","","","","","7"
"","","","","","","","","","","","preload","234","450755","0.0-234.0","","","","","true","","","","","","","","","","","preload","","","2","9","false","[]","[]","[]","","","","","",""
"","","","","","","","","","","","canvas-keyboard-response","235","451057","0.0-235.0","null","null","","","","","","","","","","","","","","fixation","","","2","9","","","","","","","","","",""
"","","","","","","","","","","","canvas-keyboard-response","236","451359","0.0-236.0","null","null","","","","","","","","","","","","","","stimulus","","","2","9","","","","","","","","","",""
"","","","","","","","","","","","canvas-button-response","237","452220","0.0-237.0","860","bridge","","","","","","","","","","","","","","perceptual","","","2","9","","","","","166","bridge","6","0","1",""
"","","","","","","","","","","","canvas-button-response","238","452821","0.0-238.0","600","9","","","","","","","","","","","","","","confidence","","","2","9","","","","","","","","","","8"
"","","","","","","","","","","","preload","239","452822","0.0-239.0","","","","","true","","","","","","","","","","","preload","","","2","10","false","[]","[]","[]","","","","","",""
"","","","","","","","","","","","canvas-keyboard-response","240","453123","0.0-240.0","null","null","","","","","","","","","","","","","","fixation","","","2","10","","","","","","","","","",""
"","","","","","","","","","","","canvas-keyboard-response","241","453424","0.0-241.0","null","null","","","","","","","","","","","","","","stimulus","","","2","10","","","","","","","","","",""
"","","","","","","","","","","","canvas-button-response","242","454839","0.0-242.0","1413","bridge","","","","","","","","","","","","","","perceptual","","","2","10","","","","","172","bridge","6","0","1",""
"","","","","","","","","","","","canvas-button-response","243","455822","0.0-243.0","980","8","","","","","","","","","","","","","","confidence","","","2","10","","","","","","","","","","9"
"","","","","","","","","","","","preload","244","455823","0.0-244.0","","","","","true","","","","","","","","","","","preload","","","2","11","false","[]","[]","[]","","","","","",""
"","","","","","","","","","","","canvas-keyboard-response","245","456125","0.0-245.0","null","null","","","","","","","","","","","","","","fixation","","","2","11","","","","","","","","","",""
"","","","","","","","","","","","canvas-keyboard-response","246","456428","0.0-246.0","null","null","","","","","","","","","","","","","","stimulus","","","2","11","","","","","","","","","",""
"","","","","","","","","","","","canvas-button-response","247","457121","0.0-247.0","691","car","","","","","","","","","","","","","","perceptual","","","2","11","","","","","49","car","6","0","1",""
"","","","","","","","","","","","canvas-button-response","248","458006","0.0-248.0","884","9","","","","","","","","","","","","","","confidence","","","2","11","","","","","","","","","","10"
"","","","","","","","","","","","preload","249","458007","0.0-249.0","","","","","true","","","","","","","","","","","preload","","","2","12","false","[]","[]","[]","","","","","",""
"","","","","","","","","","","","canvas-keyboard-response","250","458309","0.0-250.0","null","null","","","","","","","","","","","","","","fixation","","","2","12","","","","","","","","","",""
"","","","","","","","","","","","canvas-keyboard-response","251","458610","0.0-251.0","null","null","","","","","","","","","","","","","","stimulus","","","2","12","","","","","","","","","",""
"","","","","","","","","","","","canvas-button-response","252","459606","0.0-252.0","994","house","","","","","","","","","","","","","","perceptual","","","2","12","","","","","30","house","10","0","1",""
"","","","","","","","","","","","canvas-button-response","253","460270","0.0-253.0","662","5","","","","","","","","","","","","","","confidence","","","2","12","","","","","","","","","","11"
"","","","","","","","","","","","preload","254","460270","0.0-254.0","","","","","true","","","","","","","","","","","preload","","","2","13","false","[]","[]","[]","","","","","",""
"","","","","","","","","","","","canvas-keyboard-response","255","460573","0.0-255.0","null","null","","","","","","","","","","","","","","fixation","","","2","13","","","","","","","","","",""
"","","","","","","","","","","","canvas-keyboard-response","256","460876","0.0-256.0","null","null","","","","","","","","","","","","","","stimulus","","","2","13","","","","","","","","","",""
"","","","","","","","","","","","canvas-button-response","257","461871","0.0-257.0","994","flower","","","","","","","","","","","","","","perceptual","","","2","13","","","","","223","flower","10","0","1",""
"","","","","","","","","","","","canvas-button-response","258","463021","0.0-258.0","1148","9","","","","","","","","","","","","","","confidence","","","2","13","","","","","","","","","","12"
"","","","","","","","","","","","preload","259","463021","0.0-259.0","","","","","true","","","","","","","","","","","preload","","","2","14","false","[]","[]","[]","","","","","",""
"","","","","","","","","","","","canvas-keyboard-response","260","463323","0.0-260.0","null","null","","","","","","","","","","","","","","fixation","","","2","14","","","","","","","","","",""
"","","","","","","","","","","","canvas-keyboard-response","261","463625","0.0-261.0","null","null","","","","","","","","","","","","","","stimulus","","","2","14","","","","","","","","","",""
"","","","","","","","","","","","canvas-button-response","262","465306","0.0-262.0","1680","car","","","","","","","","","","","","","","perceptual","","","2","14","","","","","270","train","10","0","0",""
"","","","","","","","","","","","canvas-button-response","263","466056","0.0-263.0","748","2","","","","","","","","","","","","","","confidence","","","2","14","","","","","","","","","","12"
"","","","","","","","","","","","preload","264","466057","0.0-264.0","","","","","true","","","","","","","","","","","preload","","","2","15","false","[]","[]","[]","","","","","",""
"","","","","","","","","","","","canvas-keyboard-response","265","466359","0.0-265.0","null","null","","","","","","","","","","","","","","fixation","","","2","15","","","","","","","","","",""
"","","","","","","","","","","","canvas-keyboard-response","266","466661","0.0-266.0","null","null","","","","","","","","","","","","","","stimulus","","","2","15","","","","","","","","","",""
"","","","","","","","","","","","canvas-button-response","267","467922","0.0-267.0","1259","bridge","","","","","","","","","","","","","","perceptual","","","2","15","","","","","12","house","6","0","0",""
"","","","","","","","","","","","canvas-button-response","268","469239","0.0-268.0","1315","4","","","","","","","","","","","","","","confidence","","","2","15","","","","","","","","","","12"
"","","","","","","","","","","","preload","269","469240","0.0-269.0","","","","","true","","","","","","","","","","","preload","","","2","16","false","[]","[]","[]","","","","","",""
"","","","","","","","","","","","canvas-keyboard-response","270","469543","0.0-270.0","null","null","","","","","","","","","","","","","","fixation","","","2","16","","","","","","","","","",""
"","","","","","","","","","","","canvas-keyboard-response","271","469845","0.0-271.0","null","null","","","","","","","","","","","","","","stimulus","","","2","16","","","","","","","","","",""
"","","","","","","","","","","","canvas-button-response","272","471257","0.0-272.0","1409","house","","","","","","","","","","","","","","perceptual","","","2","16","","","","","3","house","6","0","1",""
"","","","","","","","","","","","canvas-button-response","273","472039","0.0-273.0","780","9","","","","","","","","","","","","","","confidence","","","2","16","","","","","","","","","","13"
"","","","","","","","","","","","preload","274","472040","0.0-274.0","","","","","true","","","","","","","","","","","preload","","","2","17","false","[]","[]","[]","","","","","",""
"","","","","","","","","","","","canvas-keyboard-response","275","472342","0.0-275.0","null","null","","","","","","","","","","","","","","fixation","","","2","17","","","","","","","","","",""
"","","","","","","","","","","","canvas-keyboard-response","276","472644","0.0-276.0","null","null","","","","","","","","","","","","","","stimulus","","","2","17","","","","","","","","","",""
"","","","","","","","","","","","canvas-button-response","277","475623","0.0-277.0","2977","train","","","","","","","","","","","","","","perceptual","","","2","17","","","","","293","cat","6","0","0",""
"","","","","","","","","","","","canvas-button-response","278","476707","0.0-278.0","1082","3","","","","","","","","","","","","","","confidence","","","2","17","","","","","","","","","","13"
"","","","","","","","","","","","preload","279","476708","0.0-279.0","","","","","true","","","","","","","","","","","preload","","","2","18","false","[]","[]","[]","","","","","",""
"","","","","","","","","","","","canvas-keyboard-response","280","477009","0.0-280.0","null","null","","","","","","","","","","","","","","fixation","","","2","18","","","","","","","","","",""
"","","","","","","","","","","","canvas-keyboard-response","281","477312","0.0-281.0","null","null","","","","","","","","","","","","","","stimulus","","","2","18","","","","","","","","","",""
"","","","","","","","","","","","canvas-button-response","282","478071","0.0-282.0","757","car","","","","","","","","","","","","","","perceptual","","","2","18","","","","","66","car","10","0","1",""
"","","","","","","","","","","","canvas-button-response","283","479306","0.0-283.0","1234","6","","","","","","","","","","","","","","confidence","","","2","18","","","","","","","","","","14"
"","","","","","","","","","","","preload","284","479307","0.0-284.0","","","","","true","","","","","","","","","","","preload","","","2","19","false","[]","[]","[]","","","","","",""
"","","","","","","","","","","","canvas-keyboard-response","285","479610","0.0-285.0","null","null","","","","","","","","","","","","","","fixation","","","2","19","","","","","","","","","",""
"","","","","","","","","","","","canvas-keyboard-response","286","479913","0.0-286.0","null","null","","","","","","","","","","","","","","stimulus","","","2","19","","","","","","","","","",""
"","","","","","","","","","","","canvas-button-response","287","480754","0.0-287.0","839","car","","","","","","","","","","","","","","perceptual","","","2","19","","","","","45","car","6","0","1",""
"","","","","","","","","","","","canvas-button-response","288","481355","0.0-288.0","600","9","","","","","","","","","","","","","","confidence","","","2","19","","","","","","","","","","15"
"","","","","","","","","","","","preload","289","481356","0.0-289.0","","","","","true","","","","","","","","","","","preload","","","2","20","false","[]","[]","[]","","","","","",""
"","","","","","","","","","","","canvas-keyboard-response","290","481659","0.0-290.0","null","null","","","","","","","","","","","","","","fixation","","","2","20","","","","","","","","","",""
"","","","","","","","","","","","canvas-keyboard-response","291","481961","0.0-291.0","null","null","","","","","","","","","","","","","","stimulus","","","2","20","","","","","","","","","",""
"","","","","","","","","","","","canvas-button-response","292","487288","0.0-292.0","5325","train","","","","","","","","","","","","","","perceptual","","","2","20","","","","","107","phone","10","0","0",""
"","","","","","","","","","","","canvas-button-response","293","489056","0.0-293.0","1766","1","","","","","","","","","","","","","","confidence","","","2","20","","","","","","","","","","15"
"","","","","","","","","","","","preload","294","489057","0.0-294.0","","","","","true","","","","","","","","","","","preload","","","2","21","false","[]","[]","[]","","","","","",""
"","","","","","","","","","","","canvas-keyboard-response","295","489359","0.0-295.0","null","null","","","","","","","","","","","","","","fixation","","","2","21","","","","","","","","","",""
"","","","","","","","","","","","canvas-keyboard-response","296","489661","0.0-296.0","null","null","","","","","","","","","","","","","","stimulus","","","2","21","","","","","","","","","",""
"","","","","","","","","","","","canvas-button-response","297","490454","0.0-297.0","791","elephant","","","","","","","","","","","","","","perceptual","","","2","21","","","","","330","elephant","6","0","1",""
"","","","","","","","","","","","canvas-button-response","298","490937","0.0-298.0","482","9","","","","","","","","","","","","","","confidence","","","2","21","","","","","","","","","","16"
"","","","","","","","","","","","preload","299","490937","0.0-299.0","","","","","true","","","","","","","","","","","preload","","","2","22","false","[]","[]","[]","","","","","",""
"","","","","","","","","","","","canvas-keyboard-response","300","491239","0.0-300.0","null","null","","","","","","","","","","","","","","fixation","","","2","22","","","","","","","","","",""
"","","","","","","","","","","","canvas-keyboard-response","301","491541","0.0-301.0","null","null","","","","","","","","","","","","","","stimulus","","","2","22","","","","","","","","","",""
"","","","","","","","","","","","canvas-button-response","302","493305","0.0-302.0","1762","house","","","","","","","","","","","","","","perceptual","","","2","22","","","","","347","elephant","10","0","0",""
"","","","","","","","","","","","canvas-button-response","303","494607","0.0-303.0","1299","8","","","","","","","","","","","","","","confidence","","","2","22","","","","","","","","","","16"
"","","","","","","","","","","","preload","304","494607","0.0-304.0","","","","","true","","","","","","","","","","","preload","","","2","23","false","[]","[]","[]","","","","","",""
"","","","","","","","","","","","canvas-keyboard-response","305","494910","0.0-305.0","null","null","","","","","","","","","","","","","","fixation","","","2","23","","","","","","","","","",""
"","","","","","","","","","","","canvas-keyboard-response","306","495212","0.0-306.0","null","null","","","","","","","","","","","","","","stimulus","","","2","23","","","","","","","","","",""
"","","","","","","","","","","","canvas-button-response","307","497037","0.0-307.0","1824","cat","","","","","","","","","","","","","","perceptual","","","2","23","","","","","158","bed","10","0","0",""
"","","","","","","","","","","","canvas-button-response","308","497806","0.0-308.0","767","8","","","","","","","","","","","","","","confidence","","","2","23","","","","","","","","","","16"
"","","","","","","","","","","","preload","309","497807","0.0-309.0","","","","","true","","","","","","","","","","","preload","","","2","24","false","[]","[]","[]","","","","","",""
"","","","","","","","","","","","canvas-keyboard-response","310","498109","0.0-310.0","null","null","","","","","","","","","","","","","","fixation","","","2","24","","","","","","","","","",""
"","","","","","","","","","","","canvas-keyboard-response","311","498412","0.0-311.0","null","null","","","","","","","","","","","","","","stimulus","","","2","24","","","","","","","","","",""
"","","","","","","","","","","","canvas-button-response","312","499156","0.0-312.0","742","knife","","","","","","","","","","","","","","perceptual","","","2","24","","","","","360","knife","6","0","1",""
"","","","","","","","","","","","canvas-button-response","313","499839","0.0-313.0","681","9","","","","","","","","","","","","","","confidence","","","2","24","","","","","","","","","","17"
"","","","","","","","","","","","preload","314","499840","0.0-314.0","","","","","true","","","","","","","","","","","preload","","","2","25","false","[]","[]","[]","","","","","",""
"","","","","","","","","","","","canvas-keyboard-response","315","500141","0.0-315.0","null","null","","","","","","","","","","","","","","fixation","","","2","25","","","","","","","","","",""
"","","","","","","","","","","","canvas-keyboard-response","316","500443","0.0-316.0","null","null","","","","","","","","","","","","","","stimulus","","","2","25","","","","","","","","","",""
"","","","","","","","","","","","canvas-button-response","317","501572","0.0-317.0","1128","bed","","","","","","","","","","","","","","perceptual","","","2","25","","","","","123","bed","6","0","1",""
"","","","","","","","","","","","canvas-button-response","318","502403","0.0-318.0","830","6","","","","","","","","","","","","","","confidence","","","2","25","","","","","","","","","","18"
"","","","","","","","","","","","preload","319","502404","0.0-319.0","","","","","true","","","","","","","","","","","preload","","","2","26","false","[]","[]","[]","","","","","",""
"","","","","","","","","","","","canvas-keyboard-response","320","502706","0.0-320.0","null","null","","","","","","","","","","","","","","fixation","","","2","26","","","","","","","","","",""
"","","","","","","","","","","","canvas-keyboard-response","321","503008","0.0-321.0","null","null","","","","","","","","","","","","","","stimulus","","","2","26","","","","","","","","","",""
"","","","","","","","","","","","canvas-button-response","322","504172","0.0-322.0","1163","car","","","","","","","","","","","","","","perceptual","","","2","26","","","","","54","car","6","0","1",""
"","","","","","","","","","","","canvas-button-response","323","504823","0.0-323.0","648","7","","","","","","","","","","","","","","confidence","","","2","26","","","","","","","","","","19"
"","","","","","","","","","","","preload","324","504824","0.0-324.0","","","","","true","","","","","","","","","","","preload","","","2","27","false","[]","[]","[]","","","","","",""
"","","","","","","","","","","","canvas-keyboard-response","325","505127","0.0-325.0","null","null","","","","","","","","","","","","","","fixation","","","2","27","","","","","","","","","",""
"","","","","","","","","","","","canvas-keyboard-response","326","505428","0.0-326.0","null","null","","","","","","","","","","","","","","stimulus","","","2","27","","","","","","","","","",""
"","","","","","","","","","","","canvas-button-response","327","506507","0.0-327.0","1078","bridge","","","","","","","","","","","","","","perceptual","","","2","27","","","","","279","train","10","0","0",""
"","","","","","","","","","","","canvas-button-response","328","507305","0.0-328.0","797","4","","","","","","","","","","","","","","confidence","","","2","27","","","","","","","","","","19"
"","","","","","","","","","","","preload","329","507306","0.0-329.0","","","","","true","","","","","","","","","","","preload","","","2","28","false","[]","[]","[]","","","","","",""
"","","","","","","","","","","","canvas-keyboard-response","330","507608","0.0-330.0","null","null","","","","","","","","","","","","","","fixation","","","2","28","","","","","","","","","",""
"","","","","","","","","","","","canvas-keyboard-response","331","507910","0.0-331.0","null","null","","","","","","","","","","","","","","stimulus","","","2","28","","","","","","","","","",""
"","","","","","","","","","","","canvas-button-response","332","509474","0.0-332.0","1561","house","","","","","","","","","","","","","","perceptual","","","2","28","","","","","322","elephant","6","0","0",""
"","","","","","","","","","","","canvas-button-response","333","510405","0.0-333.0","929","5","","","","","","","","","","","","","","confidence","","","2","28","","","","","","","","","","19"
"","","","","","","","","","","","preload","334","510406","0.0-334.0","","","","","true","","","","","","","","","","","preload","","","2","29","false","[]","[]","[]","","","","","",""
"","","","","","","","","","","","canvas-keyboard-response","335","510708","0.0-335.0","null","null","","","","","","","","","","","","","","fixation","","","2","29","","","","","","","","","",""
"","","","","","","","","","","","canvas-keyboard-response","336","511011","0.0-336.0","null","null","","","","","","","","","","","","","","stimulus","","","2","29","","","","","","","","","",""
"","","","","","","","","","","","canvas-button-response","337","512971","0.0-337.0","1958","car","","","","","","","","","","","","","","perceptual","","","2","29","","","","","76","car","10","0","1",""
"","","","","","","","","","","","canvas-button-response","338","514138","0.0-338.0","1167","2","","","","","","","","","","","","","","confidence","","","2","29","","","","","","","","","","20"
"","","","","","","","","","","","preload","339","514139","0.0-339.0","","","","","true","","","","","","","","","","","preload","","","2","30","false","[]","[]","[]","","","","","",""
"","","","","","","","","","","","canvas-keyboard-response","340","514442","0.0-340.0","null","null","","","","","","","","","","","","","","fixation","","","2","30","","","","","","","","","",""
"","","","","","","","","","","","canvas-keyboard-response","341","514745","0.0-341.0","null","null","","","","","","","","","","","","","","stimulus","","","2","30","","","","","","","","","",""
"","","","","","","","","","","","canvas-button-response","342","522822","0.0-342.0","8075","bridge","","","","","","","","","","","","","","perceptual","","","2","30","","","","","159","bed","10","0","0",""
"","","","","","","","","","","","canvas-button-response","343","523789","0.0-343.0","964","1","","","","","","","","","","","","","","confidence","","","2","30","","","","","","","","","","20"
"","","","","","","","","","","","preload","344","523790","0.0-344.0","","","","","true","","","","","","","","","","","preload","","","2","31","false","[]","[]","[]","","","","","",""
"","","","","","","","","","","","canvas-keyboard-response","345","524092","0.0-345.0","null","null","","","","","","","","","","","","","","fixation","","","2","31","","","","","","","","","",""
"","","","","","","","","","","","canvas-keyboard-response","346","524395","0.0-346.0","null","null","","","","","","","","","","","","","","stimulus","","","2","31","","","","","","","","","",""
"","","","","","","","","","","","canvas-button-response","347","525354","0.0-347.0","957","bridge","","","","","","","","","","","","","","perceptual","","","2","31","","","","","384","knife","10","0","0",""
"","","","","","","","","","","","canvas-button-response","348","525870","0.0-348.0","516","1","","","","","","","","","","","","","","confidence","","","2","31","","","","","","","","","","20"
"","","","","","","","","","","","preload","349","525871","0.0-349.0","","","","","true","","","","","","","","","","","preload","","","2","32","false","[]","[]","[]","","","","","",""
"","","","","","","","","","","","canvas-keyboard-response","350","526173","0.0-350.0","null","null","","","","","","","","","","","","","","fixation","","","2","32","","","","","","","","","",""
"","","","","","","","","","","","canvas-keyboard-response","351","526474","0.0-351.0","null","null","","","","","","","","","","","","","","stimulus","","","2","32","","","","","","","","","",""
"","","","","","","","","","","","canvas-button-response","352","527606","0.0-352.0","1130","house","","","","","","","","","","","","","","perceptual","","","2","32","","","","","13","house","6","0","1",""
"","","","","","","","","","","","canvas-button-response","353","528587","0.0-353.0","980","2","","","","","","","","","","","","","","confidence","","","2","32","","","","","","","","","","21"
"","","","","","","","","","","","preload","354","528587","0.0-354.0","","","","","true","","","","","","","","","","","preload","","","2","33","false","[]","[]","[]","","","","","",""
"","","","","","","","","","","","canvas-keyboard-response","355","528889","0.0-355.0","null","null","","","","","","","","","","","","","","fixation","","","2","33","","","","","","","","","",""
"","","","","","","","","","","","canvas-keyboard-response","356","529191","0.0-356.0","null","null","","","","","","","","","","","","","","stimulus","","","2","33","","","","","","","","","",""
"","","","","","","","","","","","canvas-button-response","357","530389","0.0-357.0","1196","cat","","","","","","","","","","","","","","perceptual","","","2","33","","","","","264","train","10","0","0",""
"","","","","","","","","","","","canvas-button-response","358","532805","0.0-358.0","2414","2","","","","","","","","","","","","","","confidence","","","2","33","","","","","","","","","","21"
"","","","","","","","","","","","preload","359","532805","0.0-359.0","","","","","true","","","","","","","","","","","preload","","","2","34","false","[]","[]","[]","","","","","",""
"","","","","","","","","","","","canvas-keyboard-response","360","533107","0.0-360.0","null","null","","","","","","","","","","","","","","fixation","","","2","34","","","","","","","","","",""
"","","","","","","","","","","","canvas-keyboard-response","361","533410","0.0-361.0","null","null","","","","","","","","","","","","","","stimulus","","","2","34","","","","","","","","","",""
"","","","","","","","","","","","canvas-button-response","362","534253","0.0-362.0","842","car","","","","","","","","","","","","","","perceptual","","","2","34","","","","","63","car","10","0","1",""
"","","","","","","","","","","","canvas-button-response","363","534840","0.0-363.0","585","9","","","","","","","","","","","","","","confidence","","","2","34","","","","","","","","","","22"
"","","","","","","","","","","","preload","364","534841","0.0-364.0","","","","","true","","","","","","","","","","","preload","","","2","35","false","[]","[]","[]","","","","","",""
"","","","","","","","","","","","canvas-keyboard-response","365","535143","0.0-365.0","null","null","","","","","","","","","","","","","","fixation","","","2","35","","","","","","","","","",""
"","","","","","","","","","","","canvas-keyboard-response","366","535445","0.0-366.0","null","null","","","","","","","","","","","","","","stimulus","","","2","35","","","","","","","","","",""
"","","","","","","","","","","","canvas-button-response","367","536455","0.0-367.0","1009","phone","","","","","","","","","","","","","","perceptual","","","2","35","","","","","118","phone","10","0","1",""
"","","","","","","","","","","","canvas-button-response","368","537039","0.0-368.0","581","9","","","","","","","","","","","","","","confidence","","","2","35","","","","","","","","","","23"
"","","","","","","","","","","","preload","369","537040","0.0-369.0","","","","","true","","","","","","","","","","","preload","","","2","36","false","[]","[]","[]","","","","","",""
"","","","","","","","","","","","canvas-keyboard-response","370","537342","0.0-370.0","null","null","","","","","","","","","","","","","","fixation","","","2","36","","","","","","","","","",""
"","","","","","","","","","","","canvas-keyboard-response","371","537645","0.0-371.0","null","null","","","","","","","","","","","","","","stimulus","","","2","36","","","","","","","","","",""
"","","","","","","","","","","","canvas-button-response","372","538388","0.0-372.0","742","car","","","","","","","","","","","","","","perceptual","","","2","36","","","","","57","car","6","0","1",""
"","","","","","","","","","","","canvas-button-response","373","538940","0.0-373.0","549","9","","","","","","","","","","","","","","confidence","","","2","36","","","","","","","","","","24"
"","","","","","","","","","","","preload","374","538941","0.0-374.0","","","","","true","","","","","","","","","","","preload","","","2","37","false","[]","[]","[]","","","","","",""
"","","","","","","","","","","","canvas-keyboard-response","375","539242","0.0-375.0","null","null","","","","","","","","","","","","","","fixation","","","2","37","","","","","","","","","",""
"","","","","","","","","","","","canvas-keyboard-response","376","539545","0.0-376.0","null","null","","","","","","","","","","","","","","stimulus","","","2","37","","","","","","","","","",""
"","","","","","","","","","","","canvas-button-response","377","540955","0.0-377.0","1408","bed","","","","","","","","","","","","","","perceptual","","","2","37","","","","","124","bed","6","0","1",""
"","","","","","","","","","","","canvas-button-response","378","542055","0.0-378.0","1098","9","","","","","","","","","","","","","","confidence","","","2","37","","","","","","","","","","25"
"","","","","","","","","","","","preload","379","542056","0.0-379.0","","","","","true","","","","","","","","","","","preload","","","2","38","false","[]","[]","[]","","","","","",""
"","","","","","","","","","","","canvas-keyboard-response","380","542358","0.0-380.0","null","null","","","","","","","","","","","","","","fixation","","","2","38","","","","","","","","","",""
"","","","","","","","","","","","canvas-keyboard-response","381","542660","0.0-381.0","null","null","","","","","","","","","","","","","","stimulus","","","2","38","","","","","","","","","",""
"","","","","","","","","","","","canvas-button-response","382","547887","0.0-382.0","5225","phone","","","","","","","","","","","","","","perceptual","","","2","38","","","","","93","phone","6","0","1",""
"","","","","","","","","","","","canvas-button-response","383","548905","0.0-383.0","1017","6","","","","","","","","","","","","","","confidence","","","2","38","","","","","","","","","","26"
"","","","","","","","","","","","preload","384","548905","0.0-384.0","","","","","true","","","","","","","","","","","preload","","","2","39","false","[]","[]","[]","","","","","",""
"","","","","","","","","","","","canvas-keyboard-response","385","549208","0.0-385.0","null","null","","","","","","","","","","","","","","fixation","","","2","39","","","","","","","","","",""
"","","","","","","","","","","","canvas-keyboard-response","386","549510","0.0-386.0","null","null","","","","","","","","","","","","","","stimulus","","","2","39","","","","","","","","","",""
"","","","","","","","","","","","canvas-button-response","387","552405","0.0-387.0","2894","bridge","","","","","","","","","","","","","","perceptual","","","2","39","","","","","382","knife","10","0","0",""
"","","","","","","","","","","","canvas-button-response","388","553690","0.0-388.0","1282","5","","","","","","","","","","","","","","confidence","","","2","39","","","","","","","","","","26"
"","","","","","","","","","","","preload","389","553690","0.0-389.0","","","","","true","","","","","","","","","","","preload","","","2","40","false","[]","[]","[]","","","","","",""
"","","","","","","","","","","","canvas-keyboard-response","390","553993","0.0-390.0","null","null","","","","","","","","","","","","","","fixation","","","2","40","","","","","","","","","",""
"","","","","","","","","","","","canvas-keyboard-response","391","554296","0.0-391.0","null","null","","","","","","","","","","","","","","stimulus","","","2","40","","","","","","","","","",""
"","","","","","","","","","","","canvas-button-response","392","555489","0.0-392.0","1192","bed","","","","","","","","","","","","","","perceptual","","","2","40","","","","","138","bed","6","0","1",""
"","","","","","","","","","","","canvas-button-response","393","556454","0.0-393.0","963","8","","","","","","","","","","","","","","confidence","","","2","40","","","","","","","","","","27"
"","","","","","","","","","","","preload","394","556454","0.0-394.0","","","","","true","","","","","","","","","","","preload","","","2","41","false","[]","[]","[]","","","","","",""
"","","","","","","","","","","","canvas-keyboard-response","395","556756","0.0-395.0","null","null","","","","","","","","","","","","","","fixation","","","2","41","","","","","","","","","",""
"","","","","","","","","","","","canvas-keyboard-response","396","557059","0.0-396.0","null","null","","","","","","","","","","","","","","stimulus","","","2","41","","","","","","","","","",""
"","","","","","","","","","","","canvas-button-response","397","557771","0.0-397.0","710","phone","","","","","","","","","","","","","","perceptual","","","2","41","","","","","86","phone","6","0","1",""
"","","","","","","","","","","","canvas-button-response","398","558287","0.0-398.0","515","9","","","","","","","","","","","","","","confidence","","","2","41","","","","","","","","","","28"
"","","","","","","","","","","","preload","399","558287","0.0-399.0","","","","","true","","","","","","","","","","","preload","","","2","42","false","[]","[]","[]","","","","","",""
"","","","","","","","","","","","canvas-keyboard-response","400","558589","0.0-400.0","null","null","","","","","","","","","","","","","","fixation","","","2","42","","","","","","","","","",""
"","","","","","","","","","","","canvas-keyboard-response","401","558890","0.0-401.0","null","null","","","","","","","","","","","","","","stimulus","","","2","42","","","","","","","","","",""
"","","","","","","","","","","","canvas-button-response","402","559856","0.0-402.0","964","flower","","","","","","","","","","","","","","perceptual","","","2","42","","","","","236","flower","10","0","1",""
"","","","","","","","","","","","canvas-button-response","403","560622","0.0-403.0","765","9","","","","","","","","","","","","","","confidence","","","2","42","","","","","","","","","","29"
"","","","","","","","","","","","preload","404","560623","0.0-404.0","","","","","true","","","","","","","","","","","preload","","","2","43","false","[]","[]","[]","","","","","",""
"","","","","","","","","","","","canvas-keyboard-response","405","560926","0.0-405.0","null","null","","","","","","","","","","","","","","fixation","","","2","43","","","","","","","","","",""
"","","","","","","","","","","","canvas-keyboard-response","406","561228","0.0-406.0","null","null","","","","","","","","","","","","","","stimulus","","","2","43","","","","","","","","","",""
"","","","","","","","","","","","canvas-button-response","407","562270","0.0-407.0","1040","bed","","","","","","","","","","","","","","perceptual","","","2","43","","","","","155","bed","10","0","1",""
"","","","","","","","","","","","canvas-button-response","408","563220","0.0-408.0","950","9","","","","","","","","","","","","","","confidence","","","2","43","","","","","","","","","","30"
"","","","","","","","","","","","preload","409","563221","0.0-409.0","","","","","true","","","","","","","","","","","preload","","","2","44","false","[]","[]","[]","","","","","",""
"","","","","","","","","","","","canvas-keyboard-response","410","563524","0.0-410.0","null","null","","","","","","","","","","","","","","fixation","","","2","44","","","","","","","","","",""
"","","","","","","","","","","","canvas-keyboard-response","411","563828","0.0-411.0","null","null","","","","","","","","","","","","","","stimulus","","","2","44","","","","","","","","","",""
"","","","","","","","","","","","canvas-button-response","412","564605","0.0-412.0","774","cat","","","","","","","","","","","","","","perceptual","","","2","44","","","","","55","car","6","0","0",""
"","","","","","","","","","","","canvas-button-response","413","566171","0.0-413.0","1565","1","","","","","","","","","","","","","","confidence","","","2","44","","","","","","","","","","30"
"","","","","","","","","","","","preload","414","566172","0.0-414.0","","","","","true","","","","","","","","","","","preload","","","2","45","false","[]","[]","[]","","","","","",""
"","","","","","","","","","","","canvas-keyboard-response","415","566473","0.0-415.0","null","null","","","","","","","","","","","","","","fixation","","","2","45","","","","","","","","","",""
"","","","","","","","","","","","canvas-keyboard-response","416","566775","0.0-416.0","null","null","","","","","","","","","","","","","","stimulus","","","2","45","","","","","","","","","",""
"","","","","","","","","","","","canvas-button-response","417","567704","0.0-417.0","927","car","","","","","","","","","","","","","","perceptual","","","2","45","","","","","75","car","10","0","1",""
"","","","","","","","","","","","canvas-button-response","418","568540","0.0-418.0","834","9","","","","","","","","","","","","","","confidence","","","2","45","","","","","","","","","","31"
"","","","","","","","","","","","preload","419","568541","0.0-419.0","","","","","true","","","","","","","","","","","preload","","","2","46","false","[]","[]","[]","","","","","",""
"","","","","","","","","","","","canvas-keyboard-response","420","568842","0.0-420.0","null","null","","","","","","","","","","","","","","fixation","","","2","46","","","","","","","","","",""
"","","","","","","","","","","","canvas-keyboard-response","421","569144","0.0-421.0","null","null","","","","","","","","","","","","","","stimulus","","","2","46","","","","","","","","","",""
"","","","","","","","","","","","canvas-button-response","422","570396","0.0-422.0","1251","phone","","","","","","","","","","","","","","perceptual","","","2","46","","","","","112","phone","10","0","1",""
"","","","","","","","","","","","canvas-button-response","423","571477","0.0-423.0","1080","3","","","","","","","","","","","","","","confidence","","","2","46","","","","","","","","","","32"
"","","","","","","","","","","","preload","424","571477","0.0-424.0","","","","","true","","","","","","","","","","","preload","","","2","47","false","[]","[]","[]","","","","","",""
"","","","","","","","","","","","canvas-keyboard-response","425","571778","0.0-425.0","null","null","","","","","","","","","","","","","","fixation","","","2","47","","","","","","","","","",""
"","","","","","","","","","","","canvas-keyboard-response","426","572081","0.0-426.0","null","null","","","","","","","","","","","","","","stimulus","","","2","47","","","","","","","","","",""
"","","","","","","","","","","","canvas-button-response","427","572888","0.0-427.0","805","elephant","","","","","","","","","","","","","","perceptual","","","2","47","","","","","355","elephant","10","0","1",""
"","","","","","","","","","","","canvas-button-response","428","574073","0.0-428.0","1183","5","","","","","","","","","","","","","","confidence","","","2","47","","","","","","","","","","33"
"","","","","","","","","","","","preload","429","574074","0.0-429.0","","","","","true","","","","","","","","","","","preload","","","2","48","false","[]","[]","[]","","","","","",""
"","","","","","","","","","","","canvas-keyboard-response","430","574376","0.0-430.0","null","null","","","","","","","","","","","","","","fixation","","","2","48","","","","","","","","","",""
"","","","","","","","","","","","canvas-keyboard-response","431","574678","0.0-431.0","null","null","","","","","","","","","","","","","","stimulus","","","2","48","","","","","","","","","",""
"","","","","","","","","","","","canvas-button-response","432","575389","0.0-432.0","709","flower","","","","","","","","","","","","","","perceptual","","","2","48","","","","","208","flower","6","0","1",""
"","","","","","","","","","","","canvas-button-response","433","576123","0.0-433.0","732","9","","","","","","","","","","","","","","confidence","","","2","48","","","","","","","","","","34"
"","","","","","","","","","","","preload","434","576124","0.0-434.0","","","","","true","","","","","","","","","","","preload","","","2","49","false","[]","[]","[]","","","","","",""
"","","","","","","","","","","","canvas-keyboard-response","435","576425","0.0-435.0","null","null","","","","","","","","","","","","","","fixation","","","2","49","","","","","","","","","",""
"","","","","","","","","","","","canvas-keyboard-response","436","576726","0.0-436.0","null","null","","","","","","","","","","","","","","stimulus","","","2","49","","","","","","","","","",""
"","","","","","","","","","","","canvas-button-response","437","577538","0.0-437.0","810","bridge","","","","","","","","","","","","","","perceptual","","","2","49","","","","","194","bridge","10","0","1",""
"","","","","","","","","","","","canvas-button-response","438","578706","0.0-438.0","1166","1","","","","","","","","","","","","","","confidence","","","2","49","","","","","","","","","","35"
"","","","","","","","","","","","html-button-response","439","753683","0.0-439.0","174974","0","","","","","","","","","","","","","","<p style=""font-size:20px;color:#000000"">You got 35 out of 50 trials correct in this block.<br><br>You have completed 6% of the experiment.<br><br>Take a short break.<br><br>When you are ready, click Continue to proceed.","","","2","49","","","","","","","","","",""
"","","","","","","","","","","","html-keyboard-response","440","754687","0.0-440.0","null","null","","","","","","","","","","","","","","<p style=""font-size:32px;color:#000000""><br><br> RUN: &nbsp 1/4 <br><br> BLOCK: 2/4 ","","","2","49","","","","","","","","","",""
"","","","","","","","","","","","preload","441","754688","0.0-441.0","","","","","true","","","","","","","","","","","preload","","","2","50","false","[]","[]","[]","","","","","",""
"","","","","","","","","","","","canvas-keyboard-response","442","754990","0.0-442.0","null","null","","","","","","","","","","","","","","fixation","","","2","50","","","","","","","","","",""
"","","","","","","","","","","","canvas-keyboard-response","443","755294","0.0-443.0","null","null","","","","","","","","","","","","","","stimulus","","","2","50","","","","","","","","","",""
"","","","","","","","","","","","canvas-button-response","444","756522","0.0-444.0","1226","bridge","","","","","","","","","","","","","","perceptual","","","2","50","","","","","258","train","6","0","0",""
"","","","","","","","","","","","canvas-button-response","445","757289","0.0-445.0","765","1","","","","","","","","","","","","","","confidence","","","2","50","","","","","","","","","","0"
"","","","","","","","","","","","preload","446","757290","0.0-446.0","","","","","true","","","","","","","","","","","preload","","","2","51","false","[]","[]","[]","","","","","",""
"","","","","","","","","","","","canvas-keyboard-response","447","757592","0.0-447.0","null","null","","","","","","","","","","","","","","fixation","","","2","51","","","","","","","","","",""
"","","","","","","","","","","","canvas-keyboard-response","448","757893","0.0-448.0","null","null","","","","","","","","","","","","","","stimulus","","","2","51","","","","","","","","","",""
"","","","","","","","","","","","canvas-button-response","449","761100","0.0-449.0","3206","bridge","","","","","","","","","","","","","","perceptual","","","2","51","","","","","170","bridge","6","0","1",""
"","","","","","","","","","","","canvas-button-response","450","761755","0.0-450.0","654","2","","","","","","","","","","","","","","confidence","","","2","51","","","","","","","","","","1"
"","","","","","","","","","","","preload","451","761756","0.0-451.0","","","","","true","","","","","","","","","","","preload","","","2","52","false","[]","[]","[]","","","","","",""
"","","","","","","","","","","","canvas-keyboard-response","452","762058","0.0-452.0","null","null","","","","","","","","","","","","","","fixation","","","2","52","","","","","","","","","",""
"","","","","","","","","","","","canvas-keyboard-response","453","762361","0.0-453.0","null","null","","","","","","","","","","","","","","stimulus","","","2","52","","","","","","","","","",""
"","","","","","","","","","","","canvas-button-response","454","763023","0.0-454.0","660","car","","","","","","","","","","","","","","perceptual","","","2","52","","","","","62","car","10","0","1",""
"","","","","","","","","","","","canvas-button-response","455","763922","0.0-455.0","898","9","","","","","","","","","","","","","","confidence","","","2","52","","","","","","","","","","2"
"","","","","","","","","","","","preload","456","763923","0.0-456.0","","","","","true","","","","","","","","","","","preload","","","2","53","false","[]","[]","[]","","","","","",""
"","","","","","","","","","","","canvas-keyboard-response","457","764225","0.0-457.0","null","null","","","","","","","","","","","","","","fixation","","","2","53","","","","","","","","","",""
"","","","","","","","","","","","canvas-keyboard-response","458","764527","0.0-458.0","null","null","","","","","","","","","","","","","","stimulus","","","2","53","","","","","","","","","",""
"","","","","","","","","","","","canvas-button-response","459","765689","0.0-459.0","1161","train","","","","","","","","","","","","","","perceptual","","","2","53","","","","","257","train","6","0","1",""
"","","","","","","","","","","","canvas-button-response","460","766156","0.0-460.0","465","9","","","","","","","","","","","","","","confidence","","","2","53","","","","","","","","","","3"
"","","","","","","","","","","","preload","461","766157","0.0-461.0","","","","","true","","","","","","","","","","","preload","","","2","54","false","[]","[]","[]","","","","","",""
"","","","","","","","","","","","canvas-keyboard-response","462","766459","0.0-462.0","null","null","","","","","","","","","","","","","","fixation","","","2","54","","","","","","","","","",""
"","","","","","","","","","","","canvas-keyboard-response","463","766760","0.0-463.0","null","null","","","","","","","","","","","","","","stimulus","","","2","54","","","","","","","","","",""
"","","","","","","","","","","","canvas-button-response","464","769006","0.0-464.0","2244","bed","","","","","","","","","","","","","","perceptual","","","2","54","","","","","237","flower","10","0","0",""
"","","","","","","","","","","","canvas-button-response","465","769712","0.0-465.0","705","1","","","","","","","","","","","","","","confidence","","","2","54","","","","","","","","","","3"
"","","","","","","","","","","","preload","466","769713","0.0-466.0","","","","","true","","","","","","","","","","","preload","","","2","55","false","[]","[]","[]","","","","","",""
"","","","","","","","","","","","canvas-keyboard-response","467","770015","0.0-467.0","null","null","","","","","","","","","","","","","","fixation","","","2","55","","","","","","","","","",""
"","","","","","","","","","","","canvas-keyboard-response","468","770317","0.0-468.0","null","null","","","","","","","","","","","","","","stimulus","","","2","55","","","","","","","","","",""
"","","","","","","","","","","","canvas-button-response","469","771606","0.0-469.0","1288","phone","","","","","","","","","","","","","","perceptual","","","2","55","","","","","101","phone","10","0","1",""
"","","","","","","","","","","","canvas-button-response","470","772556","0.0-470.0","948","6","","","","","","","","","","","","","","confidence","","","2","55","","","","","","","","","","4"
"","","","","","","","","","","","preload","471","772557","0.0-471.0","","","","","true","","","","","","","","","","","preload","","","2","56","false","[]","[]","[]","","","","","",""
"","","","","","","","","","","","canvas-keyboard-response","472","772859","0.0-472.0","null","null","","","","","","","","","","","","","","fixation","","","2","56","","","","","","","","","",""
"","","","","","","","","","","","canvas-keyboard-response","473","773162","0.0-473.0","null","null","","","","","","","","","","","","","","stimulus","","","2","56","","","","","","","","","",""
"","","","","","","","","","","","canvas-button-response","474","777240","0.0-474.0","4075","phone","","","","","","","","","","","","","","perceptual","","","2","56","","","","","336","elephant","6","0","0",""
"","","","","","","","","","","","canvas-button-response","475","778670","0.0-475.0","1430","1","","","","","","","","","","","","","","confidence","","","2","56","","","","","","","","","","4"
"","","","","","","","","","","","preload","476","778671","0.0-476.0","","","","","true","","","","","","","","","","","preload","","","2","57","false","[]","[]","[]","","","","","",""
"","","","","","","","","","","","canvas-keyboard-response","477","778973","0.0-477.0","null","null","","","","","","","","","","","","","","fixation","","","2","57","","","","","","","","","",""
"","","","","","","","","","","","canvas-keyboard-response","478","779276","0.0-478.0","null","null","","","","","","","","","","","","","","stimulus","","","2","57","","","","","","","","","",""
"","","","","","","","","","","","canvas-button-response","479","780270","0.0-479.0","993","car","","","","","","","","","","","","","","perceptual","","","2","57","","","","","191","bridge","10","0","0",""
"","","","","","","","","","","","canvas-button-response","480","780955","0.0-480.0","684","3","","","","","","","","","","","","","","confidence","","","2","57","","","","","","","","","","4"
"","","","","","","","","","","","preload","481","780956","0.0-481.0","","","","","true","","","","","","","","","","","preload","","","2","58","false","[]","[]","[]","","","","","",""
"","","","","","","","","","","","canvas-keyboard-response","482","781259","0.0-482.0","null","null","","","","","","","","","","","","","","fixation","","","2","58","","","","","","","","","",""
"","","","","","","","","","","","canvas-keyboard-response","483","781561","0.0-483.0","null","null","","","","","","","","","","","","","","stimulus","","","2","58","","","","","","","","","",""
"","","","","","","","","","","","canvas-button-response","484","782354","0.0-484.0","792","flower","","","","","","","","","","","","","","perceptual","","","2","58","","","","","224","flower","10","0","1",""
"","","","","","","","","","","","canvas-button-response","485","783221","0.0-485.0","866","9","","","","","","","","","","","","","","confidence","","","2","58","","","","","","","","","","5"
"","","","","","","","","","","","preload","486","783221","0.0-486.0","","","","","true","","","","","","","","","","","preload","","","2","59","false","[]","[]","[]","","","","","",""
"","","","","","","","","","","","canvas-keyboard-response","487","783523","0.0-487.0","null","null","","","","","","","","","","","","","","fixation","","","2","59","","","","","","","","","",""
"","","","","","","","","","","","canvas-keyboard-response","488","783825","0.0-488.0","null","null","","","","","","","","","","","","","","stimulus","","","2","59","","","","","","","","","",""
"","","","","","","","","","","","canvas-button-response","489","784689","0.0-489.0","863","cat","","","","","","","","","","","","","","perceptual","","","2","59","","","","","295","cat","6","0","1",""
"","","","","","","","","","","","canvas-button-response","490","787439","0.0-490.0","2748","5","","","","","","","","","","","","","","confidence","","","2","59","","","","","","","","","","6"
"","","","","","","","","","","","preload","491","787439","0.0-491.0","","","","","true","","","","","","","","","","","preload","","","2","60","false","[]","[]","[]","","","","","",""
