"width","height","webaudio","browser","browser_version","mobile","os","fullscreen","vsync_rate","webcam","microphone","trial_type","trial_index","time_elapsed","internal_node_id","rt","response","accuracy","view_history","success","item_width_mm","item_height_mm","item_width_px","px2mm","view_dist_mm","item_width_deg","px2deg","scale_factor","win_width_deg","win_height_deg","stimulus","datetime","subjectID","curr_triallist","trial_no","timeout","failed_images","failed_audio","failed_video","image_index","category","blur","reps","correct","running_score"
"964","763","true","chrome","140.0.0","false","Windows 10","true","60.07","true","true","browser-check","0","1006","0.0-0.0","","","","","","","","","","","","","","","","","","","","","","","","","","","","","",""
"","","","","","","","","","","","survey","1","30308","0.0-1.0","29255","{""P0_Q0"":""904096078"",""P0_Q1"":""18"",""P1_Q0"":""Female"",""P1_Q1"":""Hispanic or Latino"",""P1_Q2"":""More than one race"",""P1_Q3"":""Normal"",""P1_Q4"":""Right-Handed""}","[]","","","","","","","","","","","","","","","","","","","","","","","","","","",""
"","","","","","","","","","","","instructions","2","81569","0.0-2.0","51260","","","[{""page_index"":0,""viewing_time"":12527},{""page_index"":1,""viewing_time"":13551},{""page_index"":2,""viewing_time"":11293},{""page_index"":3,""viewing_time"":13888}]","","","","","","","","","","","","","","","","","","","","","","","","","",""
"","","","","","","","","","","","fullscreen","3","84581","0.0-3.0","2001","","","","true","","","","","","","","","","","","","","","","","","","","","","","","",""
"","","","","","","","","","","","virtual-chinrest","4","161965","0.0-4.0","77381","","","","","85.6","53.98","330.52100865076636","3.864062033501713","443.79","11.017366955025548","29.999999999999996","1.252567882719488","49.800000000000004","31.133333333333336","","","","","","","","","","","","","","",""
"","","","","","","","","","","","instructions","5","242700","0.0-5.0","80735","","","[{""page_index"":0,""viewing_time"":13352},{""page_index"":1,""viewing_time"":8297},{""page_index"":2,""viewing_time"":14302},{""page_index"":3,""viewing_time"":5243},{""page_index"":4,""viewing_time"":11147},{""page_index"":5,""viewing_time"":22595},{""page_index"":6,""viewing_time"":5799}]","","","","","","","","","","","","","","","","","","","","","","","","","",""
"","","","","","","","","","","","html-button-response","6","251522","0.0-6.0","8818","0","","","","","","","","","","","","","","start_practice","Mon Oct 13 2025 23:02:01 GMT-0400 (Eastern Daylight Time)","27672","","","","","","","","","","","",""
"","","","","","","","","","","","preload","7","251524","0.0-7.0","","","","","true","","","","","","","","","","","preload","","","0","0","false","[]","[]","[]","","","","","",""
"","","","","","","","","","","","canvas-keyboard-response","8","251838","0.0-8.0","null","null","","","","","","","","","","","","","","fixation","","","0","0","","","","","","","","","",""
"","","","","","","","","","","","canvas-keyboard-response","9","252156","0.0-9.0","null","null","","","","","","","","","","","","","","stimulus","","","0","0","","","","","","","","","",""
"","","","","","","","","","","","canvas-button-response","10","253362","0.0-10.0","1202","car","","","","","","","","","","","","","","perceptual","","","0","0","","","","","12","car","1","","1",""
"","","","","","","","","","","","canvas-button-response","11","254798","0.0-11.0","1433","10","","","","","","","","","","","","","","confidence","","","0","0","","","","","","","","","","1"
"","","","","","","","","","","","html-keyboard-response","12","255810","0.0-12.0","null","null","","","","","","","","","","","","","","feedback","Mon Oct 13 2025 23:02:13 GMT-0400 (Eastern Daylight Time)","27672","0","0","","","","","","","","","",""
"","","","","","","","","","","","preload","13","255811","0.0-13.0","","","","","true","","","","","","","","","","","preload","","","0","1","false","[]","[]","[]","","","","","",""
"","","","","","","","","","","","canvas-keyboard-response","14","256113","0.0-14.0","null","null","","","","","","","","","","","","","","fixation","","","0","1","","","","","","","","","",""
"","","","","","","","","","","","canvas-keyboard-response","15","256422","0.0-15.0","null","null","","","","","","","","","","","","","","stimulus","","","0","1","","","","","","","","","",""
"","","","","","","","","","","","canvas-button-response","16","258959","0.0-16.0","2535","house","","","","","","","","","","","","","","perceptual","","","0","1","","","","","52","flower","1","","0",""
"","","","","","","","","","","","canvas-button-response","17","260003","0.0-17.0","1044","8","","","","","","","","","","","","","","confidence","","","0","1","","","","","","","","","","1"
"","","","","","","","","","","","html-keyboard-response","18","261010","0.0-18.0","null","null","","","","","","","","","","","","","","feedback","Mon Oct 13 2025 23:02:18 GMT-0400 (Eastern Daylight Time)","27672","0","1","","","","","","","","","",""
"","","","","","","","","","","","preload","19","261011","0.0-19.0","","","","","true","","","","","","","","","","","preload","","","0","2","false","[]","[]","[]","","","","","",""
"","","","","","","","","","","","canvas-keyboard-response","20","261321","0.0-20.0","null","null","","","","","","","","","","","","","","fixation","","","0","2","","","","","","","","","",""
"","","","","","","","","","","","canvas-keyboard-response","21","261638","0.0-21.0","null","null","","","","","","","","","","","","","","stimulus","","","0","2","","","","","","","","","",""
"","","","","","","","","","","","canvas-button-response","22","263283","0.0-22.0","1643","train","","","","","","","","","","","","","","perceptual","","","0","2","","","","","62","train","1","","1",""
"","","","","","","","","","","","canvas-button-response","23","264569","0.0-23.0","1284","10","","","","","","","","","","","","","","confidence","","","0","2","","","","","","","","","","2"
"","","","","","","","","","","","html-keyboard-response","24","265571","0.0-24.0","null","null","","","","","","","","","","","","","","feedback","Mon Oct 13 2025 23:02:23 GMT-0400 (Eastern Daylight Time)","27672","0","2","","","","","","","","","",""
"","","","","","","","","","","","preload","25","265571","0.0-25.0","","","","","true","","","","","","","","","","","preload","","","0","3","false","[]","[]","[]","","","","","",""
"","","","","","","","","","","","canvas-keyboard-response","26","265872","0.0-26.0","null","null","","","","","","","","","","","","","","fixation","","","0","3","","","","","","","","","",""
"","","","","","","","","","","","canvas-keyboard-response","27","266174","0.0-27.0","null","null","","","","","","","","","","","","","","stimulus","","","0","3","","","","","","","","","",""
"","","","","","","","","","","","canvas-button-response","28","275288","0.0-28.0","9112","car","","","","","","","","","","","","","","perceptual","","","0","3","","","","","82","elephant","1","","0",""
"","","","","","","","","","","","canvas-button-response","29","276476","0.0-29.0","1185","1","","","","","","","","","","","","","","confidence","","","0","3","","","","","","","","","","2"
"","","","","","","","","","","","html-keyboard-response","30","277479","0.0-30.0","null","null","","","","","","","","","","","","","","feedback","Mon Oct 13 2025 23:02:35 GMT-0400 (Eastern Daylight Time)","27672","0","3","","","","","","","","","",""
"","","","","","","","","","","","preload","31","277480","0.0-31.0","","","","","true","","","","","","","","","","","preload","","","0","4","false","[]","[]","[]","","","","","",""
"","","","","","","","","","","","canvas-keyboard-response","32","277787","0.0-32.0","null","null","","","","","","","","","","","","","","fixation","","","0","4","","","","","","","","","",""
"","","","","","","","","","","","canvas-keyboard-response","33","278090","0.0-33.0","null","null","","","","","","","","","","","","","","stimulus","","","0","4","","","","","","","","","",""
"","","","","","","","","","","","canvas-button-response","34","279966","0.0-34.0","1874","phone","","","","","","","","","","","","","","perceptual","","","0","4","","","","","22","phone","1","","1",""
"","","","","","","","","","","","canvas-button-response","35","281082","0.0-35.0","1113","10","","","","","","","","","","","","","","confidence","","","0","4","","","","","","","","","","3"
"","","","","","","","","","","","html-keyboard-response","36","282085","0.0-36.0","null","null","","","","","","","","","","","","","","feedback","Mon Oct 13 2025 23:02:39 GMT-0400 (Eastern Daylight Time)","27672","0","4","","","","","","","","","",""
"","","","","","","","","","","","preload","37","282085","0.0-37.0","","","","","true","","","","","","","","","","","preload","","","0","5","false","[]","[]","[]","","","","","",""
"","","","","","","","","","","","canvas-keyboard-response","38","282389","0.0-38.0","null","null","","","","","","","","","","","","","","fixation","","","0","5","","","","","","","","","",""
"","","","","","","","","","","","canvas-keyboard-response","39","282703","0.0-39.0","null","null","","","","","","","","","","","","","","stimulus","","","0","5","","","","","","","","","",""
"","","","","","","","","","","","canvas-button-response","40","283998","0.0-40.0","1294","house","","","","","","","","","","","","","","perceptual","","","0","5","","","","","2","house","1","","1",""
"","","","","","","","","","","","canvas-button-response","41","284797","0.0-41.0","797","10","","","","","","","","","","","","","","confidence","","","0","5","","","","","","","","","","4"
"","","","","","","","","","","","html-keyboard-response","42","285808","0.0-42.0","null","null","","","","","","","","","","","","","","feedback","Mon Oct 13 2025 23:02:43 GMT-0400 (Eastern Daylight Time)","27672","0","5","","","","","","","","","",""
"","","","","","","","","","","","preload","43","285809","0.0-43.0","","","","","true","","","","","","","","","","","preload","","","0","6","false","[]","[]","[]","","","","","",""
"","","","","","","","","","","","canvas-keyboard-response","44","286121","0.0-44.0","null","null","","","","","","","","","","","","","","fixation","","","0","6","","","","","","","","","",""
"","","","","","","","","","","","canvas-keyboard-response","45","286424","0.0-45.0","null","null","","","","","","","","","","","","","","stimulus","","","0","6","","","","","","","","","",""
"","","","","","","","","","","","canvas-button-response","46","287197","0.0-46.0","770","cat","","","","","","","","","","","","","","perceptual","","","0","6","","","","","72","cat","1","","1",""
"","","","","","","","","","","","canvas-button-response","47","287878","0.0-47.0","677","10","","","","","","","","","","","","","","confidence","","","0","6","","","","","","","","","","5"
"","","","","","","","","","","","html-keyboard-response","48","288890","0.0-48.0","null","null","","","","","","","","","","","","","","feedback","Mon Oct 13 2025 23:02:46 GMT-0400 (Eastern Daylight Time)","27672","0","6","","","","","","","","","",""
"","","","","","","","","","","","preload","49","288892","0.0-49.0","","","","","true","","","","","","","","","","","preload","","","0","7","false","[]","[]","[]","","","","","",""
"","","","","","","","","","","","canvas-keyboard-response","50","289206","0.0-50.0","null","null","","","","","","","","","","","","","","fixation","","","0","7","","","","","","","","","",""
"","","","","","","","","","","","canvas-keyboard-response","51","289523","0.0-51.0","null","null","","","","","","","","","","","","","","stimulus","","","0","7","","","","","","","","","",""
"","","","","","","","","","","","canvas-button-response","52","290931","0.0-52.0","1406","bed","","","","","","","","","","","","","","perceptual","","","0","7","","","","","32","bed","1","","1",""
"","","","","","","","","","","","canvas-button-response","53","292150","0.0-53.0","1217","10","","","","","","","","","","","","","","confidence","","","0","7","","","","","","","","","","6"
"","","","","","","","","","","","html-keyboard-response","54","293153","0.0-54.0","null","null","","","","","","","","","","","","","","feedback","Mon Oct 13 2025 23:02:50 GMT-0400 (Eastern Daylight Time)","27672","0","7","","","","","","","","","",""
"","","","","","","","","","","","preload","55","293153","0.0-55.0","","","","","true","","","","","","","","","","","preload","","","0","8","false","[]","[]","[]","","","","","",""
"","","","","","","","","","","","canvas-keyboard-response","56","293459","0.0-56.0","null","null","","","","","","","","","","","","","","fixation","","","0","8","","","","","","","","","",""
"","","","","","","","","","","","canvas-keyboard-response","57","293770","0.0-57.0","null","null","","","","","","","","","","","","","","stimulus","","","0","8","","","","","","","","","",""
"","","","","","","","","","","","canvas-button-response","58","295183","0.0-58.0","1410","knife","","","","","","","","","","","","","","perceptual","","","0","8","","","","","92","knife","1","","1",""
"","","","","","","","","","","","canvas-button-response","59","296044","0.0-59.0","859","10","","","","","","","","","","","","","","confidence","","","0","8","","","","","","","","","","7"
"","","","","","","","","","","","html-keyboard-response","60","297054","0.0-60.0","null","null","","","","","","","","","","","","","","feedback","Mon Oct 13 2025 23:02:54 GMT-0400 (Eastern Daylight Time)","27672","0","8","","","","","","","","","",""
"","","","","","","","","","","","preload","61","297055","0.0-61.0","","","","","true","","","","","","","","","","","preload","","","0","9","false","[]","[]","[]","","","","","",""
"","","","","","","","","","","","canvas-keyboard-response","62","297369","0.0-62.0","null","null","","","","","","","","","","","","","","fixation","","","0","9","","","","","","","","","",""
"","","","","","","","","","","","canvas-keyboard-response","63","297686","0.0-63.0","null","null","","","","","","","","","","","","","","stimulus","","","0","9","","","","","","","","","",""
"","","","","","","","","","","","canvas-button-response","64","298631","0.0-64.0","942","bridge","","","","","","","","","","","","","","perceptual","","","0","9","","","","","42","bridge","1","","1",""
"","","","","","","","","","","","canvas-button-response","65","299379","0.0-65.0","746","10","","","","","","","","","","","","","","confidence","","","0","9","","","","","","","","","","8"
"","","","","","","","","","","","html-keyboard-response","66","300391","0.0-66.0","null","null","","","","","","","","","","","","","","feedback","Mon Oct 13 2025 23:02:58 GMT-0400 (Eastern Daylight Time)","27672","0","9","","","","","","","","","",""
"","","","","","","","","","","","html-button-response","67","313321","0.0-67.0","12924","0","","","","","","","","","","","","","","start_practice","Mon Oct 13 2025 23:02:59 GMT-0400 (Eastern Daylight Time)","27672","0","9","","","","","","","","","",""
"","","","","","","","","","","","preload","68","313322","0.0-68.0","","","","","true","","","","","","","","","","","preload","","","1","0","false","[]","[]","[]","","","","","",""
"","","","","","","","","","","","canvas-keyboard-response","69","313634","0.0-69.0","null","null","","","","","","","","","","","","","","fixation","","","1","0","","","","","","","","","",""
"","","","","","","","","","","","canvas-keyboard-response","70","313937","0.0-70.0","null","null","","","","","","","","","","","","","","stimulus","","","1","0","","","","","","","","","",""
"","","","","","","","","","","","canvas-button-response","71","314993","0.0-71.0","1055","elephant","","","","","","","","","","","","","","perceptual","","","1","0","","","","","84","elephant","6","","1",""
"","","","","","","","","","","","canvas-button-response","72","315624","0.0-72.0","627","10","","","","","","","","","","","","","","confidence","","","1","0","","","","","","","","","","1"
"","","","","","","","","","","","html-keyboard-response","73","316638","0.0-73.0","null","null","","","","","","","","","","","","","","feedback","Mon Oct 13 2025 23:03:14 GMT-0400 (Eastern Daylight Time)","27672","1","0","","","","","","","","","",""
"","","","","","","","","","","","preload","74","316639","0.0-74.0","","","","","true","","","","","","","","","","","preload","","","1","1","false","[]","[]","[]","","","","","",""
"","","","","","","","","","","","canvas-keyboard-response","75","316953","0.0-75.0","null","null","","","","","","","","","","","","","","fixation","","","1","1","","","","","","","","","",""
"","","","","","","","","","","","canvas-keyboard-response","76","317269","0.0-76.0","null","null","","","","","","","","","","","","","","stimulus","","","1","1","","","","","","","","","",""
"","","","","","","","","","","","canvas-button-response","77","318613","0.0-77.0","1341","flower","","","","","","","","","","","","","","perceptual","","","1","1","","","","","57","flower","10","","1",""
"","","","","","","","","","","","canvas-button-response","78","319458","0.0-78.0","844","10","","","","","","","","","","","","","","confidence","","","1","1","","","","","","","","","","2"
"","","","","","","","","","","","html-keyboard-response","79","320468","0.0-79.0","null","null","","","","","","","","","","","","","","feedback","Mon Oct 13 2025 23:03:18 GMT-0400 (Eastern Daylight Time)","27672","1","1","","","","","","","","","",""
"","","","","","","","","","","","preload","80","320469","0.0-80.0","","","","","true","","","","","","","","","","","preload","","","1","2","false","[]","[]","[]","","","","","",""
"","","","","","","","","","","","canvas-keyboard-response","81","320785","0.0-81.0","null","null","","","","","","","","","","","","","","fixation","","","1","2","","","","","","","","","",""
"","","","","","","","","","","","canvas-keyboard-response","82","321089","0.0-82.0","null","null","","","","","","","","","","","","","","stimulus","","","1","2","","","","","","","","","",""
"","","","","","","","","","","","canvas-button-response","83","325230","0.0-83.0","4140","cat","","","","","","","","","","","","","","perceptual","","","1","2","","","","","17","car","10","","0",""
"","","","","","","","","","","","canvas-button-response","84","326369","0.0-84.0","1137","3","","","","","","","","","","","","","","confidence","","","1","2","","","","","","","","","","2"
"","","","","","","","","","","","html-keyboard-response","85","327373","0.0-85.0","null","null","","","","","","","","","","","","","","feedback","Mon Oct 13 2025 23:03:25 GMT-0400 (Eastern Daylight Time)","27672","1","2","","","","","","","","","",""
"","","","","","","","","","","","preload","86","327374","0.0-86.0","","","","","true","","","","","","","","","","","preload","","","1","3","false","[]","[]","[]","","","","","",""
"","","","","","","","","","","","canvas-keyboard-response","87","327676","0.0-87.0","null","null","","","","","","","","","","","","","","fixation","","","1","3","","","","","","","","","",""
"","","","","","","","","","","","canvas-keyboard-response","88","327977","0.0-88.0","null","null","","","","","","","","","","","","","","stimulus","","","1","3","","","","","","","","","",""
"","","","","","","","","","","","canvas-button-response","89","330675","0.0-89.0","2696","bridge","","","","","","","","","","","","","","perceptual","","","1","3","","","","","37","bed","10","","0",""
"","","","","","","","","","","","canvas-button-response","90","332299","0.0-90.0","1622","1","","","","","","","","","","","","","","confidence","","","1","3","","","","","","","","","","2"
"","","","","","","","","","","","html-keyboard-response","91","333303","0.0-91.0","null","null","","","","","","","","","","","","","","feedback","Mon Oct 13 2025 23:03:31 GMT-0400 (Eastern Daylight Time)","27672","1","3","","","","","","","","","",""
"","","","","","","","","","","","preload","92","333303","0.0-92.0","","","","","true","","","","","","","","","","","preload","","","1","4","false","[]","[]","[]","","","","","",""
"","","","","","","","","","","","canvas-keyboard-response","93","333606","0.0-93.0","null","null","","","","","","","","","","","","","","fixation","","","1","4","","","","","","","","","",""
"","","","","","","","","","","","canvas-keyboard-response","94","333908","0.0-94.0","null","null","","","","","","","","","","","","","","stimulus","","","1","4","","","","","","","","","",""
"","","","","","","","","","","","canvas-button-response","95","334951","0.0-95.0","1040","knife","","","","","","","","","","","","","","perceptual","","","1","4","","","","","97","knife","10","","1",""
"","","","","","","","","","","","canvas-button-response","96","335755","0.0-96.0","802","10","","","","","","","","","","","","","","confidence","","","1","4","","","","","","","","","","3"
"","","","","","","","","","","","html-keyboard-response","97","336770","0.0-97.0","null","null","","","","","","","","","","","","","","feedback","Mon Oct 13 2025 23:03:34 GMT-0400 (Eastern Daylight Time)","27672","1","4","","","","","","","","","",""
"","","","","","","","","","","","preload","98","336771","0.0-98.0","","","","","true","","","","","","","","","","","preload","","","1","5","false","[]","[]","[]","","","","","",""
"","","","","","","","","","","","canvas-keyboard-response","99","337089","0.0-99.0","null","null","","","","","","","","","","","","","","fixation","","","1","5","","","","","","","","","",""
"","","","","","","","","","","","canvas-keyboard-response","100","337403","0.0-100.0","null","null","","","","","","","","","","","","","","stimulus","","","1","5","","","","","","","","","",""
"","","","","","","","","","","","canvas-button-response","101","344694","0.0-101.0","7290","flower","","","","","","","","","","","","","","perceptual","","","1","5","","","","","14","car","6","","0",""
"","","","","","","","","","","","canvas-button-response","102","345758","0.0-102.0","1061","2","","","","","","","","","","","","","","confidence","","","1","5","","","","","","","","","","3"
"","","","","","","","","","","","html-keyboard-response","103","346759","0.0-103.0","null","null","","","","","","","","","","","","","","feedback","Mon Oct 13 2025 23:03:44 GMT-0400 (Eastern Daylight Time)","27672","1","5","","","","","","","","","",""
"","","","","","","","","","","","preload","104","346760","0.0-104.0","","","","","true","","","","","","","","","","","preload","","","1","6","false","[]","[]","[]","","","","","",""
"","","","","","","","","","","","canvas-keyboard-response","105","347070","0.0-105.0","null","null","","","","","","","","","","","","","","fixation","","","1","6","","","","","","","","","",""
"","","","","","","","","","","","canvas-keyboard-response","106","347384","0.0-106.0","null","null","","","","","","","","","","","","","","stimulus","","","1","6","","","","","","","","","",""
"","","","","","","","","","","","canvas-button-response","107","348544","0.0-107.0","1157","cat","","","","","","","","","","","","","","perceptual","","","1","6","","","","","74","cat","6","","1",""
"","","","","","","","","","","","canvas-button-response","108","349662","0.0-108.0","1115","2","","","","","","","","","","","","","","confidence","","","1","6","","","","","","","","","","4"
"","","","","","","","","","","","html-keyboard-response","109","350673","0.0-109.0","null","null","","","","","","","","","","","","","","feedback","Mon Oct 13 2025 23:03:48 GMT-0400 (Eastern Daylight Time)","27672","1","6","","","","","","","","","",""
"","","","","","","","","","","","preload","110","350674","0.0-110.0","","","","","true","","","","","","","","","","","preload","","","1","7","false","[]","[]","[]","","","","","",""
"","","","","","","","","","","","canvas-keyboard-response","111","350986","0.0-111.0","null","null","","","","","","","","","","","","","","fixation","","","1","7","","","","","","","","","",""
"","","","","","","","","","","","canvas-keyboard-response","112","351303","0.0-112.0","null","null","","","","","","","","","","","","","","stimulus","","","1","7","","","","","","","","","",""
"","","","","","","","","","","","canvas-button-response","113","352604","0.0-113.0","1299","bridge","","","","","","","","","","","","","","perceptual","","","1","7","","","","","44","bridge","6","","1",""
"","","","","","","","","","","","canvas-button-response","114","353172","0.0-114.0","566","4","","","","","","","","","","","","","","confidence","","","1","7","","","","","","","","","","5"
"","","","","","","","","","","","html-keyboard-response","115","354188","0.0-115.0","null","null","","","","","","","","","","","","","","feedback","Mon Oct 13 2025 23:03:52 GMT-0400 (Eastern Daylight Time)","27672","1","7","","","","","","","","","",""
"","","","","","","","","","","","preload","116","354189","0.0-116.0","","","","","true","","","","","","","","","","","preload","","","1","8","false","[]","[]","[]","","","","","",""
"","","","","","","","","","","","canvas-keyboard-response","117","354506","0.0-117.0","null","null","","","","","","","","","","","","","","fixation","","","1","8","","","","","","","","","",""
"","","","","","","","","","","","canvas-keyboard-response","118","354823","0.0-118.0","null","null","","","","","","","","","","","","","","stimulus","","","1","8","","","","","","","","","",""
"","","","","","","","","","","","canvas-button-response","119","356204","0.0-119.0","1380","flower","","","","","","","","","","","","","","perceptual","","","1","8","","","","","54","flower","6","","1",""
"","","","","","","","","","","","canvas-button-response","120","356869","0.0-120.0","663","4","","","","","","","","","","","","","","confidence","","","1","8","","","","","","","","","","6"
"","","","","","","","","","","","html-keyboard-response","121","357872","0.0-121.0","null","null","","","","","","","","","","","","","","feedback","Mon Oct 13 2025 23:03:55 GMT-0400 (Eastern Daylight Time)","27672","1","8","","","","","","","","","",""
"","","","","","","","","","","","preload","122","357872","0.0-122.0","","","","","true","","","","","","","","","","","preload","","","1","9","false","[]","[]","[]","","","","","",""
"","","","","","","","","","","","canvas-keyboard-response","123","358186","0.0-123.0","null","null","","","","","","","","","","","","","","fixation","","","1","9","","","","","","","","","",""
"","","","","","","","","","","","canvas-keyboard-response","124","358493","0.0-124.0","null","null","","","","","","","","","","","","","","stimulus","","","1","9","","","","","","","","","",""
"","","","","","","","","","","","canvas-button-response","125","360622","0.0-125.0","2127","phone","","","","","","","","","","","","","","perceptual","","","1","9","","","","","27","phone","10","","1",""
"","","","","","","","","","","","canvas-button-response","126","361742","0.0-126.0","1118","1","","","","","","","","","","","","","","confidence","","","1","9","","","","","","","","","","7"
"","","","","","","","","","","","html-keyboard-response","127","362745","0.0-127.0","null","null","","","","","","","","","","","","","","feedback","Mon Oct 13 2025 23:04:00 GMT-0400 (Eastern Daylight Time)","27672","1","9","","","","","","","","","",""
"","","","","","","","","","","","preload","128","362746","0.0-128.0","","","","","true","","","","","","","","","","","preload","","","1","10","false","[]","[]","[]","","","","","",""
"","","","","","","","","","","","canvas-keyboard-response","129","363049","0.0-129.0","null","null","","","","","","","","","","","","","","fixation","","","1","10","","","","","","","","","",""
"","","","","","","","","","","","canvas-keyboard-response","130","363351","0.0-130.0","null","null","","","","","","","","","","","","","","stimulus","","","1","10","","","","","","","","","",""
"","","","","","","","","","","","canvas-button-response","131","365495","0.0-131.0","2142","train","","","","","","","","","","","","","","perceptual","","","1","10","","","","","64","train","6","","1",""
"","","","","","","","","","","","canvas-button-response","132","366169","0.0-132.0","671","10","","","","","","","","","","","","","","confidence","","","1","10","","","","","","","","","","8"
"","","","","","","","","","","","html-keyboard-response","133","367173","0.0-133.0","null","null","","","","","","","","","","","","","","feedback","Mon Oct 13 2025 23:04:04 GMT-0400 (Eastern Daylight Time)","27672","1","10","","","","","","","","","",""
"","","","","","","","","","","","preload","134","367174","0.0-134.0","","","","","true","","","","","","","","","","","preload","","","1","11","false","[]","[]","[]","","","","","",""
"","","","","","","","","","","","canvas-keyboard-response","135","367478","0.0-135.0","null","null","","","","","","","","","","","","","","fixation","","","1","11","","","","","","","","","",""
"","","","","","","","","","","","canvas-keyboard-response","136","367786","0.0-136.0","null","null","","","","","","","","","","","","","","stimulus","","","1","11","","","","","","","","","",""
"","","","","","","","","","","","canvas-button-response","137","374992","0.0-137.0","7204","house","","","","","","","","","","","","","","perceptual","","","1","11","","","","","94","knife","6","","0",""
"","","","","","","","","","","","canvas-button-response","138","375862","0.0-138.0","868","3","","","","","","","","","","","","","","confidence","","","1","11","","","","","","","","","","8"
"","","","","","","","","","","","html-keyboard-response","139","376865","0.0-139.0","null","null","","","","","","","","","","","","","","feedback","Mon Oct 13 2025 23:04:14 GMT-0400 (Eastern Daylight Time)","27672","1","11","","","","","","","","","",""
"","","","","","","","","","","","preload","140","376866","0.0-140.0","","","","","true","","","","","","","","","","","preload","","","1","12","false","[]","[]","[]","","","","","",""
"","","","","","","","","","","","canvas-keyboard-response","141","377174","0.0-141.0","null","null","","","","","","","","","","","","","","fixation","","","1","12","","","","","","","","","",""
"","","","","","","","","","","","canvas-keyboard-response","142","377489","0.0-142.0","null","null","","","","","","","","","","","","","","stimulus","","","1","12","","","","","","","","","",""
"","","","","","","","","","","","canvas-button-response","143","379786","0.0-143.0","2294","house","","","","","","","","","","","","","","perceptual","","","1","12","","","","","4","house","6","","1",""
"","","","","","","","","","","","canvas-button-response","144","380650","0.0-144.0","862","10","","","","","","","","","","","","","","confidence","","","1","12","","","","","","","","","","9"
"","","","","","","","","","","","html-keyboard-response","145","381655","0.0-145.0","null","null","","","","","","","","","","","","","","feedback","Mon Oct 13 2025 23:04:19 GMT-0400 (Eastern Daylight Time)","27672","1","12","","","","","","","","","",""
"","","","","","","","","","","","preload","146","381656","0.0-146.0","","","","","true","","","","","","","","","","","preload","","","1","13","false","[]","[]","[]","","","","","",""
"","","","","","","","","","","","canvas-keyboard-response","147","381966","0.0-147.0","null","null","","","","","","","","","","","","","","fixation","","","1","13","","","","","","","","","",""
"","","","","","","","","","","","canvas-keyboard-response","148","382269","0.0-148.0","null","null","","","","","","","","","","","","","","stimulus","","","1","13","","","","","","","","","",""
"","","","","","","","","","","","canvas-button-response","149","387520","0.0-149.0","5248","house","","","","","","","","","","","","","","perceptual","","","1","13","","","","","47","bridge","10","","0",""
"","","","","","","","","","","","canvas-button-response","150","388269","0.0-150.0","747","3","","","","","","","","","","","","","","confidence","","","1","13","","","","","","","","","","9"
"","","","","","","","","","","","html-keyboard-response","151","389271","0.0-151.0","null","null","","","","","","","","","","","","","","feedback","Mon Oct 13 2025 23:04:27 GMT-0400 (Eastern Daylight Time)","27672","1","13","","","","","","","","","",""
"","","","","","","","","","","","preload","152","389272","0.0-152.0","","","","","true","","","","","","","","","","","preload","","","1","14","false","[]","[]","[]","","","","","",""
"","","","","","","","","","","","canvas-keyboard-response","153","389574","0.0-153.0","null","null","","","","","","","","","","","","","","fixation","","","1","14","","","","","","","","","",""
"","","","","","","","","","","","canvas-keyboard-response","154","389879","0.0-154.0","null","null","","","","","","","","","","","","","","stimulus","","","1","14","","","","","","","","","",""
"","","","","","","","","","","","canvas-button-response","155","394110","0.0-155.0","4228","phone","","","","","","","","","","","","","","perceptual","","","1","14","","","","","77","cat","10","","0",""
"","","","","","","","","","","","canvas-button-response","156","394698","0.0-156.0","586","7","","","","","","","","","","","","","","confidence","","","1","14","","","","","","","","","","9"
"","","","","","","","","","","","html-keyboard-response","157","395707","0.0-157.0","null","null","","","","","","","","","","","","","","feedback","Mon Oct 13 2025 23:04:33 GMT-0400 (Eastern Daylight Time)","27672","1","14","","","","","","","","","",""
"","","","","","","","","","","","preload","158","395708","0.0-158.0","","","","","true","","","","","","","","","","","preload","","","1","15","false","[]","[]","[]","","","","","",""
"","","","","","","","","","","","canvas-keyboard-response","159","396015","0.0-159.0","null","null","","","","","","","","","","","","","","fixation","","","1","15","","","","","","","","","",""
"","","","","","","","","","","","canvas-keyboard-response","160","396331","0.0-160.0","null","null","","","","","","","","","","","","","","stimulus","","","1","15","","","","","","","","","",""
"","","","","","","","","","","","canvas-button-response","161","398597","0.0-161.0","2264","house","","","","","","","","","","","","","","perceptual","","","1","15","","","","","7","house","10","","1",""
"","","","","","","","","","","","canvas-button-response","162","399443","0.0-162.0","843","10","","","","","","","","","","","","","","confidence","","","1","15","","","","","","","","","","10"
"","","","","","","","","","","","html-keyboard-response","163","400455","0.0-163.0","null","null","","","","","","","","","","","","","","feedback","Mon Oct 13 2025 23:04:38 GMT-0400 (Eastern Daylight Time)","27672","1","15","","","","","","","","","",""
"","","","","","","","","","","","preload","164","400456","0.0-164.0","","","","","true","","","","","","","","","","","preload","","","1","16","false","[]","[]","[]","","","","","",""
"","","","","","","","","","","","canvas-keyboard-response","165","400766","0.0-165.0","null","null","","","","","","","","","","","","","","fixation","","","1","16","","","","","","","","","",""
"","","","","","","","","","","","canvas-keyboard-response","166","401068","0.0-166.0","null","null","","","","","","","","","","","","","","stimulus","","","1","16","","","","","","","","","",""
"","","","","","","","","","","","canvas-button-response","167","406459","0.0-167.0","5388","house","","","","","","","","","","","","","","perceptual","","","1","16","","","","","24","phone","6","","0",""
"","","","","","","","","","","","canvas-button-response","168","406964","0.0-168.0","502","3","","","","","","","","","","","","","","confidence","","","1","16","","","","","","","","","","10"
"","","","","","","","","","","","html-keyboard-response","169","407968","0.0-169.0","null","null","","","","","","","","","","","","","","feedback","Mon Oct 13 2025 23:04:45 GMT-0400 (Eastern Daylight Time)","27672","1","16","","","","","","","","","",""
"","","","","","","","","","","","preload","170","407968","0.0-170.0","","","","","true","","","","","","","","","","","preload","","","1","17","false","[]","[]","[]","","","","","",""
"","","","","","","","","","","","canvas-keyboard-response","171","408284","0.0-171.0","null","null","","","","","","","","","","","","","","fixation","","","1","17","","","","","","","","","",""
"","","","","","","","","","","","canvas-keyboard-response","172","408600","0.0-172.0","null","null","","","","","","","","","","","","","","stimulus","","","1","17","","","","","","","","","",""
"","","","","","","","","","","","canvas-button-response","173","410777","0.0-173.0","2176","train","","","","","","","","","","","","","","perceptual","","","1","17","","","","","67","train","10","","1",""
"","","","","","","","","","","","canvas-button-response","174","411211","0.0-174.0","432","8","","","","","","","","","","","","","","confidence","","","1","17","","","","","","","","","","11"
"","","","","","","","","","","","html-keyboard-response","175","412222","0.0-175.0","null","null","","","","","","","","","","","","","","feedback","Mon Oct 13 2025 23:04:50 GMT-0400 (Eastern Daylight Time)","27672","1","17","","","","","","","","","",""
"","","","","","","","","","","","preload","176","412223","0.0-176.0","","","","","true","","","","","","","","","","","preload","","","1","18","false","[]","[]","[]","","","","","",""
"","","","","","","","","","","","canvas-keyboard-response","177","412534","0.0-177.0","null","null","","","","","","","","","","","","","","fixation","","","1","18","","","","","","","","","",""
"","","","","","","","","","","","canvas-keyboard-response","178","412850","0.0-178.0","null","null","","","","","","","","","","","","","","stimulus","","","1","18","","","","","","","","","",""
"","","","","","","","","","","","canvas-button-response","179","414579","0.0-179.0","1726","flower","","","","","","","","","","","","","","perceptual","","","1","18","","","","","87","elephant","10","","0",""
"","","","","","","","","","","","canvas-button-response","180","415270","0.0-180.0","689","5","","","","","","","","","","","","","","confidence","","","1","18","","","","","","","","","","11"
"","","","","","","","","","","","html-keyboard-response","181","416288","0.0-181.0","null","null","","","","","","","","","","","","","","feedback","Mon Oct 13 2025 23:04:54 GMT-0400 (Eastern Daylight Time)","27672","1","18","","","","","","","","","",""
"","","","","","","","","","","","preload","182","416290","0.0-182.0","","","","","true","","","","","","","","","","","preload","","","1","19","false","[]","[]","[]","","","","","",""
"","","","","","","","","","","","canvas-keyboard-response","183","416599","0.0-183.0","null","null","","","","","","","","","","","","","","fixation","","","1","19","","","","","","","","","",""
"","","","","","","","","","","","canvas-keyboard-response","184","416916","0.0-184.0","null","null","","","","","","","","","","","","","","stimulus","","","1","19","","","","","","","","","",""
"","","","","","","","","","","","canvas-button-response","185","418063","0.0-185.0","1145","bed","","","","","","","","","","","","","","perceptual","","","1","19","","","","","34","bed","6","","1",""
"","","","","","","","","","","","canvas-button-response","186","419057","0.0-186.0","991","9","","","","","","","","","","","","","","confidence","","","1","19","","","","","","","","","","12"
"","","","","","","","","","","","html-keyboard-response","187","420073","0.0-187.0","null","null","","","","","","","","","","","","","","feedback","Mon Oct 13 2025 23:04:57 GMT-0400 (Eastern Daylight Time)","27672","1","19","","","","","","","","","",""
"","","","","","","","","","","","html-button-response","188","425249","0.0-188.0","5174","0","","","","","","","","","","","","","","start experiment","Mon Oct 13 2025 23:04:58 GMT-0400 (Eastern Daylight Time)","27672","1","19","","","","","","","","","",""
"","","","","","","","","","","","preload","189","425250","0.0-189.0","","","","","true","","","","","","","","","","","preload","","","2","0","false","[]","[]","[]","","","","","",""
"","","","","","","","","","","","canvas-keyboard-response","190","425567","0.0-190.0","null","null","","","","","","","","","","","","","","fixation","","","2","0","","","","","","","","","",""
"","","","","","","","","","","","canvas-keyboard-response","191","425882","0.0-191.0","null","null","","","","","","","","","","","","","","stimulus","","","2","0","","","","","","","","","",""
"","","","","","","","","","","","canvas-button-response","192","428344","0.0-192.0","2460","train","","","","","","","","","","","","","","perceptual","","","2","0","","","","","241","train","6","0","1",""
"","","","","","","","","","","","canvas-button-response","193","428988","0.0-193.0","641","10","","","","","","","","","","","","","","confidence","","","2","0","","","","","","","","","","1"
"","","","","","","","","","","","preload","194","428989","0.0-194.0","","","","","true","","","","","","","","","","","preload","","","2","1","false","[]","[]","[]","","","","","",""
"","","","","","","","","","","","canvas-keyboard-response","195","429301","0.0-195.0","null","null","","","","","","","","","","","","","","fixation","","","2","1","","","","","","","","","",""
"","","","","","","","","","","","canvas-keyboard-response","196","429616","0.0-196.0","null","null","","","","","","","","","","","","","","stimulus","","","2","1","","","","","","","","","",""
"","","","","","","","","","","","canvas-button-response","197","433756","0.0-197.0","4137","house","","","","","","","","","","","","","","perceptual","","","2","1","","","","","5","house","6","0","1",""
"","","","","","","","","","","","canvas-button-response","198","434566","0.0-198.0","808","7","","","","","","","","","","","","","","confidence","","","2","1","","","","","","","","","","2"
"","","","","","","","","","","","preload","199","434566","0.0-199.0","","","","","true","","","","","","","","","","","preload","","","2","2","false","[]","[]","[]","","","","","",""
"","","","","","","","","","","","canvas-keyboard-response","200","434882","0.0-200.0","null","null","","","","","","","","","","","","","","fixation","","","2","2","","","","","","","","","",""
"","","","","","","","","","","","canvas-keyboard-response","201","435184","0.0-201.0","null","null","","","","","","","","","","","","","","stimulus","","","2","2","","","","","","","","","",""
"","","","","","","","","","","","canvas-button-response","202","436708","0.0-202.0","1522","phone","","","","","","","","","","","","","","perceptual","","","2","2","","","","","88","phone","6","0","1",""
"","","","","","","","","","","","canvas-button-response","203","437433","0.0-203.0","722","10","","","","","","","","","","","","","","confidence","","","2","2","","","","","","","","","","3"
"","","","","","","","","","","","preload","204","437434","0.0-204.0","","","","","true","","","","","","","","","","","preload","","","2","3","false","[]","[]","[]","","","","","",""
"","","","","","","","","","","","canvas-keyboard-response","205","437749","0.0-205.0","null","null","","","","","","","","","","","","","","fixation","","","2","3","","","","","","","","","",""
"","","","","","","","","","","","canvas-keyboard-response","206","438052","0.0-206.0","null","null","","","","","","","","","","","","","","stimulus","","","2","3","","","","","","","","","",""
"","","","","","","","","","","","canvas-button-response","207","443403","0.0-207.0","5350","bed","","","","","","","","","","","","","","perceptual","","","2","3","","","","","142","bed","10","0","1",""
"","","","","","","","","","","","canvas-button-response","208","443956","0.0-208.0","550","4","","","","","","","","","","","","","","confidence","","","2","3","","","","","","","","","","4"
"","","","","","","","","","","","preload","209","443957","0.0-209.0","","","","","true","","","","","","","","","","","preload","","","2","4","false","[]","[]","[]","","","","","",""
"","","","","","","","","","","","canvas-keyboard-response","210","444267","0.0-210.0","null","null","","","","","","","","","","","","","","fixation","","","2","4","","","","","","","","","",""
"","","","","","","","","","","","canvas-keyboard-response","211","444582","0.0-211.0","null","null","","","","","","","","","","","","","","stimulus","","","2","4","","","","","","","","","",""
"","","","","","","","","","","","canvas-button-response","212","445838","0.0-212.0","1254","bed","","","","","","","","","","","","","","perceptual","","","2","4","","","","","130","bed","6","0","1",""
"","","","","","","","","","","","canvas-button-response","213","446593","0.0-213.0","752","9","","","","","","","","","","","","","","confidence","","","2","4","","","","","","","","","","5"
"","","","","","","","","","","","preload","214","446593","0.0-214.0","","","","","true","","","","","","","","","","","preload","","","2","5","false","[]","[]","[]","","","","","",""
"","","","","","","","","","","","canvas-keyboard-response","215","446899","0.0-215.0","null","null","","","","","","","","","","","","","","fixation","","","2","5","","","","","","","","","",""
"","","","","","","","","","","","canvas-keyboard-response","216","447217","0.0-216.0","null","null","","","","","","","","","","","","","","stimulus","","","2","5","","","","","","","","","",""
"","","","","","","","","","","","canvas-button-response","217","448071","0.0-217.0","853","elephant","","","","","","","","","","","","","","perceptual","","","2","5","","","","","356","elephant","10","0","1",""
"","","","","","","","","","","","canvas-button-response","218","448684","0.0-218.0","611","10","","","","","","","","","","","","","","confidence","","","2","5","","","","","","","","","","6"
"","","","","","","","","","","","preload","219","448684","0.0-219.0","","","","","true","","","","","","","","","","","preload","","","2","6","false","[]","[]","[]","","","","","",""
"","","","","","","","","","","","canvas-keyboard-response","220","448999","0.0-220.0","null","null","","","","","","","","","","","","","","fixation","","","2","6","","","","","","","","","",""
"","","","","","","","","","","","canvas-keyboard-response","221","449314","0.0-221.0","null","null","","","","","","","","","","","","","","stimulus","","","2","6","","","","","","","","","",""
"","","","","","","","","","","","canvas-button-response","222","450757","0.0-222.0","1439","train","","","","","","","","","","","","","","perceptual","","","2","6","","","","","276","train","10","0","1",""
"","","","","","","","","","","","canvas-button-response","223","451407","0.0-223.0","645","10","","","","","","","","","","","","","","confidence","","","2","6","","","","","","","","","","7"
"","","","","","","","","","","","preload","224","451408","0.0-224.0","","","","","true","","","","","","","","","","","preload","","","2","7","false","[]","[]","[]","","","","","",""
"","","","","","","","","","","","canvas-keyboard-response","225","451715","0.0-225.0","null","null","","","","","","","","","","","","","","fixation","","","2","7","","","","","","","","","",""
"","","","","","","","","","","","canvas-keyboard-response","226","452032","0.0-226.0","null","null","","","","","","","","","","","","","","stimulus","","","2","7","","","","","","","","","",""
"","","","","","","","","","","","canvas-button-response","227","457188","0.0-227.0","5154","flower","","","","","","","","","","","","","","perceptual","","","2","7","","","","","9","house","6","0","0",""
"","","","","","","","","","","","canvas-button-response","228","457998","0.0-228.0","808","1","","","","","","","","","","","","","","confidence","","","2","7","","","","","","","","","","7"
"","","","","","","","","","","","preload","229","457999","0.0-229.0","","","","","true","","","","","","","","","","","preload","","","2","8","false","[]","[]","[]","","","","","",""
"","","","","","","","","","","","canvas-keyboard-response","230","458300","0.0-230.0","null","null","","","","","","","","","","","","","","fixation","","","2","8","","","","","","","","","",""
"","","","","","","","","","","","canvas-keyboard-response","231","458604","0.0-231.0","null","null","","","","","","","","","","","","","","stimulus","","","2","8","","","","","","","","","",""
"","","","","","","","","","","","canvas-button-response","232","462145","0.0-232.0","3540","house","","","","","","","","","","","","","","perceptual","","","2","8","","","","","194","bridge","10","0","0",""
"","","","","","","","","","","","canvas-button-response","233","463334","0.0-233.0","1186","3","","","","","","","","","","","","","","confidence","","","2","8","","","","","","","","","","7"
"","","","","","","","","","","","preload","234","463335","0.0-234.0","","","","","true","","","","","","","","","","","preload","","","2","9","false","[]","[]","[]","","","","","",""
"","","","","","","","","","","","canvas-keyboard-response","235","463647","0.0-235.0","null","null","","","","","","","","","","","","","","fixation","","","2","9","","","","","","","","","",""
"","","","","","","","","","","","canvas-keyboard-response","236","463950","0.0-236.0","null","null","","","","","","","","","","","","","","stimulus","","","2","9","","","","","","","","","",""
"","","","","","","","","","","","canvas-button-response","237","467896","0.0-237.0","3944","bridge","","","","","","","","","","","","","","perceptual","","","2","9","","","","","114","phone","10","0","0",""
"","","","","","","","","","","","canvas-button-response","238","468935","0.0-238.0","1037","1","","","","","","","","","","","","","","confidence","","","2","9","","","","","","","","","","7"
"","","","","","","","","","","","preload","239","468936","0.0-239.0","","","","","true","","","","","","","","","","","preload","","","2","10","false","[]","[]","[]","","","","","",""
"","","","","","","","","","","","canvas-keyboard-response","240","469253","0.0-240.0","null","null","","","","","","","","","","","","","","fixation","","","2","10","","","","","","","","","",""
"","","","","","","","","","","","canvas-keyboard-response","241","469566","0.0-241.0","null","null","","","","","","","","","","","","","","stimulus","","","2","10","","","","","","","","","",""
"","","","","","","","","","","","canvas-button-response","242","474958","0.0-242.0","5389","knife","","","","","","","","","","","","","","perceptual","","","2","10","","","","","320","elephant","6","0","0",""
"","","","","","","","","","","","canvas-button-response","243","476210","0.0-243.0","1250","0","","","","","","","","","","","","","","confidence","","","2","10","","","","","","","","","","7"
"","","","","","","","","","","","preload","244","476211","0.0-244.0","","","","","true","","","","","","","","","","","preload","","","2","11","false","[]","[]","[]","","","","","",""
"","","","","","","","","","","","canvas-keyboard-response","245","476515","0.0-245.0","null","null","","","","","","","","","","","","","","fixation","","","2","11","","","","","","","","","",""
"","","","","","","","","","","","canvas-keyboard-response","246","476831","0.0-246.0","null","null","","","","","","","","","","","","","","stimulus","","","2","11","","","","","","","","","",""
"","","","","","","","","","","","canvas-button-response","247","478741","0.0-247.0","1908","train","","","","","","","","","","","","","","perceptual","","","2","11","","","","","267","train","10","0","1",""
"","","","","","","","","","","","canvas-button-response","248","480017","0.0-248.0","1274","3","","","","","","","","","","","","","","confidence","","","2","11","","","","","","","","","","8"
"","","","","","","","","","","","preload","249","480018","0.0-249.0","","","","","true","","","","","","","","","","","preload","","","2","12","false","[]","[]","[]","","","","","",""
"","","","","","","","","","","","canvas-keyboard-response","250","480332","0.0-250.0","null","null","","","","","","","","","","","","","","fixation","","","2","12","","","","","","","","","",""
"","","","","","","","","","","","canvas-keyboard-response","251","480649","0.0-251.0","null","null","","","","","","","","","","","","","","stimulus","","","2","12","","","","","","","","","",""
"","","","","","","","","","","","canvas-button-response","252","481433","0.0-252.0","782","flower","","","","","","","","","","","","","","perceptual","","","2","12","","","","","219","flower","6","0","1",""
"","","","","","","","","","","","canvas-button-response","253","482310","0.0-253.0","874","10","","","","","","","","","","","","","","confidence","","","2","12","","","","","","","","","","9"
"","","","","","","","","","","","preload","254","482311","0.0-254.0","","","","","true","","","","","","","","","","","preload","","","2","13","false","[]","[]","[]","","","","","",""
"","","","","","","","","","","","canvas-keyboard-response","255","482618","0.0-255.0","null","null","","","","","","","","","","","","","","fixation","","","2","13","","","","","","","","","",""
"","","","","","","","","","","","canvas-keyboard-response","256","482935","0.0-256.0","null","null","","","","","","","","","","","","","","stimulus","","","2","13","","","","","","","","","",""
"","","","","","","","","","","","canvas-button-response","257","483842","0.0-257.0","905","flower","","","","","","","","","","","","","","perceptual","","","2","13","","","","","213","flower","6","0","1",""
"","","","","","","","","","","","canvas-button-response","258","485030","0.0-258.0","1185","10","","","","","","","","","","","","","","confidence","","","2","13","","","","","","","","","","10"
"","","","","","","","","","","","preload","259","485031","0.0-259.0","","","","","true","","","","","","","","","","","preload","","","2","14","false","[]","[]","[]","","","","","",""
"","","","","","","","","","","","canvas-keyboard-response","260","485335","0.0-260.0","null","null","","","","","","","","","","","","","","fixation","","","2","14","","","","","","","","","",""
"","","","","","","","","","","","canvas-keyboard-response","261","485649","0.0-261.0","null","null","","","","","","","","","","","","","","stimulus","","","2","14","","","","","","","","","",""
"","","","","","","","","","","","canvas-button-response","262","488694","0.0-262.0","3042","phone","","","","","","","","","","","","","","perceptual","","","2","14","","","","","93","phone","6","0","1",""
"","","","","","","","","","","","canvas-button-response","263","489641","0.0-263.0","945","4","","","","","","","","","","","","","","confidence","","","2","14","","","","","","","","","","11"
"","","","","","","","","","","","preload","264","489642","0.0-264.0","","","","","true","","","","","","","","","","","preload","","","2","15","false","[]","[]","[]","","","","","",""
"","","","","","","","","","","","canvas-keyboard-response","265","489949","0.0-265.0","null","null","","","","","","","","","","","","","","fixation","","","2","15","","","","","","","","","",""
"","","","","","","","","","","","canvas-keyboard-response","266","490266","0.0-266.0","null","null","","","","","","","","","","","","","","stimulus","","","2","15","","","","","","","","","",""
"","","","","","","","","","","","canvas-button-response","267","492907","0.0-267.0","2639","train","","","","","","","","","","","","","","perceptual","","","2","15","","","","","275","train","10","0","1",""
"","","","","","","","","","","","canvas-button-response","268","493758","0.0-268.0","849","2","","","","","","","","","","","","","","confidence","","","2","15","","","","","","","","","","12"
"","","","","","","","","","","","preload","269","493759","0.0-269.0","","","","","true","","","","","","","","","","","preload","","","2","16","false","[]","[]","[]","","","","","",""
"","","","","","","","","","","","canvas-keyboard-response","270","494068","0.0-270.0","null","null","","","","","","","","","","","","","","fixation","","","2","16","","","","","","","","","",""
"","","","","","","","","","","","canvas-keyboard-response","271","494384","0.0-271.0","null","null","","","","","","","","","","","","","","stimulus","","","2","16","","","","","","","","","",""
"","","","","","","","","","","","canvas-button-response","272","499398","0.0-272.0","5011","phone","","","","","","","","","","","","","","perceptual","","","2","16","","","","","92","phone","6","0","1",""
"","","","","","","","","","","","canvas-button-response","273","500076","0.0-273.0","676","9","","","","","","","","","","","","","","confidence","","","2","16","","","","","","","","","","13"
"","","","","","","","","","","","preload","274","500077","0.0-274.0","","","","","true","","","","","","","","","","","preload","","","2","17","false","[]","[]","[]","","","","","",""
"","","","","","","","","","","","canvas-keyboard-response","275","500381","0.0-275.0","null","null","","","","","","","","","","","","","","fixation","","","2","17","","","","","","","","","",""
"","","","","","","","","","","","canvas-keyboard-response","276","500684","0.0-276.0","null","null","","","","","","","","","","","","","","stimulus","","","2","17","","","","","","","","","",""
"","","","","","","","","","","","canvas-button-response","277","502070","0.0-277.0","1383","train","","","","","","","","","","","","","","perceptual","","","2","17","","","","","260","train","10","0","1",""
"","","","","","","","","","","","canvas-button-response","278","502523","0.0-278.0","450","8","","","","","","","","","","","","","","confidence","","","2","17","","","","","","","","","","14"
"","","","","","","","","","","","preload","279","502523","0.0-279.0","","","","","true","","","","","","","","","","","preload","","","2","18","false","[]","[]","[]","","","","","",""
"","","","","","","","","","","","canvas-keyboard-response","280","502830","0.0-280.0","null","null","","","","","","","","","","","","","","fixation","","","2","18","","","","","","","","","",""
"","","","","","","","","","","","canvas-keyboard-response","281","503146","0.0-281.0","null","null","","","","","","","","","","","","","","stimulus","","","2","18","","","","","","","","","",""
"","","","","","","","","","","","canvas-button-response","282","504263","0.0-282.0","1115","bed","","","","","","","","","","","","","","perceptual","","","2","18","","","","","120","bed","6","0","1",""
"","","","","","","","","","","","canvas-button-response","283","505397","0.0-283.0","1131","10","","","","","","","","","","","","","","confidence","","","2","18","","","","","","","","","","15"
"","","","","","","","","","","","preload","284","505397","0.0-284.0","","","","","true","","","","","","","","","","","preload","","","2","19","false","[]","[]","[]","","","","","",""
"","","","","","","","","","","","canvas-keyboard-response","285","505713","0.0-285.0","null","null","","","","","","","","","","","","","","fixation","","","2","19","","","","","","","","","",""
"","","","","","","","","","","","canvas-keyboard-response","286","506015","0.0-286.0","null","null","","","","","","","","","","","","","","stimulus","","","2","19","","","","","","","","","",""
"","","","","","","","","","","","canvas-button-response","287","509372","0.0-287.0","3355","cat","","","","","","","","","","","","","","perceptual","","","2","19","","","","","399","knife","10","0","0",""
"","","","","","","","","","","","canvas-button-response","288","510125","0.0-288.0","751","1","","","","","","","","","","","","","","confidence","","","2","19","","","","","","","","","","15"
"","","","","","","","","","","","preload","289","510126","0.0-289.0","","","","","true","","","","","","","","","","","preload","","","2","20","false","[]","[]","[]","","","","","",""
"","","","","","","","","","","","canvas-keyboard-response","290","510430","0.0-290.0","null","null","","","","","","","","","","","","","","fixation","","","2","20","","","","","","","","","",""
"","","","","","","","","","","","canvas-keyboard-response","291","510733","0.0-291.0","null","null","","","","","","","","","","","","","","stimulus","","","2","20","","","","","","","","","",""
"","","","","","","","","","","","canvas-button-response","292","511504","0.0-292.0","768","knife","","","","","","","","","","","","","","perceptual","","","2","20","","","","","366","knife","6","0","1",""
"","","","","","","","","","","","canvas-button-response","293","512685","0.0-293.0","1179","10","","","","","","","","","","","","","","confidence","","","2","20","","","","","","","","","","16"
"","","","","","","","","","","","preload","294","512686","0.0-294.0","","","","","true","","","","","","","","","","","preload","","","2","21","false","[]","[]","[]","","","","","",""
"","","","","","","","","","","","canvas-keyboard-response","295","512997","0.0-295.0","null","null","","","","","","","","","","","","","","fixation","","","2","21","","","","","","","","","",""
"","","","","","","","","","","","canvas-keyboard-response","296","513315","0.0-296.0","null","null","","","","","","","","","","","","","","stimulus","","","2","21","","","","","","","","","",""
"","","","","","","","","","","","canvas-button-response","297","517219","0.0-297.0","3902","bridge","","","","","","","","","","","","","","perceptual","","","2","21","","","","","182","bridge","10","0","1",""
"","","","","","","","","","","","canvas-button-response","298","518392","0.0-298.0","1170","4","","","","","","","","","","","","","","confidence","","","2","21","","","","","","","","","","17"
"","","","","","","","","","","","preload","299","518393","0.0-299.0","","","","","true","","","","","","","","","","","preload","","","2","22","false","[]","[]","[]","","","","","",""
"","","","","","","","","","","","canvas-keyboard-response","300","518697","0.0-300.0","null","null","","","","","","","","","","","","","","fixation","","","2","22","","","","","","","","","",""
"","","","","","","","","","","","canvas-keyboard-response","301","519011","0.0-301.0","null","null","","","","","","","","","","","","","","stimulus","","","2","22","","","","","","","","","",""
"","","","","","","","","","","","canvas-button-response","302","520101","0.0-302.0","1089","train","","","","","","","","","","","","","","perceptual","","","2","22","","","","","273","train","10","0","1",""
"","","","","","","","","","","","canvas-button-response","303","521341","0.0-303.0","1238","4","","","","","","","","","","","","","","confidence","","","2","22","","","","","","","","","","18"
"","","","","","","","","","","","preload","304","521342","0.0-304.0","","","","","true","","","","","","","","","","","preload","","","2","23","false","[]","[]","[]","","","","","",""
"","","","","","","","","","","","canvas-keyboard-response","305","521648","0.0-305.0","null","null","","","","","","","","","","","","","","fixation","","","2","23","","","","","","","","","",""
"","","","","","","","","","","","canvas-keyboard-response","306","521963","0.0-306.0","null","null","","","","","","","","","","","","","","stimulus","","","2","23","","","","","","","","","",""
"","","","","","","","","","","","canvas-button-response","307","523088","0.0-307.0","1124","elephant","","","","","","","","","","","","","","perceptual","","","2","23","","","","","287","cat","6","0","0",""
"","","","","","","","","","","","canvas-button-response","308","523724","0.0-308.0","634","10","","","","","","","","","","","","","","confidence","","","2","23","","","","","","","","","","18"
"","","","","","","","","","","","preload","309","523725","0.0-309.0","","","","","true","","","","","","","","","","","preload","","","2","24","false","[]","[]","[]","","","","","",""
"","","","","","","","","","","","canvas-keyboard-response","310","524031","0.0-310.0","null","null","","","","","","","","","","","","","","fixation","","","2","24","","","","","","","","","",""
"","","","","","","","","","","","canvas-keyboard-response","311","524347","0.0-311.0","null","null","","","","","","","","","","","","","","stimulus","","","2","24","","","","","","","","","",""
"","","","","","","","","","","","canvas-button-response","312","526740","0.0-312.0","2391","cat","","","","","","","","","","","","","","perceptual","","","2","24","","","","","298","cat","6","0","1",""
"","","","","","","","","","","","canvas-button-response","313","527433","0.0-313.0","691","10","","","","","","","","","","","","","","confidence","","","2","24","","","","","","","","","","19"
"","","","","","","","","","","","preload","314","527433","0.0-314.0","","","","","true","","","","","","","","","","","preload","","","2","25","false","[]","[]","[]","","","","","",""
"","","","","","","","","","","","canvas-keyboard-response","315","527745","0.0-315.0","null","null","","","","","","","","","","","","","","fixation","","","2","25","","","","","","","","","",""
"","","","","","","","","","","","canvas-keyboard-response","316","528066","0.0-316.0","null","null","","","","","","","","","","","","","","stimulus","","","2","25","","","","","","","","","",""
"","","","","","","","","","","","canvas-button-response","317","531247","0.0-317.0","3178","cat","","","","","","","","","","","","","","perceptual","","","2","25","","","","","326","elephant","6","0","0",""
"","","","","","","","","","","","canvas-button-response","318","532045","0.0-318.0","796","6","","","","","","","","","","","","","","confidence","","","2","25","","","","","","","","","","19"
"","","","","","","","","","","","preload","319","532045","0.0-319.0","","","","","true","","","","","","","","","","","preload","","","2","26","false","[]","[]","[]","","","","","",""
"","","","","","","","","","","","canvas-keyboard-response","320","532363","0.0-320.0","null","null","","","","","","","","","","","","","","fixation","","","2","26","","","","","","","","","",""
"","","","","","","","","","","","canvas-keyboard-response","321","532666","0.0-321.0","null","null","","","","","","","","","","","","","","stimulus","","","2","26","","","","","","","","","",""
"","","","","","","","","","","","canvas-button-response","322","536351","0.0-322.0","3682","cat","","","","","","","","","","","","","","perceptual","","","2","26","","","","","34","house","10","0","0",""
"","","","","","","","","","","","canvas-button-response","323","537385","0.0-323.0","1031","3","","","","","","","","","","","","","","confidence","","","2","26","","","","","","","","","","19"
"","","","","","","","","","","","preload","324","537386","0.0-324.0","","","","","true","","","","","","","","","","","preload","","","2","27","false","[]","[]","[]","","","","","",""
"","","","","","","","","","","","canvas-keyboard-response","325","537698","0.0-325.0","null","null","","","","","","","","","","","","","","fixation","","","2","27","","","","","","","","","",""
"","","","","","","","","","","","canvas-keyboard-response","326","538011","0.0-326.0","null","null","","","","","","","","","","","","","","stimulus","","","2","27","","","","","","","","","",""
"","","","","","","","","","","","canvas-button-response","327","540230","0.0-327.0","2217","bridge","","","","","","","","","","","","","","perceptual","","","2","27","","","","","32","house","10","0","0",""
"","","","","","","","","","","","canvas-button-response","328","541162","0.0-328.0","931","4","","","","","","","","","","","","","","confidence","","","2","27","","","","","","","","","","19"
"","","","","","","","","","","","preload","329","541163","0.0-329.0","","","","","true","","","","","","","","","","","preload","","","2","28","false","[]","[]","[]","","","","","",""
"","","","","","","","","","","","canvas-keyboard-response","330","541477","0.0-330.0","null","null","","","","","","","","","","","","","","fixation","","","2","28","","","","","","","","","",""
"","","","","","","","","","","","canvas-keyboard-response","331","541780","0.0-331.0","null","null","","","","","","","","","","","","","","stimulus","","","2","28","","","","","","","","","",""
"","","","","","","","","","","","canvas-button-response","332","542849","0.0-332.0","1067","flower","","","","","","","","","","","","","","perceptual","","","2","28","","","","","229","flower","10","0","1",""
"","","","","","","","","","","","canvas-button-response","333","544212","0.0-333.0","1360","8","","","","","","","","","","","","","","confidence","","","2","28","","","","","","","","","","20"
"","","","","","","","","","","","preload","334","544213","0.0-334.0","","","","","true","","","","","","","","","","","preload","","","2","29","false","[]","[]","[]","","","","","",""
"","","","","","","","","","","","canvas-keyboard-response","335","544529","0.0-335.0","null","null","","","","","","","","","","","","","","fixation","","","2","29","","","","","","","","","",""
"","","","","","","","","","","","canvas-keyboard-response","336","544847","0.0-336.0","null","null","","","","","","","","","","","","","","stimulus","","","2","29","","","","","","","","","",""
"","","","","","","","","","","","canvas-button-response","337","547715","0.0-337.0","2866","house","","","","","","","","","","","","","","perceptual","","","2","29","","","","","128","bed","6","0","0",""
"","","","","","","","","","","","canvas-button-response","338","548376","0.0-338.0","659","3","","","","","","","","","","","","","","confidence","","","2","29","","","","","","","","","","20"
"","","","","","","","","","","","preload","339","548377","0.0-339.0","","","","","true","","","","","","","","","","","preload","","","2","30","false","[]","[]","[]","","","","","",""
"","","","","","","","","","","","canvas-keyboard-response","340","548684","0.0-340.0","null","null","","","","","","","","","","","","","","fixation","","","2","30","","","","","","","","","",""
"","","","","","","","","","","","canvas-keyboard-response","341","549000","0.0-341.0","null","null","","","","","","","","","","","","","","stimulus","","","2","30","","","","","","","","","",""
"","","","","","","","","","","","canvas-button-response","342","555490","0.0-342.0","6488","phone","","","","","","","","","","","","","","perceptual","","","2","30","","","","","144","bed","10","0","0",""
"","","","","","","","","","","","canvas-button-response","343","556692","0.0-343.0","1199","7","","","","","","","","","","","","","","confidence","","","2","30","","","","","","","","","","20"
"","","","","","","","","","","","preload","344","556693","0.0-344.0","","","","","true","","","","","","","","","","","preload","","","2","31","false","[]","[]","[]","","","","","",""
"","","","","","","","","","","","canvas-keyboard-response","345","556996","0.0-345.0","null","null","","","","","","","","","","","","","","fixation","","","2","31","","","","","","","","","",""
"","","","","","","","","","","","canvas-keyboard-response","346","557311","0.0-346.0","null","null","","","","","","","","","","","","","","stimulus","","","2","31","","","","","","","","","",""
"","","","","","","","","","","","canvas-button-response","347","558366","0.0-347.0","1053","flower","","","","","","","","","","","","","","perceptual","","","2","31","","","","","221","flower","10","0","1",""
"","","","","","","","","","","","canvas-button-response","348","559190","0.0-348.0","822","10","","","","","","","","","","","","","","confidence","","","2","31","","","","","","","","","","21"
"","","","","","","","","","","","preload","349","559191","0.0-349.0","","","","","true","","","","","","","","","","","preload","","","2","32","false","[]","[]","[]","","","","","",""
"","","","","","","","","","","","canvas-keyboard-response","350","559496","0.0-350.0","null","null","","","","","","","","","","","","","","fixation","","","2","32","","","","","","","","","",""
"","","","","","","","","","","","canvas-keyboard-response","351","559813","0.0-351.0","null","null","","","","","","","","","","","","","","stimulus","","","2","32","","","","","","","","","",""
"","","","","","","","","","","","canvas-button-response","352","561127","0.0-352.0","1312","phone","","","","","","","","","","","","","","perceptual","","","2","32","","","","","119","phone","10","0","1",""
"","","","","","","","","","","","canvas-button-response","353","562302","0.0-353.0","1173","4","","","","","","","","","","","","","","confidence","","","2","32","","","","","","","","","","22"
"","","","","","","","","","","","preload","354","562302","0.0-354.0","","","","","true","","","","","","","","","","","preload","","","2","33","false","[]","[]","[]","","","","","",""
"","","","","","","","","","","","canvas-keyboard-response","355","562613","0.0-355.0","null","null","","","","","","","","","","","","","","fixation","","","2","33","","","","","","","","","",""
"","","","","","","","","","","","canvas-keyboard-response","356","562929","0.0-356.0","null","null","","","","","","","","","","","","","","stimulus","","","2","33","","","","","","","","","",""
"","","","","","","","","","","","canvas-button-response","357","565560","0.0-357.0","2630","car","","","","","","","","","","","","","","perceptual","","","2","33","","","","","369","knife","6","0","0",""
"","","","","","","","","","","","canvas-button-response","358","566703","0.0-358.0","1141","1","","","","","","","","","","","","","","confidence","","","2","33","","","","","","","","","","22"
"","","","","","","","","","","","preload","359","566704","0.0-359.0","","","","","true","","","","","","","","","","","preload","","","2","34","false","[]","[]","[]","","","","","",""
"","","","","","","","","","","","canvas-keyboard-response","360","567012","0.0-360.0","null","null","","","","","","","","","","","","","","fixation","","","2","34","","","","","","","","","",""
"","","","","","","","","","","","canvas-keyboard-response","361","567330","0.0-361.0","null","null","","","","","","","","","","","","","","stimulus","","","2","34","","","","","","","","","",""
"","","","","","","","","","","","canvas-button-response","362","568125","0.0-362.0","792","elephant","","","","","","","","","","","","","","perceptual","","","2","34","","","","","331","elephant","6","0","1",""
"","","","","","","","","","","","canvas-button-response","363","568727","0.0-363.0","601","10","","","","","","","","","","","","","","confidence","","","2","34","","","","","","","","","","23"
"","","","","","","","","","","","preload","364","568728","0.0-364.0","","","","","true","","","","","","","","","","","preload","","","2","35","false","[]","[]","[]","","","","","",""
"","","","","","","","","","","","canvas-keyboard-response","365","569029","0.0-365.0","null","null","","","","","","","","","","","","","","fixation","","","2","35","","","","","","","","","",""
"","","","","","","","","","","","canvas-keyboard-response","366","569345","0.0-366.0","null","null","","","","","","","","","","","","","","stimulus","","","2","35","","","","","","","","","",""
"","","","","","","","","","","","canvas-button-response","367","570240","0.0-367.0","892","knife","","","","","","","","","","","","","","perceptual","","","2","35","","","","","389","knife","10","0","1",""
"","","","","","","","","","","","canvas-button-response","368","571029","0.0-368.0","786","10","","","","","","","","","","","","","","confidence","","","2","35","","","","","","","","","","24"
"","","","","","","","","","","","preload","369","571029","0.0-369.0","","","","","true","","","","","","","","","","","preload","","","2","36","false","[]","[]","[]","","","","","",""
"","","","","","","","","","","","canvas-keyboard-response","370","571345","0.0-370.0","null","null","","","","","","","","","","","","","","fixation","","","2","36","","","","","","","","","",""
"","","","","","","","","","","","canvas-keyboard-response","371","571661","0.0-371.0","null","null","","","","","","","","","","","","","","stimulus","","","2","36","","","","","","","","","",""
"","","","","","","","","","","","canvas-button-response","372","572959","0.0-372.0","1296","car","","","","","","","","","","","","","","perceptual","","","2","36","","","","","102","phone","10","0","0",""
"","","","","","","","","","","","canvas-button-response","373","573689","0.0-373.0","727","5","","","","","","","","","","","","","","confidence","","","2","36","","","","","","","","","","24"
"","","","","","","","","","","","preload","374","573690","0.0-374.0","","","","","true","","","","","","","","","","","preload","","","2","37","false","[]","[]","[]","","","","","",""
"","","","","","","","","","","","canvas-keyboard-response","375","573999","0.0-375.0","null","null","","","","","","","","","","","","","","fixation","","","2","37","","","","","","","","","",""
"","","","","","","","","","","","canvas-keyboard-response","376","574316","0.0-376.0","null","null","","","","","","","","","","","","","","stimulus","","","2","37","","","","","","","","","",""
"","","","","","","","","","","","canvas-button-response","377","574982","0.0-377.0","664","elephant","","","","","","","","","","","","","","perceptual","","","2","37","","","","","341","elephant","10","0","1",""
"","","","","","","","","","","","canvas-button-response","378","575590","0.0-378.0","605","10","","","","","","","","","","","","","","confidence","","","2","37","","","","","","","","","","25"
"","","","","","","","","","","","preload","379","575591","0.0-379.0","","","","","true","","","","","","","","","","","preload","","","2","38","false","[]","[]","[]","","","","","",""
"","","","","","","","","","","","canvas-keyboard-response","380","575895","0.0-380.0","null","null","","","","","","","","","","","","","","fixation","","","2","38","","","","","","","","","",""
"","","","","","","","","","","","canvas-keyboard-response","381","576211","0.0-381.0","null","null","","","","","","","","","","","","","","stimulus","","","2","38","","","","","","","","","",""
"","","","","","","","","","","","canvas-button-response","382","579997","0.0-382.0","3783","car","","","","","","","","","","","","","","perceptual","","","2","38","","","","","248","train","6","0","0",""
"","","","","","","","","","","","canvas-button-response","383","580877","0.0-383.0","876","4","","","","","","","","","","","","","","confidence","","","2","38","","","","","","","","","","25"
"","","","","","","","","","","","preload","384","580877","0.0-384.0","","","","","true","","","","","","","","","","","preload","","","2","39","false","[]","[]","[]","","","","","",""
"","","","","","","","","","","","canvas-keyboard-response","385","581180","0.0-385.0","null","null","","","","","","","","","","","","","","fixation","","","2","39","","","","","","","","","",""
"","","","","","","","","","","","canvas-keyboard-response","386","581497","0.0-386.0","null","null","","","","","","","","","","","","","","stimulus","","","2","39","","","","","","","","","",""
"","","","","","","","","","","","canvas-button-response","387","582696","0.0-387.0","1197","phone","","","","","","","","","","","","","","perceptual","","","2","39","","","","","153","bed","10","0","0",""
"","","","","","","","","","","","canvas-button-response","388","583291","0.0-388.0","592","6","","","","","","","","","","","","","","confidence","","","2","39","","","","","","","","","","25"
"","","","","","","","","","","","preload","389","583291","0.0-389.0","","","","","true","","","","","","","","","","","preload","","","2","40","false","[]","[]","[]","","","","","",""
"","","","","","","","","","","","canvas-keyboard-response","390","583599","0.0-390.0","null","null","","","","","","","","","","","","","","fixation","","","2","40","","","","","","","","","",""
"","","","","","","","","","","","canvas-keyboard-response","391","583915","0.0-391.0","null","null","","","","","","","","","","","","","","stimulus","","","2","40","","","","","","","","","",""
"","","","","","","","","","","","canvas-button-response","392","584635","0.0-392.0","719","elephant","","","","","","","","","","","","","","perceptual","","","2","40","","","","","334","elephant","6","0","1",""
"","","","","","","","","","","","canvas-button-response","393","585189","0.0-393.0","551","10","","","","","","","","","","","","","","confidence","","","2","40","","","","","","","","","","26"
"","","","","","","","","","","","preload","394","585190","0.0-394.0","","","","","true","","","","","","","","","","","preload","","","2","41","false","[]","[]","[]","","","","","",""
"","","","","","","","","","","","canvas-keyboard-response","395","585495","0.0-395.0","null","null","","","","","","","","","","","","","","fixation","","","2","41","","","","","","","","","",""
"","","","","","","","","","","","canvas-keyboard-response","396","585811","0.0-396.0","null","null","","","","","","","","","","","","","","stimulus","","","2","41","","","","","","","","","",""
"","","","","","","","","","","","canvas-button-response","397","586792","0.0-397.0","979","bed","","","","","","","","","","","","","","perceptual","","","2","41","","","","","124","bed","6","0","1",""
"","","","","","","","","","","","canvas-button-response","398","587754","0.0-398.0","958","10","","","","","","","","","","","","","","confidence","","","2","41","","","","","","","","","","27"
"","","","","","","","","","","","preload","399","587754","0.0-399.0","","","","","true","","","","","","","","","","","preload","","","2","42","false","[]","[]","[]","","","","","",""
"","","","","","","","","","","","canvas-keyboard-response","400","588065","0.0-400.0","null","null","","","","","","","","","","","","","","fixation","","","2","42","","","","","","","","","",""
"","","","","","","","","","","","canvas-keyboard-response","401","588380","0.0-401.0","null","null","","","","","","","","","","","","","","stimulus","","","2","42","","","","","","","","","",""
"","","","","","","","","","","","canvas-button-response","402","589634","0.0-402.0","1252","train","","","","","","","","","","","","","","perceptual","","","2","42","","","","","278","train","10","0","1",""
"","","","","","","","","","","","canvas-button-response","403","590250","0.0-403.0","614","7","","","","","","","","","","","","","","confidence","","","2","42","","","","","","","","","","28"
"","","","","","","","","","","","preload","404","590251","0.0-404.0","","","","","true","","","","","","","","","","","preload","","","2","43","false","[]","[]","[]","","","","","",""
"","","","","","","","","","","","canvas-keyboard-response","405","590551","0.0-405.0","null","null","","","","","","","","","","","","","","fixation","","","2","43","","","","","","","","","",""
"","","","","","","","","","","","canvas-keyboard-response","406","590861","0.0-406.0","null","null","","","","","","","","","","","","","","stimulus","","","2","43","","","","","","","","","",""
"","","","","","","","","","","","canvas-button-response","407","591909","0.0-407.0","1046","car","","","","","","","","","","","","","","perceptual","","","2","43","","","","","58","car","6","0","1",""
"","","","","","","","","","","","canvas-button-response","408","593008","0.0-408.0","1098","10","","","","","","","","","","","","","","confidence","","","2","43","","","","","","","","","","29"
"","","","","","","","","","","","preload","409","593009","0.0-409.0","","","","","true","","","","","","","","","","","preload","","","2","44","false","[]","[]","[]","","","","","",""
"","","","","","","","","","","","canvas-keyboard-response","410","593325","0.0-410.0","null","null","","","","","","","","","","","","","","fixation","","","2","44","","","","","","","","","",""
"","","","","","","","","","","","canvas-keyboard-response","411","593643","0.0-411.0","null","null","","","","","","","","","","","","","","stimulus","","","2","44","","","","","","","","","",""
"","","","","","","","","","","","canvas-button-response","412","594785","0.0-412.0","1140","car","","","","","","","","","","","","","","perceptual","","","2","44","","","","","54","car","6","0","1",""
"","","","","","","","","","","","canvas-button-response","413","595282","0.0-413.0","495","6","","","","","","","","","","","","","","confidence","","","2","44","","","","","","","","","","30"
"","","","","","","","","","","","preload","414","595282","0.0-414.0","","","","","true","","","","","","","","","","","preload","","","2","45","false","[]","[]","[]","","","","","",""
"","","","","","","","","","","","canvas-keyboard-response","415","595594","0.0-415.0","null","null","","","","","","","","","","","","","","fixation","","","2","45","","","","","","","","","",""
"","","","","","","","","","","","canvas-keyboard-response","416","595911","0.0-416.0","null","null","","","","","","","","","","","","","","stimulus","","","2","45","","","","","","","","","",""
"","","","","","","","","","","","canvas-button-response","417","597070","0.0-417.0","1157","bed","","","","","","","","","","","","","","perceptual","","","2","45","","","","","156","bed","10","0","1",""
"","","","","","","","","","","","canvas-button-response","418","598359","0.0-418.0","1287","10","","","","","","","","","","","","","","confidence","","","2","45","","","","","","","","","","31"
"","","","","","","","","","","","preload","419","598359","0.0-419.0","","","","","true","","","","","","","","","","","preload","","","2","46","false","[]","[]","[]","","","","","",""
"","","","","","","","","","","","canvas-keyboard-response","420","598662","0.0-420.0","null","null","","","","","","","","","","","","","","fixation","","","2","46","","","","","","","","","",""
"","","","","","","","","","","","canvas-keyboard-response","421","598978","0.0-421.0","null","null","","","","","","","","","","","","","","stimulus","","","2","46","","","","","","","","","",""
"","","","","","","","","","","","canvas-button-response","422","603772","0.0-422.0","4792","phone","","","","","","","","","","","","","","perceptual","","","2","46","","","","","125","bed","6","0","0",""
"","","","","","","","","","","","canvas-button-response","423","604371","0.0-423.0","597","8","","","","","","","","","","","","","","confidence","","","2","46","","","","","","","","","","31"
"","","","","","","","","","","","preload","424","604372","0.0-424.0","","","","","true","","","","","","","","","","","preload","","","2","47","false","[]","[]","[]","","","","","",""
"","","","","","","","","","","","canvas-keyboard-response","425","604683","0.0-425.0","null","null","","","","","","","","","","","","","","fixation","","","2","47","","","","","","","","","",""
"","","","","","","","","","","","canvas-keyboard-response","426","604995","0.0-426.0","null","null","","","","","","","","","","","","","","stimulus","","","2","47","","","","","","","","","",""
"","","","","","","","","","","","canvas-button-response","427","606045","0.0-427.0","1048","car","","","","","","","","","","","","","","perceptual","","","2","47","","","","","40","car","6","0","1",""
"","","","","","","","","","","","canvas-button-response","428","606774","0.0-428.0","727","10","","","","","","","","","","","","","","confidence","","","2","47","","","","","","","","","","32"
"","","","","","","","","","","","preload","429","606775","0.0-429.0","","","","","true","","","","","","","","","","","preload","","","2","48","false","[]","[]","[]","","","","","",""
"","","","","","","","","","","","canvas-keyboard-response","430","607078","0.0-430.0","null","null","","","","","","","","","","","","","","fixation","","","2","48","","","","","","","","","",""
"","","","","","","","","","","","canvas-keyboard-response","431","607395","0.0-431.0","null","null","","","","","","","","","","","","","","stimulus","","","2","48","","","","","","","","","",""
"","","","","","","","","","","","canvas-button-response","432","609582","0.0-432.0","2185","knife","","","","","","","","","","","","","","perceptual","","","2","48","","","","","375","knife","6","0","1",""
"","","","","","","","","","","","canvas-button-response","433","610256","0.0-433.0","672","6","","","","","","","","","","","","","","confidence","","","2","48","","","","","","","","","","33"
"","","","","","","","","","","","preload","434","610256","0.0-434.0","","","","","true","","","","","","","","","","","preload","","","2","49","false","[]","[]","[]","","","","","",""
"","","","","","","","","","","","canvas-keyboard-response","435","610562","0.0-435.0","null","null","","","","","","","","","","","","","","fixation","","","2","49","","","","","","","","","",""
"","","","","","","","","","","","canvas-keyboard-response","436","610864","0.0-436.0","null","null","","","","","","","","","","","","","","stimulus","","","2","49","","","","","","","","","",""
"","","","","","","","","","","","canvas-button-response","437","612585","0.0-437.0","1720","elephant","","","","","","","","","","","","","","perceptual","","","2","49","","","","","332","elephant","6","0","1",""
"","","","","","","","","","","","canvas-button-response","438","614039","0.0-438.0","1452","7","","","","","","","","","","","","","","confidence","","","2","49","","","","","","","","","","34"
"","","","","","","","","","","","html-button-response","439","618977","0.0-439.0","4937","0","","","","","","","","","","","","","","<p style=""font-size:20px;color:#000000"">You got 34 out of 50 trials correct in this block.<br><br>You have completed 6% of the experiment.<br><br>Take a short break.<br><br>When you are ready, click Continue to proceed.","","","2","49","","","","","","","","","",""
"","","","","","","","","","","","html-keyboard-response","440","619984","0.0-440.0","null","null","","","","","","","","","","","","","","<p style=""font-size:32px;color:#000000""><br><br> RUN: &nbsp 1/4 <br><br> BLOCK: 2/4 ","","","2","49","","","","","","","","","",""
"","","","","","","","","","","","preload","441","619984","0.0-441.0","","","","","true","","","","","","","","","","","preload","","","2","50","false","[]","[]","[]","","","","","",""
"","","","","","","","","","","","canvas-keyboard-response","442","620292","0.0-442.0","null","null","","","","","","","","","","","","","","fixation","","","2","50","","","","","","","","","",""
"","","","","","","","","","","","canvas-keyboard-response","443","620607","0.0-443.0","null","null","","","","","","","","","","","","","","stimulus","","","2","50","","","","","","","","","",""
"","","","","","","","","","","","canvas-button-response","444","621441","0.0-444.0","831","car","","","","","","","","","","","","","","perceptual","","","2","50","","","","","74","car","10","0","1",""
"","","","","","","","","","","","canvas-button-response","445","622171","0.0-445.0","729","10","","","","","","","","","","","","","","confidence","","","2","50","","","","","","","","","","1"
"","","","","","","","","","","","preload","446","622172","0.0-446.0","","","","","true","","","","","","","","","","","preload","","","2","51","false","[]","[]","[]","","","","","",""
"","","","","","","","","","","","canvas-keyboard-response","447","622483","0.0-447.0","null","null","","","","","","","","","","","","","","fixation","","","2","51","","","","","","","","","",""
"","","","","","","","","","","","canvas-keyboard-response","448","622792","0.0-448.0","null","null","","","","","","","","","","","","","","stimulus","","","2","51","","","","","","","","","",""
"","","","","","","","","","","","canvas-button-response","449","623856","0.0-449.0","1061","train","","","","","","","","","","","","","","perceptual","","","2","51","","","","","255","train","6","0","1",""
"","","","","","","","","","","","canvas-button-response","450","624452","0.0-450.0","593","10","","","","","","","","","","","","","","confidence","","","2","51","","","","","","","","","","2"
"","","","","","","","","","","","preload","451","624453","0.0-451.0","","","","","true","","","","","","","","","","","preload","","","2","52","false","[]","[]","[]","","","","","",""
"","","","","","","","","","","","canvas-keyboard-response","452","624760","0.0-452.0","null","null","","","","","","","","","","","","","","fixation","","","2","52","","","","","","","","","",""
"","","","","","","","","","","","canvas-keyboard-response","453","625076","0.0-453.0","null","null","","","","","","","","","","","","","","stimulus","","","2","52","","","","","","","","","",""
"","","","","","","","","","","","canvas-button-response","454","626206","0.0-454.0","1128","bed","","","","","","","","","","","","","","perceptual","","","2","52","","","","","132","bed","6","0","1",""
"","","","","","","","","","","","canvas-button-response","455","627007","0.0-455.0","799","10","","","","","","","","","","","","","","confidence","","","2","52","","","","","","","","","","3"
"","","","","","","","","","","","preload","456","627008","0.0-456.0","","","","","true","","","","","","","","","","","preload","","","2","53","false","[]","[]","[]","","","","","",""
"","","","","","","","","","","","canvas-keyboard-response","457","627311","0.0-457.0","null","null","","","","","","","","","","","","","","fixation","","","2","53","","","","","","","","","",""
"","","","","","","","","","","","canvas-keyboard-response","458","627627","0.0-458.0","null","null","","","","","","","","","","","","","","stimulus","","","2","53","","","","","","","","","",""
"","","","","","","","","","","","canvas-button-response","459","628513","0.0-459.0","884","car","","","","","","","","","","","","","","perceptual","","","2","53","","","","","61","car","10","0","1",""
"","","","","","","","","","","","canvas-button-response","460","629228","0.0-460.0","713","10","","","","","","","","","","","","","","confidence","","","2","53","","","","","","","","","","4"
"","","","","","","","","","","","preload","461","629229","0.0-461.0","","","","","true","","","","","","","","","","","preload","","","2","54","false","[]","[]","[]","","","","","",""
"","","","","","","","","","","","canvas-keyboard-response","462","629545","0.0-462.0","null","null","","","","","","","","","","","","","","fixation","","","2","54","","","","","","","","","",""
"","","","","","","","","","","","canvas-keyboard-response","463","629860","0.0-463.0","null","null","","","","","","","","","","","","","","stimulus","","","2","54","","","","","","","","","",""
"","","","","","","","","","","","canvas-button-response","464","630727","0.0-464.0","865","flower","","","","","","","","","","","","","","perceptual","","","2","54","","","","","236","flower","10","0","1",""
"","","","","","","","","","","","canvas-button-response","465","631611","0.0-465.0","882","10","","","","","","","","","","","","","","confidence","","","2","54","","","","","","","","","","5"
"","","","","","","","","","","","preload","466","631612","0.0-466.0","","","","","true","","","","","","","","","","","preload","","","2","55","false","[]","[]","[]","","","","","",""
"","","","","","","","","","","","canvas-keyboard-response","467","631926","0.0-467.0","null","null","","","","","","","","","","","","","","fixation","","","2","55","","","","","","","","","",""
"","","","","","","","","","","","canvas-keyboard-response","468","632243","0.0-468.0","null","null","","","","","","","","","","","","","","stimulus","","","2","55","","","","","","","","","",""
"","","","","","","","","","","","canvas-button-response","469","635037","0.0-469.0","2791","house","","","","","","","","","","","","","","perceptual","","","2","55","","","","","4","house","6","0","1",""
"","","","","","","","","","","","canvas-button-response","470","635881","0.0-470.0","842","9","","","","","","","","","","","","","","confidence","","","2","55","","","","","","","","","","6"
"","","","","","","","","","","","preload","471","635882","0.0-471.0","","","","","true","","","","","","","","","","","preload","","","2","56","false","[]","[]","[]","","","","","",""
"","","","","","","","","","","","canvas-keyboard-response","472","636192","0.0-472.0","null","null","","","","","","","","","","","","","","fixation","","","2","56","","","","","","","","","",""
"","","","","","","","","","","","canvas-keyboard-response","473","636509","0.0-473.0","null","null","","","","","","","","","","","","","","stimulus","","","2","56","","","","","","","","","",""
"","","","","","","","","","","","canvas-button-response","474","637303","0.0-474.0","792","elephant","","","","","","","","","","","","","","perceptual","","","2","56","","","","","337","elephant","6","0","1",""
"","","","","","","","","","","","canvas-button-response","475","637946","0.0-475.0","642","10","","","","","","","","","","","","","","confidence","","","2","56","","","","","","","","","","7"
"","","","","","","","","","","","preload","476","637947","0.0-476.0","","","","","true","","","","","","","","","","","preload","","","2","57","false","[]","[]","[]","","","","","",""
"","","","","","","","","","","","canvas-keyboard-response","477","638259","0.0-477.0","null","null","","","","","","","","","","","","","","fixation","","","2","57","","","","","","","","","",""
"","","","","","","","","","","","canvas-keyboard-response","478","638564","0.0-478.0","null","null","","","","","","","","","","","","","","stimulus","","","2","57","","","","","","","","","",""
"","","","","","","","","","","","canvas-button-response","479","640370","0.0-479.0","1803","cat","","","","","","","","","","","","","","perceptual","","","2","57","","","","","138","bed","6","0","0",""
"","","","","","","","","","","","canvas-button-response","480","641123","0.0-480.0","751","7","","","","","","","","","","","","","","confidence","","","2","57","","","","","","","","","","7"
"","","","","","","","","","","","preload","481","641124","0.0-481.0","","","","","true","","","","","","","","","","","preload","","","2","58","false","[]","[]","[]","","","","","",""
"","","","","","","","","","","","canvas-keyboard-response","482","641428","0.0-482.0","null","null","","","","","","","","","","","","","","fixation","","","2","58","","","","","","","","","",""
"","","","","","","","","","","","canvas-keyboard-response","483","641741","0.0-483.0","null","null","","","","","","","","","","","","","","stimulus","","","2","58","","","","","","","","","",""
"","","","","","","","","","","","canvas-button-response","484","643082","0.0-484.0","1339","phone","","","","","","","","","","","","","","perceptual","","","2","58","","","","","383","knife","10","0","0",""
"","","","","","","","","","","","canvas-button-response","485","644066","0.0-485.0","982","4","","","","","","","","","","","","","","confidence","","","2","58","","","","","","","","","","7"
"","","","","","","","","","","","preload","486","644067","0.0-486.0","","","","","true","","","","","","","","","","","preload","","","2","59","false","[]","[]","[]","","","","","",""
"","","","","","","","","","","","canvas-keyboard-response","487","644375","0.0-487.0","null","null","","","","","","","","","","","","","","fixation","","","2","59","","","","","","","","","",""
"","","","","","","","","","","","canvas-keyboard-response","488","644677","0.0-488.0","null","null","","","","","","","","","","","","","","stimulus","","","2","59","","","","","","","","","",""
"","","","","","","","","","","","canvas-button-response","489","645600","0.0-489.0","921","car","","","","","","","","","","","","","","perceptual","","","2","59","","","","","70","car","10","0","1",""
"","","","","","","","","","","","canvas-button-response","490","646470","0.0-490.0","867","10","","","","","","","","","","","","","","confidence","","","2","59","","","","","","","","","","8"
"","","","","","","","","","","","preload","491","646471","0.0-491.0","","","","","true","","","","","","","","","","","preload","","","2","60","false","[]","[]","[]","","","","","",""
