"width","height","webaudio","browser","browser_version","mobile","os","fullscreen","vsync_rate","webcam","microphone","trial_type","trial_index","time_elapsed","internal_node_id","rt","response","accuracy","view_history","success","item_width_mm","item_height_mm","item_width_px","px2mm","view_dist_mm","item_width_deg","px2deg","scale_factor","win_width_deg","win_height_deg","stimulus","datetime","subjectID","curr_triallist","trial_no","timeout","failed_images","failed_audio","failed_video","image_index","category","blur","reps","correct","running_score"
"500","832","true","chrome","140.0.0","false","Mac OS","true","60.02","true","true","browser-check","0","1004","0.0-0.0","","","","","","","","","","","","","","","","","","","","","","","","","","","","","",""
"","","","","","","","","","","","survey","1","98065","0.0-1.0","97018","{""P0_Q0"":""903830084"",""P0_Q1"":""21"",""P1_Q0"":""Female"",""P1_Q1"":""Hispanic or Latino"",""P1_Q2"":""White"",""P1_Q3"":""Normal"",""P1_Q4"":""Right-Handed""}","[]","","","","","","","","","","","","","","","","","","","","","","","","","","",""
"","","","","","","","","","","","instructions","2","150831","0.0-2.0","52765","","","[{""page_index"":0,""viewing_time"":8115},{""page_index"":1,""viewing_time"":16952},{""page_index"":2,""viewing_time"":14014},{""page_index"":3,""viewing_time"":13683}]","","","","","","","","","","","","","","","","","","","","","","","","","",""
"","","","","","","","","","","","fullscreen","3","153502","0.0-3.0","1666","","","","true","","","","","","","","","","","","","","","","","","","","","","","","",""
"","","","","","","","","","","","virtual-chinrest","4","269682","0.0-4.0","116175","","","","","85.6","53.98","250.7887893700404","2.927786554801618","585.65","8.35962631233468","30","1.7385147123011122","49","30.666666666666668","","","","","","","","","","","","","","",""
"","","","","","","","","","","","instructions","5","364546","0.0-5.0","94863","","","[{""page_index"":0,""viewing_time"":36230},{""page_index"":1,""viewing_time"":11150},{""page_index"":2,""viewing_time"":8117},{""page_index"":3,""viewing_time"":6683},{""page_index"":4,""viewing_time"":15483},{""page_index"":5,""viewing_time"":13250},{""page_index"":6,""viewing_time"":3949}]","","","","","","","","","","","","","","","","","","","","","","","","","",""
"","","","","","","","","","","","html-button-response","6","373120","0.0-6.0","8571","0","","","","","","","","","","","","","","start_practice","Tue Oct 07 2025 11:53:43 GMT-0400 (Eastern Daylight Time)","27754","","","","","","","","","","","",""
"","","","","","","","","","","","preload","7","373122","0.0-7.0","","","","","true","","","","","","","","","","","preload","","","0","0","false","[]","[]","[]","","","","","",""
"","","","","","","","","","","","canvas-keyboard-response","8","373429","0.0-8.0","null","null","","","","","","","","","","","","","","fixation","","","0","0","","","","","","","","","",""
"","","","","","","","","","","","canvas-keyboard-response","9","373733","0.0-9.0","null","null","","","","","","","","","","","","","","stimulus","","","0","0","","","","","","","","","",""
"","","","","","","","","","","","canvas-button-response","10","377648","0.0-10.0","3909","train","","","","","","","","","","","","","","perceptual","","","0","0","","","","","62","train","1","","1",""
"","","","","","","","","","","","canvas-button-response","11","379864","0.0-11.0","2214","10","","","","","","","","","","","","","","confidence","","","0","0","","","","","","","","","","1"
"","","","","","","","","","","","html-keyboard-response","12","380867","0.0-12.0","null","null","","","","","","","","","","","","","","feedback","Tue Oct 07 2025 11:53:59 GMT-0400 (Eastern Daylight Time)","27754","0","0","","","","","","","","","",""
"","","","","","","","","","","","preload","13","380868","0.0-13.0","","","","","true","","","","","","","","","","","preload","","","0","1","false","[]","[]","[]","","","","","",""
"","","","","","","","","","","","canvas-keyboard-response","14","381170","0.0-14.0","null","null","","","","","","","","","","","","","","fixation","","","0","1","","","","","","","","","",""
"","","","","","","","","","","","canvas-keyboard-response","15","381472","0.0-15.0","null","null","","","","","","","","","","","","","","stimulus","","","0","1","","","","","","","","","",""
"","","","","","","","","","","","canvas-button-response","16","382633","0.0-16.0","1160","car","","","","","","","","","","","","","","perceptual","","","0","1","","","","","12","car","1","","1",""
"","","","","","","","","","","","canvas-button-response","17","383631","0.0-17.0","997","10","","","","","","","","","","","","","","confidence","","","0","1","","","","","","","","","","2"
"","","","","","","","","","","","html-keyboard-response","18","384633","0.0-18.0","null","null","","","","","","","","","","","","","","feedback","Tue Oct 07 2025 11:54:03 GMT-0400 (Eastern Daylight Time)","27754","0","1","","","","","","","","","",""
"","","","","","","","","","","","preload","19","384634","0.0-19.0","","","","","true","","","","","","","","","","","preload","","","0","2","false","[]","[]","[]","","","","","",""
"","","","","","","","","","","","canvas-keyboard-response","20","384938","0.0-20.0","null","null","","","","","","","","","","","","","","fixation","","","0","2","","","","","","","","","",""
"","","","","","","","","","","","canvas-keyboard-response","21","385241","0.0-21.0","null","null","","","","","","","","","","","","","","stimulus","","","0","2","","","","","","","","","",""
"","","","","","","","","","","","canvas-button-response","22","386130","0.0-22.0","887","cat","","","","","","","","","","","","","","perceptual","","","0","2","","","","","72","cat","1","","1",""
"","","","","","","","","","","","canvas-button-response","23","387248","0.0-23.0","1117","10","","","","","","","","","","","","","","confidence","","","0","2","","","","","","","","","","3"
"","","","","","","","","","","","html-keyboard-response","24","388251","0.0-24.0","null","null","","","","","","","","","","","","","","feedback","Tue Oct 07 2025 11:54:06 GMT-0400 (Eastern Daylight Time)","27754","0","2","","","","","","","","","",""
"","","","","","","","","","","","preload","25","388253","0.0-25.0","","","","","true","","","","","","","","","","","preload","","","0","3","false","[]","[]","[]","","","","","",""
"","","","","","","","","","","","canvas-keyboard-response","26","388555","0.0-26.0","null","null","","","","","","","","","","","","","","fixation","","","0","3","","","","","","","","","",""
"","","","","","","","","","","","canvas-keyboard-response","27","388858","0.0-27.0","null","null","","","","","","","","","","","","","","stimulus","","","0","3","","","","","","","","","",""
"","","","","","","","","","","","canvas-button-response","28","400365","0.0-28.0","11504","knife","","","","","","","","","","","","","","perceptual","","","0","3","","","","","92","knife","1","","1",""
"","","","","","","","","","","","canvas-button-response","29","403631","0.0-29.0","3263","3","","","","","","","","","","","","","","confidence","","","0","3","","","","","","","","","","4"
"","","","","","","","","","","","html-keyboard-response","30","404634","0.0-30.0","null","null","","","","","","","","","","","","","","feedback","Tue Oct 07 2025 11:54:23 GMT-0400 (Eastern Daylight Time)","27754","0","3","","","","","","","","","",""
"","","","","","","","","","","","preload","31","404636","0.0-31.0","","","","","true","","","","","","","","","","","preload","","","0","4","false","[]","[]","[]","","","","","",""
"","","","","","","","","","","","canvas-keyboard-response","32","404939","0.0-32.0","null","null","","","","","","","","","","","","","","fixation","","","0","4","","","","","","","","","",""
"","","","","","","","","","","","canvas-keyboard-response","33","405242","0.0-33.0","null","null","","","","","","","","","","","","","","stimulus","","","0","4","","","","","","","","","",""
"","","","","","","","","","","","canvas-button-response","34","407133","0.0-34.0","1888","phone","","","","","","","","","","","","","","perceptual","","","0","4","","","","","22","phone","1","","1",""
"","","","","","","","","","","","canvas-button-response","35","408181","0.0-35.0","1046","10","","","","","","","","","","","","","","confidence","","","0","4","","","","","","","","","","5"
"","","","","","","","","","","","html-keyboard-response","36","409184","0.0-36.0","null","null","","","","","","","","","","","","","","feedback","Tue Oct 07 2025 11:54:27 GMT-0400 (Eastern Daylight Time)","27754","0","4","","","","","","","","","",""
"","","","","","","","","","","","preload","37","409185","0.0-37.0","","","","","true","","","","","","","","","","","preload","","","0","5","false","[]","[]","[]","","","","","",""
"","","","","","","","","","","","canvas-keyboard-response","38","409489","0.0-38.0","null","null","","","","","","","","","","","","","","fixation","","","0","5","","","","","","","","","",""
"","","","","","","","","","","","canvas-keyboard-response","39","409792","0.0-39.0","null","null","","","","","","","","","","","","","","stimulus","","","0","5","","","","","","","","","",""
"","","","","","","","","","","","canvas-button-response","40","415831","0.0-40.0","6036","house","","","","","","","","","","","","","","perceptual","","","0","5","","","","","82","elephant","1","","0",""
"","","","","","","","","","","","canvas-button-response","41","418682","0.0-41.0","2848","4","","","","","","","","","","","","","","confidence","","","0","5","","","","","","","","","","5"
"","","","","","","","","","","","html-keyboard-response","42","419685","0.0-42.0","null","null","","","","","","","","","","","","","","feedback","Tue Oct 07 2025 11:54:38 GMT-0400 (Eastern Daylight Time)","27754","0","5","","","","","","","","","",""
"","","","","","","","","","","","preload","43","419686","0.0-43.0","","","","","true","","","","","","","","","","","preload","","","0","6","false","[]","[]","[]","","","","","",""
"","","","","","","","","","","","canvas-keyboard-response","44","419990","0.0-44.0","null","null","","","","","","","","","","","","","","fixation","","","0","6","","","","","","","","","",""
"","","","","","","","","","","","canvas-keyboard-response","45","420293","0.0-45.0","null","null","","","","","","","","","","","","","","stimulus","","","0","6","","","","","","","","","",""
"","","","","","","","","","","","canvas-button-response","46","422730","0.0-46.0","2435","house","","","","","","","","","","","","","","perceptual","","","0","6","","","","","2","house","1","","1",""
"","","","","","","","","","","","canvas-button-response","47","423816","0.0-47.0","1084","10","","","","","","","","","","","","","","confidence","","","0","6","","","","","","","","","","6"
"","","","","","","","","","","","html-keyboard-response","48","424818","0.0-48.0","null","null","","","","","","","","","","","","","","feedback","Tue Oct 07 2025 11:54:43 GMT-0400 (Eastern Daylight Time)","27754","0","6","","","","","","","","","",""
"","","","","","","","","","","","preload","49","424820","0.0-49.0","","","","","true","","","","","","","","","","","preload","","","0","7","false","[]","[]","[]","","","","","",""
"","","","","","","","","","","","canvas-keyboard-response","50","425121","0.0-50.0","null","null","","","","","","","","","","","","","","fixation","","","0","7","","","","","","","","","",""
"","","","","","","","","","","","canvas-keyboard-response","51","425424","0.0-51.0","null","null","","","","","","","","","","","","","","stimulus","","","0","7","","","","","","","","","",""
"","","","","","","","","","","","canvas-button-response","52","428399","0.0-52.0","2973","bed","","","","","","","","","","","","","","perceptual","","","0","7","","","","","32","bed","1","","1",""
"","","","","","","","","","","","canvas-button-response","53","429581","0.0-53.0","1179","10","","","","","","","","","","","","","","confidence","","","0","7","","","","","","","","","","7"
"","","","","","","","","","","","html-keyboard-response","54","430584","0.0-54.0","null","null","","","","","","","","","","","","","","feedback","Tue Oct 07 2025 11:54:49 GMT-0400 (Eastern Daylight Time)","27754","0","7","","","","","","","","","",""
"","","","","","","","","","","","preload","55","430586","0.0-55.0","","","","","true","","","","","","","","","","","preload","","","0","8","false","[]","[]","[]","","","","","",""
"","","","","","","","","","","","canvas-keyboard-response","56","430889","0.0-56.0","null","null","","","","","","","","","","","","","","fixation","","","0","8","","","","","","","","","",""
"","","","","","","","","","","","canvas-keyboard-response","57","431192","0.0-57.0","null","null","","","","","","","","","","","","","","stimulus","","","0","8","","","","","","","","","",""
"","","","","","","","","","","","canvas-button-response","58","432465","0.0-58.0","1270","bridge","","","","","","","","","","","","","","perceptual","","","0","8","","","","","42","bridge","1","","1",""
"","","","","","","","","","","","canvas-button-response","59","433599","0.0-59.0","1131","10","","","","","","","","","","","","","","confidence","","","0","8","","","","","","","","","","8"
"","","","","","","","","","","","html-keyboard-response","60","434603","0.0-60.0","null","null","","","","","","","","","","","","","","feedback","Tue Oct 07 2025 11:54:53 GMT-0400 (Eastern Daylight Time)","27754","0","8","","","","","","","","","",""
"","","","","","","","","","","","preload","61","434604","0.0-61.0","","","","","true","","","","","","","","","","","preload","","","0","9","false","[]","[]","[]","","","","","",""
"","","","","","","","","","","","canvas-keyboard-response","62","434907","0.0-62.0","null","null","","","","","","","","","","","","","","fixation","","","0","9","","","","","","","","","",""
"","","","","","","","","","","","canvas-keyboard-response","63","435210","0.0-63.0","null","null","","","","","","","","","","","","","","stimulus","","","0","9","","","","","","","","","",""
"","","","","","","","","","","","canvas-button-response","64","439346","0.0-64.0","4134","flower","","","","","","","","","","","","","","perceptual","","","0","9","","","","","52","flower","1","","1",""
"","","","","","","","","","","","canvas-button-response","65","442147","0.0-65.0","2799","10","","","","","","","","","","","","","","confidence","","","0","9","","","","","","","","","","9"
"","","","","","","","","","","","html-keyboard-response","66","443150","0.0-66.0","null","null","","","","","","","","","","","","","","feedback","Tue Oct 07 2025 11:55:01 GMT-0400 (Eastern Daylight Time)","27754","0","9","","","","","","","","","",""
"","","","","","","","","","","","html-button-response","67","456847","0.0-67.0","13693","0","","","","","","","","","","","","","","start_practice","Tue Oct 07 2025 11:55:02 GMT-0400 (Eastern Daylight Time)","27754","0","9","","","","","","","","","",""
"","","","","","","","","","","","preload","68","456848","0.0-68.0","","","","","true","","","","","","","","","","","preload","","","1","0","false","[]","[]","[]","","","","","",""
"","","","","","","","","","","","canvas-keyboard-response","69","457151","0.0-69.0","null","null","","","","","","","","","","","","","","fixation","","","1","0","","","","","","","","","",""
"","","","","","","","","","","","canvas-keyboard-response","70","457455","0.0-70.0","null","null","","","","","","","","","","","","","","stimulus","","","1","0","","","","","","","","","",""
"","","","","","","","","","","","canvas-button-response","71","467763","0.0-71.0","10306","train","","","","","","","","","","","","","","perceptual","","","1","0","","","","","27","phone","10","","0",""
"","","","","","","","","","","","canvas-button-response","72","469597","0.0-72.0","1831","0","","","","","","","","","","","","","","confidence","","","1","0","","","","","","","","","","0"
"","","","","","","","","","","","html-keyboard-response","73","470600","0.0-73.0","null","null","","","","","","","","","","","","","","feedback","Tue Oct 07 2025 11:55:29 GMT-0400 (Eastern Daylight Time)","27754","1","0","","","","","","","","","",""
"","","","","","","","","","","","preload","74","470601","0.0-74.0","","","","","true","","","","","","","","","","","preload","","","1","1","false","[]","[]","[]","","","","","",""
"","","","","","","","","","","","canvas-keyboard-response","75","470904","0.0-75.0","null","null","","","","","","","","","","","","","","fixation","","","1","1","","","","","","","","","",""
"","","","","","","","","","","","canvas-keyboard-response","76","471206","0.0-76.0","null","null","","","","","","","","","","","","","","stimulus","","","1","1","","","","","","","","","",""
"","","","","","","","","","","","canvas-button-response","77","475797","0.0-77.0","4588","train","","","","","","","","","","","","","","perceptual","","","1","1","","","","","64","train","6","","1",""
"","","","","","","","","","","","canvas-button-response","78","477368","0.0-78.0","1568","3","","","","","","","","","","","","","","confidence","","","1","1","","","","","","","","","","1"
"","","","","","","","","","","","html-keyboard-response","79","478371","0.0-79.0","null","null","","","","","","","","","","","","","","feedback","Tue Oct 07 2025 11:55:36 GMT-0400 (Eastern Daylight Time)","27754","1","1","","","","","","","","","",""
"","","","","","","","","","","","preload","80","478372","0.0-80.0","","","","","true","","","","","","","","","","","preload","","","1","2","false","[]","[]","[]","","","","","",""
"","","","","","","","","","","","canvas-keyboard-response","81","478676","0.0-81.0","null","null","","","","","","","","","","","","","","fixation","","","1","2","","","","","","","","","",""
"","","","","","","","","","","","canvas-keyboard-response","82","478979","0.0-82.0","null","null","","","","","","","","","","","","","","stimulus","","","1","2","","","","","","","","","",""
"","","","","","","","","","","","canvas-button-response","83","480532","0.0-83.0","1551","house","","","","","","","","","","","","","","perceptual","","","1","2","","","","","4","house","6","","1",""
"","","","","","","","","","","","canvas-button-response","84","481614","0.0-84.0","1080","10","","","","","","","","","","","","","","confidence","","","1","2","","","","","","","","","","2"
"","","","","","","","","","","","html-keyboard-response","85","482617","0.0-85.0","null","null","","","","","","","","","","","","","","feedback","Tue Oct 07 2025 11:55:41 GMT-0400 (Eastern Daylight Time)","27754","1","2","","","","","","","","","",""
"","","","","","","","","","","","preload","86","482618","0.0-86.0","","","","","true","","","","","","","","","","","preload","","","1","3","false","[]","[]","[]","","","","","",""
"","","","","","","","","","","","canvas-keyboard-response","87","482921","0.0-87.0","null","null","","","","","","","","","","","","","","fixation","","","1","3","","","","","","","","","",""
"","","","","","","","","","","","canvas-keyboard-response","88","483225","0.0-88.0","null","null","","","","","","","","","","","","","","stimulus","","","1","3","","","","","","","","","",""
"","","","","","","","","","","","canvas-button-response","89","484530","0.0-89.0","1303","knife","","","","","","","","","","","","","","perceptual","","","1","3","","","","","97","knife","10","","1",""
"","","","","","","","","","","","canvas-button-response","90","485648","0.0-90.0","1115","10","","","","","","","","","","","","","","confidence","","","1","3","","","","","","","","","","3"
"","","","","","","","","","","","html-keyboard-response","91","486651","0.0-91.0","null","null","","","","","","","","","","","","","","feedback","Tue Oct 07 2025 11:55:45 GMT-0400 (Eastern Daylight Time)","27754","1","3","","","","","","","","","",""
"","","","","","","","","","","","preload","92","486653","0.0-92.0","","","","","true","","","","","","","","","","","preload","","","1","4","false","[]","[]","[]","","","","","",""
"","","","","","","","","","","","canvas-keyboard-response","93","486956","0.0-93.0","null","null","","","","","","","","","","","","","","fixation","","","1","4","","","","","","","","","",""
"","","","","","","","","","","","canvas-keyboard-response","94","487259","0.0-94.0","null","null","","","","","","","","","","","","","","stimulus","","","1","4","","","","","","","","","",""
"","","","","","","","","","","","canvas-button-response","95","492199","0.0-95.0","4938","bridge","","","","","","","","","","","","","","perceptual","","","1","4","","","","","47","bridge","10","","1",""
"","","","","","","","","","","","canvas-button-response","96","493263","0.0-96.0","1063","3","","","","","","","","","","","","","","confidence","","","1","4","","","","","","","","","","4"
"","","","","","","","","","","","html-keyboard-response","97","494266","0.0-97.0","null","null","","","","","","","","","","","","","","feedback","Tue Oct 07 2025 11:55:52 GMT-0400 (Eastern Daylight Time)","27754","1","4","","","","","","","","","",""
"","","","","","","","","","","","preload","98","494267","0.0-98.0","","","","","true","","","","","","","","","","","preload","","","1","5","false","[]","[]","[]","","","","","",""
"","","","","","","","","","","","canvas-keyboard-response","99","494570","0.0-99.0","null","null","","","","","","","","","","","","","","fixation","","","1","5","","","","","","","","","",""
"","","","","","","","","","","","canvas-keyboard-response","100","494873","0.0-100.0","null","null","","","","","","","","","","","","","","stimulus","","","1","5","","","","","","","","","",""
"","","","","","","","","","","","canvas-button-response","101","502163","0.0-101.0","7288","bed","","","","","","","","","","","","","","perceptual","","","1","5","","","","","37","bed","10","","1",""
"","","","","","","","","","","","canvas-button-response","102","506147","0.0-102.0","3983","0","","","","","","","","","","","","","","confidence","","","1","5","","","","","","","","","","5"
"","","","","","","","","","","","html-keyboard-response","103","507150","0.0-103.0","null","null","","","","","","","","","","","","","","feedback","Tue Oct 07 2025 11:56:05 GMT-0400 (Eastern Daylight Time)","27754","1","5","","","","","","","","","",""
"","","","","","","","","","","","preload","104","507152","0.0-104.0","","","","","true","","","","","","","","","","","preload","","","1","6","false","[]","[]","[]","","","","","",""
"","","","","","","","","","","","canvas-keyboard-response","105","507455","0.0-105.0","null","null","","","","","","","","","","","","","","fixation","","","1","6","","","","","","","","","",""
"","","","","","","","","","","","canvas-keyboard-response","106","507758","0.0-106.0","null","null","","","","","","","","","","","","","","stimulus","","","1","6","","","","","","","","","",""
"","","","","","","","","","","","canvas-button-response","107","509399","0.0-107.0","1639","flower","","","","","","","","","","","","","","perceptual","","","1","6","","","","","57","flower","10","","1",""
"","","","","","","","","","","","canvas-button-response","108","511315","0.0-108.0","1915","6","","","","","","","","","","","","","","confidence","","","1","6","","","","","","","","","","6"
"","","","","","","","","","","","html-keyboard-response","109","512318","0.0-109.0","null","null","","","","","","","","","","","","","","feedback","Tue Oct 07 2025 11:56:10 GMT-0400 (Eastern Daylight Time)","27754","1","6","","","","","","","","","",""
"","","","","","","","","","","","preload","110","512319","0.0-110.0","","","","","true","","","","","","","","","","","preload","","","1","7","false","[]","[]","[]","","","","","",""
"","","","","","","","","","","","canvas-keyboard-response","111","512622","0.0-111.0","null","null","","","","","","","","","","","","","","fixation","","","1","7","","","","","","","","","",""
"","","","","","","","","","","","canvas-keyboard-response","112","512925","0.0-112.0","null","null","","","","","","","","","","","","","","stimulus","","","1","7","","","","","","","","","",""
"","","","","","","","","","","","canvas-button-response","113","514532","0.0-113.0","1605","elephant","","","","","","","","","","","","","","perceptual","","","1","7","","","","","84","elephant","6","","1",""
"","","","","","","","","","","","canvas-button-response","114","515333","0.0-114.0","798","10","","","","","","","","","","","","","","confidence","","","1","7","","","","","","","","","","7"
"","","","","","","","","","","","html-keyboard-response","115","516336","0.0-115.0","null","null","","","","","","","","","","","","","","feedback","Tue Oct 07 2025 11:56:14 GMT-0400 (Eastern Daylight Time)","27754","1","7","","","","","","","","","",""
"","","","","","","","","","","","preload","116","516337","0.0-116.0","","","","","true","","","","","","","","","","","preload","","","1","8","false","[]","[]","[]","","","","","",""
"","","","","","","","","","","","canvas-keyboard-response","117","516640","0.0-117.0","null","null","","","","","","","","","","","","","","fixation","","","1","8","","","","","","","","","",""
"","","","","","","","","","","","canvas-keyboard-response","118","516943","0.0-118.0","null","null","","","","","","","","","","","","","","stimulus","","","1","8","","","","","","","","","",""
"","","","","","","","","","","","canvas-button-response","119","519730","0.0-119.0","2785","cat","","","","","","","","","","","","","","perceptual","","","1","8","","","","","44","bridge","6","","0",""
"","","","","","","","","","","","canvas-button-response","120","520630","0.0-120.0","898","2","","","","","","","","","","","","","","confidence","","","1","8","","","","","","","","","","7"
"","","","","","","","","","","","html-keyboard-response","121","521633","0.0-121.0","null","null","","","","","","","","","","","","","","feedback","Tue Oct 07 2025 11:56:20 GMT-0400 (Eastern Daylight Time)","27754","1","8","","","","","","","","","",""
"","","","","","","","","","","","preload","122","521634","0.0-122.0","","","","","true","","","","","","","","","","","preload","","","1","9","false","[]","[]","[]","","","","","",""
"","","","","","","","","","","","canvas-keyboard-response","123","521937","0.0-123.0","null","null","","","","","","","","","","","","","","fixation","","","1","9","","","","","","","","","",""
"","","","","","","","","","","","canvas-keyboard-response","124","522240","0.0-124.0","null","null","","","","","","","","","","","","","","stimulus","","","1","9","","","","","","","","","",""
"","","","","","","","","","","","canvas-button-response","125","527949","0.0-125.0","5707","cat","","","","","","","","","","","","","","perceptual","","","1","9","","","","","67","train","10","","0",""
"","","","","","","","","","","","canvas-button-response","126","529212","0.0-126.0","1262","0","","","","","","","","","","","","","","confidence","","","1","9","","","","","","","","","","7"
"","","","","","","","","","","","html-keyboard-response","127","530215","0.0-127.0","null","null","","","","","","","","","","","","","","feedback","Tue Oct 07 2025 11:56:28 GMT-0400 (Eastern Daylight Time)","27754","1","9","","","","","","","","","",""
"","","","","","","","","","","","preload","128","530216","0.0-128.0","","","","","true","","","","","","","","","","","preload","","","1","10","false","[]","[]","[]","","","","","",""
"","","","","","","","","","","","canvas-keyboard-response","129","530518","0.0-129.0","null","null","","","","","","","","","","","","","","fixation","","","1","10","","","","","","","","","",""
"","","","","","","","","","","","canvas-keyboard-response","130","530821","0.0-130.0","null","null","","","","","","","","","","","","","","stimulus","","","1","10","","","","","","","","","",""
"","","","","","","","","","","","canvas-button-response","131","532947","0.0-131.0","2122","house","","","","","","","","","","","","","","perceptual","","","1","10","","","","","7","house","10","","1",""
"","","","","","","","","","","","canvas-button-response","132","533913","0.0-132.0","963","2","","","","","","","","","","","","","","confidence","","","1","10","","","","","","","","","","8"
"","","","","","","","","","","","html-keyboard-response","133","534916","0.0-133.0","null","null","","","","","","","","","","","","","","feedback","Tue Oct 07 2025 11:56:33 GMT-0400 (Eastern Daylight Time)","27754","1","10","","","","","","","","","",""
"","","","","","","","","","","","preload","134","534917","0.0-134.0","","","","","true","","","","","","","","","","","preload","","","1","11","false","[]","[]","[]","","","","","",""
"","","","","","","","","","","","canvas-keyboard-response","135","535220","0.0-135.0","null","null","","","","","","","","","","","","","","fixation","","","1","11","","","","","","","","","",""
"","","","","","","","","","","","canvas-keyboard-response","136","535523","0.0-136.0","null","null","","","","","","","","","","","","","","stimulus","","","1","11","","","","","","","","","",""
"","","","","","","","","","","","canvas-button-response","137","538347","0.0-137.0","2822","phone","","","","","","","","","","","","","","perceptual","","","1","11","","","","","94","knife","6","","0",""
"","","","","","","","","","","","canvas-button-response","138","539129","0.0-138.0","780","2","","","","","","","","","","","","","","confidence","","","1","11","","","","","","","","","","8"
"","","","","","","","","","","","html-keyboard-response","139","540133","0.0-139.0","null","null","","","","","","","","","","","","","","feedback","Tue Oct 07 2025 11:56:38 GMT-0400 (Eastern Daylight Time)","27754","1","11","","","","","","","","","",""
"","","","","","","","","","","","preload","140","540134","0.0-140.0","","","","","true","","","","","","","","","","","preload","","","1","12","false","[]","[]","[]","","","","","",""
"","","","","","","","","","","","canvas-keyboard-response","141","540437","0.0-141.0","null","null","","","","","","","","","","","","","","fixation","","","1","12","","","","","","","","","",""
"","","","","","","","","","","","canvas-keyboard-response","142","540740","0.0-142.0","null","null","","","","","","","","","","","","","","stimulus","","","1","12","","","","","","","","","",""
"","","","","","","","","","","","canvas-button-response","143","542764","0.0-143.0","2021","car","","","","","","","","","","","","","","perceptual","","","1","12","","","","","14","car","6","","1",""
"","","","","","","","","","","","canvas-button-response","144","543480","0.0-144.0","714","3","","","","","","","","","","","","","","confidence","","","1","12","","","","","","","","","","9"
"","","","","","","","","","","","html-keyboard-response","145","544483","0.0-145.0","null","null","","","","","","","","","","","","","","feedback","Tue Oct 07 2025 11:56:42 GMT-0400 (Eastern Daylight Time)","27754","1","12","","","","","","","","","",""
"","","","","","","","","","","","preload","146","544485","0.0-146.0","","","","","true","","","","","","","","","","","preload","","","1","13","false","[]","[]","[]","","","","","",""
"","","","","","","","","","","","canvas-keyboard-response","147","544788","0.0-147.0","null","null","","","","","","","","","","","","","","fixation","","","1","13","","","","","","","","","",""
"","","","","","","","","","","","canvas-keyboard-response","148","545090","0.0-148.0","null","null","","","","","","","","","","","","","","stimulus","","","1","13","","","","","","","","","",""
"","","","","","","","","","","","canvas-button-response","149","548247","0.0-149.0","3154","flower","","","","","","","","","","","","","","perceptual","","","1","13","","","","","17","car","10","","0",""
"","","","","","","","","","","","canvas-button-response","150","550864","0.0-150.0","2615","4","","","","","","","","","","","","","","confidence","","","1","13","","","","","","","","","","9"
"","","","","","","","","","","","html-keyboard-response","151","551867","0.0-151.0","null","null","","","","","","","","","","","","","","feedback","Tue Oct 07 2025 11:56:50 GMT-0400 (Eastern Daylight Time)","27754","1","13","","","","","","","","","",""
"","","","","","","","","","","","preload","152","551868","0.0-152.0","","","","","true","","","","","","","","","","","preload","","","1","14","false","[]","[]","[]","","","","","",""
"","","","","","","","","","","","canvas-keyboard-response","153","552171","0.0-153.0","null","null","","","","","","","","","","","","","","fixation","","","1","14","","","","","","","","","",""
"","","","","","","","","","","","canvas-keyboard-response","154","552474","0.0-154.0","null","null","","","","","","","","","","","","","","stimulus","","","1","14","","","","","","","","","",""
"","","","","","","","","","","","canvas-button-response","155","559480","0.0-155.0","7003","bridge","","","","","","","","","","","","","","perceptual","","","1","14","","","","","87","elephant","10","","0",""
"","","","","","","","","","","","canvas-button-response","156","560749","0.0-156.0","1267","0","","","","","","","","","","","","","","confidence","","","1","14","","","","","","","","","","9"
"","","","","","","","","","","","html-keyboard-response","157","561751","0.0-157.0","null","null","","","","","","","","","","","","","","feedback","Tue Oct 07 2025 11:57:00 GMT-0400 (Eastern Daylight Time)","27754","1","14","","","","","","","","","",""
"","","","","","","","","","","","preload","158","561752","0.0-158.0","","","","","true","","","","","","","","","","","preload","","","1","15","false","[]","[]","[]","","","","","",""
"","","","","","","","","","","","canvas-keyboard-response","159","562056","0.0-159.0","null","null","","","","","","","","","","","","","","fixation","","","1","15","","","","","","","","","",""
"","","","","","","","","","","","canvas-keyboard-response","160","562359","0.0-160.0","null","null","","","","","","","","","","","","","","stimulus","","","1","15","","","","","","","","","",""
"","","","","","","","","","","","canvas-button-response","161","564749","0.0-161.0","2388","phone","","","","","","","","","","","","","","perceptual","","","1","15","","","","","24","phone","6","","1",""
"","","","","","","","","","","","canvas-button-response","162","565815","0.0-162.0","1065","7","","","","","","","","","","","","","","confidence","","","1","15","","","","","","","","","","10"
"","","","","","","","","","","","html-keyboard-response","163","566817","0.0-163.0","null","null","","","","","","","","","","","","","","feedback","Tue Oct 07 2025 11:57:05 GMT-0400 (Eastern Daylight Time)","27754","1","15","","","","","","","","","",""
"","","","","","","","","","","","preload","164","566818","0.0-164.0","","","","","true","","","","","","","","","","","preload","","","1","16","false","[]","[]","[]","","","","","",""
"","","","","","","","","","","","canvas-keyboard-response","165","567121","0.0-165.0","null","null","","","","","","","","","","","","","","fixation","","","1","16","","","","","","","","","",""
"","","","","","","","","","","","canvas-keyboard-response","166","567424","0.0-166.0","null","null","","","","","","","","","","","","","","stimulus","","","1","16","","","","","","","","","",""
"","","","","","","","","","","","canvas-button-response","167","569048","0.0-167.0","1622","flower","","","","","","","","","","","","","","perceptual","","","1","16","","","","","54","flower","6","","1",""
"","","","","","","","","","","","canvas-button-response","168","571549","0.0-168.0","2499","7","","","","","","","","","","","","","","confidence","","","1","16","","","","","","","","","","11"
"","","","","","","","","","","","html-keyboard-response","169","572552","0.0-169.0","null","null","","","","","","","","","","","","","","feedback","Tue Oct 07 2025 11:57:10 GMT-0400 (Eastern Daylight Time)","27754","1","16","","","","","","","","","",""
"","","","","","","","","","","","preload","170","572554","0.0-170.0","","","","","true","","","","","","","","","","","preload","","","1","17","false","[]","[]","[]","","","","","",""
"","","","","","","","","","","","canvas-keyboard-response","171","572857","0.0-171.0","null","null","","","","","","","","","","","","","","fixation","","","1","17","","","","","","","","","",""
"","","","","","","","","","","","canvas-keyboard-response","172","573160","0.0-172.0","null","null","","","","","","","","","","","","","","stimulus","","","1","17","","","","","","","","","",""
"","","","","","","","","","","","canvas-button-response","173","574495","0.0-173.0","1333","bed","","","","","","","","","","","","","","perceptual","","","1","17","","","","","34","bed","6","","1",""
"","","","","","","","","","","","canvas-button-response","174","575347","0.0-174.0","850","10","","","","","","","","","","","","","","confidence","","","1","17","","","","","","","","","","12"
"","","","","","","","","","","","html-keyboard-response","175","576349","0.0-175.0","null","null","","","","","","","","","","","","","","feedback","Tue Oct 07 2025 11:57:14 GMT-0400 (Eastern Daylight Time)","27754","1","17","","","","","","","","","",""
"","","","","","","","","","","","preload","176","576350","0.0-176.0","","","","","true","","","","","","","","","","","preload","","","1","18","false","[]","[]","[]","","","","","",""
"","","","","","","","","","","","canvas-keyboard-response","177","576652","0.0-177.0","null","null","","","","","","","","","","","","","","fixation","","","1","18","","","","","","","","","",""
"","","","","","","","","","","","canvas-keyboard-response","178","576954","0.0-178.0","null","null","","","","","","","","","","","","","","stimulus","","","1","18","","","","","","","","","",""
"","","","","","","","","","","","canvas-button-response","179","579964","0.0-179.0","3008","cat","","","","","","","","","","","","","","perceptual","","","1","18","","","","","77","cat","10","","1",""
"","","","","","","","","","","","canvas-button-response","180","580947","0.0-180.0","980","2","","","","","","","","","","","","","","confidence","","","1","18","","","","","","","","","","13"
"","","","","","","","","","","","html-keyboard-response","181","581950","0.0-181.0","null","null","","","","","","","","","","","","","","feedback","Tue Oct 07 2025 11:57:20 GMT-0400 (Eastern Daylight Time)","27754","1","18","","","","","","","","","",""
"","","","","","","","","","","","preload","182","581951","0.0-182.0","","","","","true","","","","","","","","","","","preload","","","1","19","false","[]","[]","[]","","","","","",""
"","","","","","","","","","","","canvas-keyboard-response","183","582254","0.0-183.0","null","null","","","","","","","","","","","","","","fixation","","","1","19","","","","","","","","","",""
"","","","","","","","","","","","canvas-keyboard-response","184","582557","0.0-184.0","null","null","","","","","","","","","","","","","","stimulus","","","1","19","","","","","","","","","",""
"","","","","","","","","","","","canvas-button-response","185","584297","0.0-185.0","1739","cat","","","","","","","","","","","","","","perceptual","","","1","19","","","","","74","cat","6","","1",""
"","","","","","","","","","","","canvas-button-response","186","585147","0.0-186.0","848","10","","","","","","","","","","","","","","confidence","","","1","19","","","","","","","","","","14"
"","","","","","","","","","","","html-keyboard-response","187","586150","0.0-187.0","null","null","","","","","","","","","","","","","","feedback","Tue Oct 07 2025 11:57:24 GMT-0400 (Eastern Daylight Time)","27754","1","19","","","","","","","","","",""
"","","","","","","","","","","","html-button-response","188","609680","0.0-188.0","23527","0","","","","","","","","","","","","","","start experiment","Tue Oct 07 2025 11:57:25 GMT-0400 (Eastern Daylight Time)","27754","1","19","","","","","","","","","",""
"","","","","","","","","","","","preload","189","609681","0.0-189.0","","","","","true","","","","","","","","","","","preload","","","2","0","false","[]","[]","[]","","","","","",""
"","","","","","","","","","","","canvas-keyboard-response","190","609984","0.0-190.0","null","null","","","","","","","","","","","","","","fixation","","","2","0","","","","","","","","","",""
"","","","","","","","","","","","canvas-keyboard-response","191","610287","0.0-191.0","null","null","","","","","","","","","","","","","","stimulus","","","2","0","","","","","","","","","",""
"","","","","","","","","","","","canvas-button-response","192","613848","0.0-192.0","3558","knife","","","","","","","","","","","","","","perceptual","","","2","0","","","","","164","bridge","6","0","0",""
"","","","","","","","","","","","canvas-button-response","193","614948","0.0-193.0","1099","3","","","","","","","","","","","","","","confidence","","","2","0","","","","","","","","","","0"
"","","","","","","","","","","","preload","194","614949","0.0-194.0","","","","","true","","","","","","","","","","","preload","","","2","1","false","[]","[]","[]","","","","","",""
"","","","","","","","","","","","canvas-keyboard-response","195","615251","0.0-195.0","null","null","","","","","","","","","","","","","","fixation","","","2","1","","","","","","","","","",""
"","","","","","","","","","","","canvas-keyboard-response","196","615554","0.0-196.0","null","null","","","","","","","","","","","","","","stimulus","","","2","1","","","","","","","","","",""
"","","","","","","","","","","","canvas-button-response","197","617146","0.0-197.0","1590","flower","","","","","","","","","","","","","","perceptual","","","2","1","","","","","207","flower","6","0","1",""
"","","","","","","","","","","","canvas-button-response","198","619097","0.0-198.0","1948","10","","","","","","","","","","","","","","confidence","","","2","1","","","","","","","","","","1"
"","","","","","","","","","","","preload","199","619098","0.0-199.0","","","","","true","","","","","","","","","","","preload","","","2","2","false","[]","[]","[]","","","","","",""
"","","","","","","","","","","","canvas-keyboard-response","200","619401","0.0-200.0","null","null","","","","","","","","","","","","","","fixation","","","2","2","","","","","","","","","",""
"","","","","","","","","","","","canvas-keyboard-response","201","619704","0.0-201.0","null","null","","","","","","","","","","","","","","stimulus","","","2","2","","","","","","","","","",""
"","","","","","","","","","","","canvas-button-response","202","623767","0.0-202.0","4061","cat","","","","","","","","","","","","","","perceptual","","","2","2","","","","","358","elephant","10","0","0",""
"","","","","","","","","","","","canvas-button-response","203","625298","0.0-203.0","1529","2","","","","","","","","","","","","","","confidence","","","2","2","","","","","","","","","","1"
"","","","","","","","","","","","preload","204","625299","0.0-204.0","","","","","true","","","","","","","","","","","preload","","","2","3","false","[]","[]","[]","","","","","",""
"","","","","","","","","","","","canvas-keyboard-response","205","625602","0.0-205.0","null","null","","","","","","","","","","","","","","fixation","","","2","3","","","","","","","","","",""
"","","","","","","","","","","","canvas-keyboard-response","206","625905","0.0-206.0","null","null","","","","","","","","","","","","","","stimulus","","","2","3","","","","","","","","","",""
"","","","","","","","","","","","canvas-button-response","207","628881","0.0-207.0","2973","cat","","","","","","","","","","","","","","perceptual","","","2","3","","","","","192","bridge","10","0","0",""
"","","","","","","","","","","","canvas-button-response","208","631730","0.0-208.0","2847","0","","","","","","","","","","","","","","confidence","","","2","3","","","","","","","","","","1"
"","","","","","","","","","","","preload","209","631731","0.0-209.0","","","","","true","","","","","","","","","","","preload","","","2","4","false","[]","[]","[]","","","","","",""
"","","","","","","","","","","","canvas-keyboard-response","210","632034","0.0-210.0","null","null","","","","","","","","","","","","","","fixation","","","2","4","","","","","","","","","",""
"","","","","","","","","","","","canvas-keyboard-response","211","632337","0.0-211.0","null","null","","","","","","","","","","","","","","stimulus","","","2","4","","","","","","","","","",""
"","","","","","","","","","","","canvas-button-response","212","636581","0.0-212.0","4241","knife","","","","","","","","","","","","","","perceptual","","","2","4","","","","","149","bed","10","0","0",""
"","","","","","","","","","","","canvas-button-response","213","638798","0.0-213.0","2215","3","","","","","","","","","","","","","","confidence","","","2","4","","","","","","","","","","1"
"","","","","","","","","","","","preload","214","638799","0.0-214.0","","","","","true","","","","","","","","","","","preload","","","2","5","false","[]","[]","[]","","","","","",""
"","","","","","","","","","","","canvas-keyboard-response","215","639102","0.0-215.0","null","null","","","","","","","","","","","","","","fixation","","","2","5","","","","","","","","","",""
"","","","","","","","","","","","canvas-keyboard-response","216","639405","0.0-216.0","null","null","","","","","","","","","","","","","","stimulus","","","2","5","","","","","","","","","",""
"","","","","","","","","","","","canvas-button-response","217","643463","0.0-217.0","4056","bridge","","","","","","","","","","","","","","perceptual","","","2","5","","","","","316","cat","10","0","0",""
"","","","","","","","","","","","canvas-button-response","218","644380","0.0-218.0","915","2","","","","","","","","","","","","","","confidence","","","2","5","","","","","","","","","","1"
"","","","","","","","","","","","preload","219","644382","0.0-219.0","","","","","true","","","","","","","","","","","preload","","","2","6","false","[]","[]","[]","","","","","",""
"","","","","","","","","","","","canvas-keyboard-response","220","644684","0.0-220.0","null","null","","","","","","","","","","","","","","fixation","","","2","6","","","","","","","","","",""
"","","","","","","","","","","","canvas-keyboard-response","221","644988","0.0-221.0","null","null","","","","","","","","","","","","","","stimulus","","","2","6","","","","","","","","","",""
"","","","","","","","","","","","canvas-button-response","222","648881","0.0-222.0","3890","phone","","","","","","","","","","","","","","perceptual","","","2","6","","","","","126","bed","6","0","0",""
"","","","","","","","","","","","canvas-button-response","223","649998","0.0-223.0","1115","8","","","","","","","","","","","","","","confidence","","","2","6","","","","","","","","","","1"
"","","","","","","","","","","","preload","224","649999","0.0-224.0","","","","","true","","","","","","","","","","","preload","","","2","7","false","[]","[]","[]","","","","","",""
"","","","","","","","","","","","canvas-keyboard-response","225","650301","0.0-225.0","null","null","","","","","","","","","","","","","","fixation","","","2","7","","","","","","","","","",""
"","","","","","","","","","","","canvas-keyboard-response","226","650604","0.0-226.0","null","null","","","","","","","","","","","","","","stimulus","","","2","7","","","","","","","","","",""
"","","","","","","","","","","","canvas-button-response","227","654496","0.0-227.0","3890","house","","","","","","","","","","","","","","perceptual","","","2","7","","","","","11","house","6","0","1",""
"","","","","","","","","","","","canvas-button-response","228","656064","0.0-228.0","1566","2","","","","","","","","","","","","","","confidence","","","2","7","","","","","","","","","","2"
"","","","","","","","","","","","preload","229","656065","0.0-229.0","","","","","true","","","","","","","","","","","preload","","","2","8","false","[]","[]","[]","","","","","",""
"","","","","","","","","","","","canvas-keyboard-response","230","656368","0.0-230.0","null","null","","","","","","","","","","","","","","fixation","","","2","8","","","","","","","","","",""
"","","","","","","","","","","","canvas-keyboard-response","231","656671","0.0-231.0","null","null","","","","","","","","","","","","","","stimulus","","","2","8","","","","","","","","","",""
"","","","","","","","","","","","canvas-button-response","232","657729","0.0-232.0","1056","knife","","","","","","","","","","","","","","perceptual","","","2","8","","","","","394","knife","10","0","1",""
"","","","","","","","","","","","canvas-button-response","233","659231","0.0-233.0","1500","10","","","","","","","","","","","","","","confidence","","","2","8","","","","","","","","","","3"
"","","","","","","","","","","","preload","234","659232","0.0-234.0","","","","","true","","","","","","","","","","","preload","","","2","9","false","[]","[]","[]","","","","","",""
"","","","","","","","","","","","canvas-keyboard-response","235","659535","0.0-235.0","null","null","","","","","","","","","","","","","","fixation","","","2","9","","","","","","","","","",""
"","","","","","","","","","","","canvas-keyboard-response","236","659838","0.0-236.0","null","null","","","","","","","","","","","","","","stimulus","","","2","9","","","","","","","","","",""
"","","","","","","","","","","","canvas-button-response","237","663182","0.0-237.0","3342","bed","","","","","","","","","","","","","","perceptual","","","2","9","","","","","148","bed","10","0","1",""
"","","","","","","","","","","","canvas-button-response","238","664763","0.0-238.0","1580","8","","","","","","","","","","","","","","confidence","","","2","9","","","","","","","","","","4"
"","","","","","","","","","","","preload","239","664764","0.0-239.0","","","","","true","","","","","","","","","","","preload","","","2","10","false","[]","[]","[]","","","","","",""
"","","","","","","","","","","","canvas-keyboard-response","240","665066","0.0-240.0","null","null","","","","","","","","","","","","","","fixation","","","2","10","","","","","","","","","",""
"","","","","","","","","","","","canvas-keyboard-response","241","665369","0.0-241.0","null","null","","","","","","","","","","","","","","stimulus","","","2","10","","","","","","","","","",""
"","","","","","","","","","","","canvas-button-response","242","666615","0.0-242.0","1244","bridge","","","","","","","","","","","","","","perceptual","","","2","10","","","","","163","bridge","6","0","1",""
"","","","","","","","","","","","canvas-button-response","243","667465","0.0-243.0","849","8","","","","","","","","","","","","","","confidence","","","2","10","","","","","","","","","","5"
"","","","","","","","","","","","preload","244","667466","0.0-244.0","","","","","true","","","","","","","","","","","preload","","","2","11","false","[]","[]","[]","","","","","",""
"","","","","","","","","","","","canvas-keyboard-response","245","667769","0.0-245.0","null","null","","","","","","","","","","","","","","fixation","","","2","11","","","","","","","","","",""
"","","","","","","","","","","","canvas-keyboard-response","246","668071","0.0-246.0","null","null","","","","","","","","","","","","","","stimulus","","","2","11","","","","","","","","","",""
"","","","","","","","","","","","canvas-button-response","247","669847","0.0-247.0","1774","cat","","","","","","","","","","","","","","perceptual","","","2","11","","","","","317","cat","10","0","1",""
"","","","","","","","","","","","canvas-button-response","248","671580","0.0-248.0","1731","10","","","","","","","","","","","","","","confidence","","","2","11","","","","","","","","","","6"
"","","","","","","","","","","","preload","249","671581","0.0-249.0","","","","","true","","","","","","","","","","","preload","","","2","12","false","[]","[]","[]","","","","","",""
"","","","","","","","","","","","canvas-keyboard-response","250","671883","0.0-250.0","null","null","","","","","","","","","","","","","","fixation","","","2","12","","","","","","","","","",""
"","","","","","","","","","","","canvas-keyboard-response","251","672186","0.0-251.0","null","null","","","","","","","","","","","","","","stimulus","","","2","12","","","","","","","","","",""
"","","","","","","","","","","","canvas-button-response","252","674046","0.0-252.0","1858","elephant","","","","","","","","","","","","","","perceptual","","","2","12","","","","","108","phone","10","0","0",""
"","","","","","","","","","","","canvas-button-response","253","676848","0.0-253.0","2800","4","","","","","","","","","","","","","","confidence","","","2","12","","","","","","","","","","6"
"","","","","","","","","","","","preload","254","676849","0.0-254.0","","","","","true","","","","","","","","","","","preload","","","2","13","false","[]","[]","[]","","","","","",""
"","","","","","","","","","","","canvas-keyboard-response","255","677151","0.0-255.0","null","null","","","","","","","","","","","","","","fixation","","","2","13","","","","","","","","","",""
"","","","","","","","","","","","canvas-keyboard-response","256","677454","0.0-256.0","null","null","","","","","","","","","","","","","","stimulus","","","2","13","","","","","","","","","",""
"","","","","","","","","","","","canvas-button-response","257","679680","0.0-257.0","2224","car","","","","","","","","","","","","","","perceptual","","","2","13","","","","","188","bridge","10","0","0",""
"","","","","","","","","","","","canvas-button-response","258","682164","0.0-258.0","2482","3","","","","","","","","","","","","","","confidence","","","2","13","","","","","","","","","","6"
"","","","","","","","","","","","preload","259","682165","0.0-259.0","","","","","true","","","","","","","","","","","preload","","","2","14","false","[]","[]","[]","","","","","",""
"","","","","","","","","","","","canvas-keyboard-response","260","682467","0.0-260.0","null","null","","","","","","","","","","","","","","fixation","","","2","14","","","","","","","","","",""
"","","","","","","","","","","","canvas-keyboard-response","261","682770","0.0-261.0","null","null","","","","","","","","","","","","","","stimulus","","","2","14","","","","","","","","","",""
"","","","","","","","","","","","canvas-button-response","262","685663","0.0-262.0","2891","car","","","","","","","","","","","","","","perceptual","","","2","14","","","","","69","car","10","0","1",""
"","","","","","","","","","","","canvas-button-response","263","686664","0.0-263.0","998","3","","","","","","","","","","","","","","confidence","","","2","14","","","","","","","","","","7"
"","","","","","","","","","","","preload","264","686665","0.0-264.0","","","","","true","","","","","","","","","","","preload","","","2","15","false","[]","[]","[]","","","","","",""
"","","","","","","","","","","","canvas-keyboard-response","265","686968","0.0-265.0","null","null","","","","","","","","","","","","","","fixation","","","2","15","","","","","","","","","",""
"","","","","","","","","","","","canvas-keyboard-response","266","687271","0.0-266.0","null","null","","","","","","","","","","","","","","stimulus","","","2","15","","","","","","","","","",""
"","","","","","","","","","","","canvas-button-response","267","688997","0.0-267.0","1723","phone","","","","","","","","","","","","","","perceptual","","","2","15","","","","","86","phone","6","0","1",""
"","","","","","","","","","","","canvas-button-response","268","689830","0.0-268.0","830","10","","","","","","","","","","","","","","confidence","","","2","15","","","","","","","","","","8"
"","","","","","","","","","","","preload","269","689831","0.0-269.0","","","","","true","","","","","","","","","","","preload","","","2","16","false","[]","[]","[]","","","","","",""
"","","","","","","","","","","","canvas-keyboard-response","270","690132","0.0-270.0","null","null","","","","","","","","","","","","","","fixation","","","2","16","","","","","","","","","",""
"","","","","","","","","","","","canvas-keyboard-response","271","690436","0.0-271.0","null","null","","","","","","","","","","","","","","stimulus","","","2","16","","","","","","","","","",""
"","","","","","","","","","","","canvas-button-response","272","696515","0.0-272.0","6077","cat","","","","","","","","","","","","","","perceptual","","","2","16","","","","","111","phone","10","0","0",""
"","","","","","","","","","","","canvas-button-response","273","698797","0.0-273.0","2280","2","","","","","","","","","","","","","","confidence","","","2","16","","","","","","","","","","8"
"","","","","","","","","","","","preload","274","698798","0.0-274.0","","","","","true","","","","","","","","","","","preload","","","2","17","false","[]","[]","[]","","","","","",""
"","","","","","","","","","","","canvas-keyboard-response","275","699101","0.0-275.0","null","null","","","","","","","","","","","","","","fixation","","","2","17","","","","","","","","","",""
"","","","","","","","","","","","canvas-keyboard-response","276","699404","0.0-276.0","null","null","","","","","","","","","","","","","","stimulus","","","2","17","","","","","","","","","",""
"","","","","","","","","","","","canvas-button-response","277","704163","0.0-277.0","4756","bed","","","","","","","","","","","","","","perceptual","","","2","17","","","","","327","elephant","6","0","0",""
"","","","","","","","","","","","canvas-button-response","278","704965","0.0-278.0","800","0","","","","","","","","","","","","","","confidence","","","2","17","","","","","","","","","","8"
"","","","","","","","","","","","preload","279","704966","0.0-279.0","","","","","true","","","","","","","","","","","preload","","","2","18","false","[]","[]","[]","","","","","",""
"","","","","","","","","","","","canvas-keyboard-response","280","705268","0.0-280.0","null","null","","","","","","","","","","","","","","fixation","","","2","18","","","","","","","","","",""
"","","","","","","","","","","","canvas-keyboard-response","281","705572","0.0-281.0","null","null","","","","","","","","","","","","","","stimulus","","","2","18","","","","","","","","","",""
"","","","","","","","","","","","canvas-button-response","282","709296","0.0-282.0","3721","elephant","","","","","","","","","","","","","","perceptual","","","2","18","","","","","323","elephant","6","0","1",""
"","","","","","","","","","","","canvas-button-response","283","710414","0.0-283.0","1116","4","","","","","","","","","","","","","","confidence","","","2","18","","","","","","","","","","9"
"","","","","","","","","","","","preload","284","710415","0.0-284.0","","","","","true","","","","","","","","","","","preload","","","2","19","false","[]","[]","[]","","","","","",""
"","","","","","","","","","","","canvas-keyboard-response","285","710718","0.0-285.0","null","null","","","","","","","","","","","","","","fixation","","","2","19","","","","","","","","","",""
"","","","","","","","","","","","canvas-keyboard-response","286","711021","0.0-286.0","null","null","","","","","","","","","","","","","","stimulus","","","2","19","","","","","","","","","",""
"","","","","","","","","","","","canvas-button-response","287","712832","0.0-287.0","1809","flower","","","","","","","","","","","","","","perceptual","","","2","19","","","","","219","flower","6","0","1",""
"","","","","","","","","","","","canvas-button-response","288","714614","0.0-288.0","1781","8","","","","","","","","","","","","","","confidence","","","2","19","","","","","","","","","","10"
"","","","","","","","","","","","preload","289","714615","0.0-289.0","","","","","true","","","","","","","","","","","preload","","","2","20","false","[]","[]","[]","","","","","",""
"","","","","","","","","","","","canvas-keyboard-response","290","714919","0.0-290.0","null","null","","","","","","","","","","","","","","fixation","","","2","20","","","","","","","","","",""
"","","","","","","","","","","","canvas-keyboard-response","291","715222","0.0-291.0","null","null","","","","","","","","","","","","","","stimulus","","","2","20","","","","","","","","","",""
"","","","","","","","","","","","canvas-button-response","292","720979","0.0-292.0","5755","house","","","","","","","","","","","","","","perceptual","","","2","20","","","","","14","house","6","0","1",""
"","","","","","","","","","","","canvas-button-response","293","722615","0.0-293.0","1634","4","","","","","","","","","","","","","","confidence","","","2","20","","","","","","","","","","11"
"","","","","","","","","","","","preload","294","722616","0.0-294.0","","","","","true","","","","","","","","","","","preload","","","2","21","false","[]","[]","[]","","","","","",""
"","","","","","","","","","","","canvas-keyboard-response","295","722918","0.0-295.0","null","null","","","","","","","","","","","","","","fixation","","","2","21","","","","","","","","","",""
"","","","","","","","","","","","canvas-keyboard-response","296","723220","0.0-296.0","null","null","","","","","","","","","","","","","","stimulus","","","2","21","","","","","","","","","",""
"","","","","","","","","","","","canvas-button-response","297","729163","0.0-297.0","5940","bridge","","","","","","","","","","","","","","perceptual","","","2","21","","","","","0","house","6","0","0",""
"","","","","","","","","","","","canvas-button-response","298","730079","0.0-298.0","914","0","","","","","","","","","","","","","","confidence","","","2","21","","","","","","","","","","11"
"","","","","","","","","","","","preload","299","730080","0.0-299.0","","","","","true","","","","","","","","","","","preload","","","2","22","false","[]","[]","[]","","","","","",""
"","","","","","","","","","","","canvas-keyboard-response","300","730382","0.0-300.0","null","null","","","","","","","","","","","","","","fixation","","","2","22","","","","","","","","","",""
"","","","","","","","","","","","canvas-keyboard-response","301","730686","0.0-301.0","null","null","","","","","","","","","","","","","","stimulus","","","2","22","","","","","","","","","",""
"","","","","","","","","","","","canvas-button-response","302","732312","0.0-302.0","1625","elephant","","","","","","","","","","","","","","perceptual","","","2","22","","","","","351","elephant","10","0","1",""
"","","","","","","","","","","","canvas-button-response","303","733098","0.0-303.0","784","10","","","","","","","","","","","","","","confidence","","","2","22","","","","","","","","","","12"
"","","","","","","","","","","","preload","304","733099","0.0-304.0","","","","","true","","","","","","","","","","","preload","","","2","23","false","[]","[]","[]","","","","","",""
"","","","","","","","","","","","canvas-keyboard-response","305","733402","0.0-305.0","null","null","","","","","","","","","","","","","","fixation","","","2","23","","","","","","","","","",""
"","","","","","","","","","","","canvas-keyboard-response","306","733705","0.0-306.0","null","null","","","","","","","","","","","","","","stimulus","","","2","23","","","","","","","","","",""
"","","","","","","","","","","","canvas-button-response","307","739064","0.0-307.0","5356","bridge","","","","","","","","","","","","","","perceptual","","","2","23","","","","","28","house","10","0","0",""
"","","","","","","","","","","","canvas-button-response","308","741263","0.0-308.0","2196","5","","","","","","","","","","","","","","confidence","","","2","23","","","","","","","","","","12"
"","","","","","","","","","","","preload","309","741264","0.0-309.0","","","","","true","","","","","","","","","","","preload","","","2","24","false","[]","[]","[]","","","","","",""
"","","","","","","","","","","","canvas-keyboard-response","310","741566","0.0-310.0","null","null","","","","","","","","","","","","","","fixation","","","2","24","","","","","","","","","",""
"","","","","","","","","","","","canvas-keyboard-response","311","741869","0.0-311.0","null","null","","","","","","","","","","","","","","stimulus","","","2","24","","","","","","","","","",""
"","","","","","","","","","","","canvas-button-response","312","743729","0.0-312.0","1858","car","","","","","","","","","","","","","","perceptual","","","2","24","","","","","62","car","10","0","1",""
"","","","","","","","","","","","canvas-button-response","313","745697","0.0-313.0","1966","6","","","","","","","","","","","","","","confidence","","","2","24","","","","","","","","","","13"
"","","","","","","","","","","","preload","314","745698","0.0-314.0","","","","","true","","","","","","","","","","","preload","","","2","25","false","[]","[]","[]","","","","","",""
"","","","","","","","","","","","canvas-keyboard-response","315","746001","0.0-315.0","null","null","","","","","","","","","","","","","","fixation","","","2","25","","","","","","","","","",""
"","","","","","","","","","","","canvas-keyboard-response","316","746304","0.0-316.0","null","null","","","","","","","","","","","","","","stimulus","","","2","25","","","","","","","","","",""
"","","","","","","","","","","","canvas-button-response","317","748129","0.0-317.0","1823","bridge","","","","","","","","","","","","","","perceptual","","","2","25","","","","","161","bridge","6","0","1",""
"","","","","","","","","","","","canvas-button-response","318","751413","0.0-318.0","3281","6","","","","","","","","","","","","","","confidence","","","2","25","","","","","","","","","","14"
"","","","","","","","","","","","preload","319","751414","0.0-319.0","","","","","true","","","","","","","","","","","preload","","","2","26","false","[]","[]","[]","","","","","",""
"","","","","","","","","","","","canvas-keyboard-response","320","751718","0.0-320.0","null","null","","","","","","","","","","","","","","fixation","","","2","26","","","","","","","","","",""
"","","","","","","","","","","","canvas-keyboard-response","321","752021","0.0-321.0","null","null","","","","","","","","","","","","","","stimulus","","","2","26","","","","","","","","","",""
"","","","","","","","","","","","canvas-button-response","322","756196","0.0-322.0","4172","flower","","","","","","","","","","","","","","perceptual","","","2","26","","","","","228","flower","10","0","1",""
"","","","","","","","","","","","canvas-button-response","323","757648","0.0-323.0","1451","6","","","","","","","","","","","","","","confidence","","","2","26","","","","","","","","","","15"
"","","","","","","","","","","","preload","324","757649","0.0-324.0","","","","","true","","","","","","","","","","","preload","","","2","27","false","[]","[]","[]","","","","","",""
"","","","","","","","","","","","canvas-keyboard-response","325","757951","0.0-325.0","null","null","","","","","","","","","","","","","","fixation","","","2","27","","","","","","","","","",""
"","","","","","","","","","","","canvas-keyboard-response","326","758254","0.0-326.0","null","null","","","","","","","","","","","","","","stimulus","","","2","27","","","","","","","","","",""
"","","","","","","","","","","","canvas-button-response","327","759998","0.0-327.0","1742","car","","","","","","","","","","","","","","perceptual","","","2","27","","","","","65","car","10","0","1",""
"","","","","","","","","","","","canvas-button-response","328","760814","0.0-328.0","814","9","","","","","","","","","","","","","","confidence","","","2","27","","","","","","","","","","16"
"","","","","","","","","","","","preload","329","760815","0.0-329.0","","","","","true","","","","","","","","","","","preload","","","2","28","false","[]","[]","[]","","","","","",""
"","","","","","","","","","","","canvas-keyboard-response","330","761117","0.0-330.0","null","null","","","","","","","","","","","","","","fixation","","","2","28","","","","","","","","","",""
"","","","","","","","","","","","canvas-keyboard-response","331","761420","0.0-331.0","null","null","","","","","","","","","","","","","","stimulus","","","2","28","","","","","","","","","",""
"","","","","","","","","","","","canvas-button-response","332","765081","0.0-332.0","3659","elephant","","","","","","","","","","","","","","perceptual","","","2","28","","","","","321","elephant","6","0","1",""
"","","","","","","","","","","","canvas-button-response","333","766480","0.0-333.0","1397","1","","","","","","","","","","","","","","confidence","","","2","28","","","","","","","","","","17"
"","","","","","","","","","","","preload","334","766482","0.0-334.0","","","","","true","","","","","","","","","","","preload","","","2","29","false","[]","[]","[]","","","","","",""
"","","","","","","","","","","","canvas-keyboard-response","335","766784","0.0-335.0","null","null","","","","","","","","","","","","","","fixation","","","2","29","","","","","","","","","",""
"","","","","","","","","","","","canvas-keyboard-response","336","767087","0.0-336.0","null","null","","","","","","","","","","","","","","stimulus","","","2","29","","","","","","","","","",""
"","","","","","","","","","","","canvas-button-response","337","768880","0.0-337.0","1790","elephant","","","","","","","","","","","","","","perceptual","","","2","29","","","","","198","bridge","10","0","0",""
"","","","","","","","","","","","canvas-button-response","338","770480","0.0-338.0","1597","5","","","","","","","","","","","","","","confidence","","","2","29","","","","","","","","","","17"
"","","","","","","","","","","","preload","339","770481","0.0-339.0","","","","","true","","","","","","","","","","","preload","","","2","30","false","[]","[]","[]","","","","","",""
"","","","","","","","","","","","canvas-keyboard-response","340","770784","0.0-340.0","null","null","","","","","","","","","","","","","","fixation","","","2","30","","","","","","","","","",""
"","","","","","","","","","","","canvas-keyboard-response","341","771087","0.0-341.0","null","null","","","","","","","","","","","","","","stimulus","","","2","30","","","","","","","","","",""
"","","","","","","","","","","","canvas-button-response","342","772546","0.0-342.0","1457","knife","","","","","","","","","","","","","","perceptual","","","2","30","","","","","379","knife","6","0","1",""
"","","","","","","","","","","","canvas-button-response","343","774430","0.0-343.0","1882","9","","","","","","","","","","","","","","confidence","","","2","30","","","","","","","","","","18"
"","","","","","","","","","","","preload","344","774431","0.0-344.0","","","","","true","","","","","","","","","","","preload","","","2","31","false","[]","[]","[]","","","","","",""
"","","","","","","","","","","","canvas-keyboard-response","345","774734","0.0-345.0","null","null","","","","","","","","","","","","","","fixation","","","2","31","","","","","","","","","",""
"","","","","","","","","","","","canvas-keyboard-response","346","775037","0.0-346.0","null","null","","","","","","","","","","","","","","stimulus","","","2","31","","","","","","","","","",""
"","","","","","","","","","","","canvas-button-response","347","780846","0.0-347.0","5807","car","","","","","","","","","","","","","","perceptual","","","2","31","","","","","274","train","10","0","0",""
"","","","","","","","","","","","canvas-button-response","348","783362","0.0-348.0","2513","7","","","","","","","","","","","","","","confidence","","","2","31","","","","","","","","","","18"
"","","","","","","","","","","","preload","349","783363","0.0-349.0","","","","","true","","","","","","","","","","","preload","","","2","32","false","[]","[]","[]","","","","","",""
"","","","","","","","","","","","canvas-keyboard-response","350","783665","0.0-350.0","null","null","","","","","","","","","","","","","","fixation","","","2","32","","","","","","","","","",""
"","","","","","","","","","","","canvas-keyboard-response","351","783969","0.0-351.0","null","null","","","","","","","","","","","","","","stimulus","","","2","32","","","","","","","","","",""
"","","","","","","","","","","","canvas-button-response","352","787696","0.0-352.0","3725","car","","","","","","","","","","","","","","perceptual","","","2","32","","","","","256","train","6","0","0",""
"","","","","","","","","","","","canvas-button-response","353","789413","0.0-353.0","1715","4","","","","","","","","","","","","","","confidence","","","2","32","","","","","","","","","","18"
"","","","","","","","","","","","preload","354","789414","0.0-354.0","","","","","true","","","","","","","","","","","preload","","","2","33","false","[]","[]","[]","","","","","",""
"","","","","","","","","","","","canvas-keyboard-response","355","789717","0.0-355.0","null","null","","","","","","","","","","","","","","fixation","","","2","33","","","","","","","","","",""
"","","","","","","","","","","","canvas-keyboard-response","356","790020","0.0-356.0","null","null","","","","","","","","","","","","","","stimulus","","","2","33","","","","","","","","","",""
"","","","","","","","","","","","canvas-button-response","357","793582","0.0-357.0","3559","house","","","","","","","","","","","","","","perceptual","","","2","33","","","","","4","house","6","0","1",""
"","","","","","","","","","","","canvas-button-response","358","795298","0.0-358.0","1714","10","","","","","","","","","","","","","","confidence","","","2","33","","","","","","","","","","19"
"","","","","","","","","","","","preload","359","795299","0.0-359.0","","","","","true","","","","","","","","","","","preload","","","2","34","false","[]","[]","[]","","","","","",""
"","","","","","","","","","","","canvas-keyboard-response","360","795602","0.0-360.0","null","null","","","","","","","","","","","","","","fixation","","","2","34","","","","","","","","","",""
"","","","","","","","","","","","canvas-keyboard-response","361","795905","0.0-361.0","null","null","","","","","","","","","","","","","","stimulus","","","2","34","","","","","","","","","",""
"","","","","","","","","","","","canvas-button-response","362","800163","0.0-362.0","4256","train","","","","","","","","","","","","","","perceptual","","","2","34","","","","","240","train","6","0","1",""
"","","","","","","","","","","","canvas-button-response","363","801896","0.0-363.0","1731","7","","","","","","","","","","","","","","confidence","","","2","34","","","","","","","","","","20"
"","","","","","","","","","","","preload","364","801897","0.0-364.0","","","","","true","","","","","","","","","","","preload","","","2","35","false","[]","[]","[]","","","","","",""
"","","","","","","","","","","","canvas-keyboard-response","365","802199","0.0-365.0","null","null","","","","","","","","","","","","","","fixation","","","2","35","","","","","","","","","",""
"","","","","","","","","","","","canvas-keyboard-response","366","802502","0.0-366.0","null","null","","","","","","","","","","","","","","stimulus","","","2","35","","","","","","","","","",""
"","","","","","","","","","","","canvas-button-response","367","803514","0.0-367.0","1010","bridge","","","","","","","","","","","","","","perceptual","","","2","35","","","","","165","bridge","6","0","1",""
"","","","","","","","","","","","canvas-button-response","368","805012","0.0-368.0","1497","10","","","","","","","","","","","","","","confidence","","","2","35","","","","","","","","","","21"
"","","","","","","","","","","","preload","369","805013","0.0-369.0","","","","","true","","","","","","","","","","","preload","","","2","36","false","[]","[]","[]","","","","","",""
"","","","","","","","","","","","canvas-keyboard-response","370","805316","0.0-370.0","null","null","","","","","","","","","","","","","","fixation","","","2","36","","","","","","","","","",""
"","","","","","","","","","","","canvas-keyboard-response","371","805618","0.0-371.0","null","null","","","","","","","","","","","","","","stimulus","","","2","36","","","","","","","","","",""
"","","","","","","","","","","","canvas-button-response","372","806731","0.0-372.0","1111","car","","","","","","","","","","","","","","perceptual","","","2","36","","","","","78","car","10","0","1",""
"","","","","","","","","","","","canvas-button-response","373","807831","0.0-373.0","1097","10","","","","","","","","","","","","","","confidence","","","2","36","","","","","","","","","","22"
"","","","","","","","","","","","preload","374","807832","0.0-374.0","","","","","true","","","","","","","","","","","preload","","","2","37","false","[]","[]","[]","","","","","",""
"","","","","","","","","","","","canvas-keyboard-response","375","808134","0.0-375.0","null","null","","","","","","","","","","","","","","fixation","","","2","37","","","","","","","","","",""
"","","","","","","","","","","","canvas-keyboard-response","376","808437","0.0-376.0","null","null","","","","","","","","","","","","","","stimulus","","","2","37","","","","","","","","","",""
"","","","","","","","","","","","canvas-button-response","377","809696","0.0-377.0","1257","car","","","","","","","","","","","","","","perceptual","","","2","37","","","","","79","car","10","0","1",""
"","","","","","","","","","","","canvas-button-response","378","810530","0.0-378.0","831","8","","","","","","","","","","","","","","confidence","","","2","37","","","","","","","","","","23"
"","","","","","","","","","","","preload","379","810531","0.0-379.0","","","","","true","","","","","","","","","","","preload","","","2","38","false","[]","[]","[]","","","","","",""
"","","","","","","","","","","","canvas-keyboard-response","380","810833","0.0-380.0","null","null","","","","","","","","","","","","","","fixation","","","2","38","","","","","","","","","",""
"","","","","","","","","","","","canvas-keyboard-response","381","811136","0.0-381.0","null","null","","","","","","","","","","","","","","stimulus","","","2","38","","","","","","","","","",""
"","","","","","","","","","","","canvas-button-response","382","813081","0.0-382.0","1942","house","","","","","","","","","","","","","","perceptual","","","2","38","","","","","17","house","6","0","1",""
"","","","","","","","","","","","canvas-button-response","383","813996","0.0-383.0","913","10","","","","","","","","","","","","","","confidence","","","2","38","","","","","","","","","","24"
"","","","","","","","","","","","preload","384","813997","0.0-384.0","","","","","true","","","","","","","","","","","preload","","","2","39","false","[]","[]","[]","","","","","",""
"","","","","","","","","","","","canvas-keyboard-response","385","814300","0.0-385.0","null","null","","","","","","","","","","","","","","fixation","","","2","39","","","","","","","","","",""
"","","","","","","","","","","","canvas-keyboard-response","386","814604","0.0-386.0","null","null","","","","","","","","","","","","","","stimulus","","","2","39","","","","","","","","","",""
"","","","","","","","","","","","canvas-button-response","387","817082","0.0-387.0","2476","phone","","","","","","","","","","","","","","perceptual","","","2","39","","","","","105","phone","10","0","1",""
"","","","","","","","","","","","canvas-button-response","388","818181","0.0-388.0","1098","7","","","","","","","","","","","","","","confidence","","","2","39","","","","","","","","","","25"
"","","","","","","","","","","","preload","389","818182","0.0-389.0","","","","","true","","","","","","","","","","","preload","","","2","40","false","[]","[]","[]","","","","","",""
"","","","","","","","","","","","canvas-keyboard-response","390","818484","0.0-390.0","null","null","","","","","","","","","","","","","","fixation","","","2","40","","","","","","","","","",""
"","","","","","","","","","","","canvas-keyboard-response","391","818787","0.0-391.0","null","null","","","","","","","","","","","","","","stimulus","","","2","40","","","","","","","","","",""
"","","","","","","","","","","","canvas-button-response","392","819864","0.0-392.0","1075","car","","","","","","","","","","","","","","perceptual","","","2","40","","","","","48","car","6","0","1",""
"","","","","","","","","","","","canvas-button-response","393","820847","0.0-393.0","980","8","","","","","","","","","","","","","","confidence","","","2","40","","","","","","","","","","26"
"","","","","","","","","","","","preload","394","820848","0.0-394.0","","","","","true","","","","","","","","","","","preload","","","2","41","false","[]","[]","[]","","","","","",""
"","","","","","","","","","","","canvas-keyboard-response","395","821150","0.0-395.0","null","null","","","","","","","","","","","","","","fixation","","","2","41","","","","","","","","","",""
"","","","","","","","","","","","canvas-keyboard-response","396","821454","0.0-396.0","null","null","","","","","","","","","","","","","","stimulus","","","2","41","","","","","","","","","",""
"","","","","","","","","","","","canvas-button-response","397","823662","0.0-397.0","2206","cat","","","","","","","","","","","","","","perceptual","","","2","41","","","","","289","cat","6","0","1",""
"","","","","","","","","","","","canvas-button-response","398","824246","0.0-398.0","582","8","","","","","","","","","","","","","","confidence","","","2","41","","","","","","","","","","27"
"","","","","","","","","","","","preload","399","824247","0.0-399.0","","","","","true","","","","","","","","","","","preload","","","2","42","false","[]","[]","[]","","","","","",""
"","","","","","","","","","","","canvas-keyboard-response","400","824550","0.0-400.0","null","null","","","","","","","","","","","","","","fixation","","","2","42","","","","","","","","","",""
"","","","","","","","","","","","canvas-keyboard-response","401","824853","0.0-401.0","null","null","","","","","","","","","","","","","","stimulus","","","2","42","","","","","","","","","",""
"","","","","","","","","","","","canvas-button-response","402","827699","0.0-402.0","2844","car","","","","","","","","","","","","","","perceptual","","","2","42","","","","","76","car","10","0","1",""
"","","","","","","","","","","","canvas-button-response","403","828365","0.0-403.0","665","6","","","","","","","","","","","","","","confidence","","","2","42","","","","","","","","","","28"
"","","","","","","","","","","","preload","404","828366","0.0-404.0","","","","","true","","","","","","","","","","","preload","","","2","43","false","[]","[]","[]","","","","","",""
"","","","","","","","","","","","canvas-keyboard-response","405","828669","0.0-405.0","null","null","","","","","","","","","","","","","","fixation","","","2","43","","","","","","","","","",""
"","","","","","","","","","","","canvas-keyboard-response","406","828972","0.0-406.0","null","null","","","","","","","","","","","","","","stimulus","","","2","43","","","","","","","","","",""
"","","","","","","","","","","","canvas-button-response","407","829996","0.0-407.0","1021","knife","","","","","","","","","","","","","","perceptual","","","2","43","","","","","380","knife","10","0","1",""
"","","","","","","","","","","","canvas-button-response","408","830963","0.0-408.0","965","10","","","","","","","","","","","","","","confidence","","","2","43","","","","","","","","","","29"
"","","","","","","","","","","","preload","409","830965","0.0-409.0","","","","","true","","","","","","","","","","","preload","","","2","44","false","[]","[]","[]","","","","","",""
"","","","","","","","","","","","canvas-keyboard-response","410","831268","0.0-410.0","null","null","","","","","","","","","","","","","","fixation","","","2","44","","","","","","","","","",""
"","","","","","","","","","","","canvas-keyboard-response","411","831572","0.0-411.0","null","null","","","","","","","","","","","","","","stimulus","","","2","44","","","","","","","","","",""
"","","","","","","","","","","","canvas-button-response","412","833480","0.0-412.0","1905","bridge","","","","","","","","","","","","","","perceptual","","","2","44","","","","","160","bridge","6","0","1",""
"","","","","","","","","","","","canvas-button-response","413","834781","0.0-413.0","1299","3","","","","","","","","","","","","","","confidence","","","2","44","","","","","","","","","","30"
"","","","","","","","","","","","preload","414","834782","0.0-414.0","","","","","true","","","","","","","","","","","preload","","","2","45","false","[]","[]","[]","","","","","",""
"","","","","","","","","","","","canvas-keyboard-response","415","835085","0.0-415.0","null","null","","","","","","","","","","","","","","fixation","","","2","45","","","","","","","","","",""
"","","","","","","","","","","","canvas-keyboard-response","416","835387","0.0-416.0","null","null","","","","","","","","","","","","","","stimulus","","","2","45","","","","","","","","","",""
"","","","","","","","","","","","canvas-button-response","417","838913","0.0-417.0","3524","cat","","","","","","","","","","","","","","perceptual","","","2","45","","","","","305","cat","10","0","1",""
"","","","","","","","","","","","canvas-button-response","418","840013","0.0-418.0","1098","4","","","","","","","","","","","","","","confidence","","","2","45","","","","","","","","","","31"
"","","","","","","","","","","","preload","419","840014","0.0-419.0","","","","","true","","","","","","","","","","","preload","","","2","46","false","[]","[]","[]","","","","","",""
"","","","","","","","","","","","canvas-keyboard-response","420","840317","0.0-420.0","null","null","","","","","","","","","","","","","","fixation","","","2","46","","","","","","","","","",""
"","","","","","","","","","","","canvas-keyboard-response","421","840621","0.0-421.0","null","null","","","","","","","","","","","","","","stimulus","","","2","46","","","","","","","","","",""
"","","","","","","","","","","","canvas-button-response","422","841979","0.0-422.0","1356","bridge","","","","","","","","","","","","","","perceptual","","","2","46","","","","","187","bridge","10","0","1",""
"","","","","","","","","","","","canvas-button-response","423","843248","0.0-423.0","1267","7","","","","","","","","","","","","","","confidence","","","2","46","","","","","","","","","","32"
"","","","","","","","","","","","preload","424","843248","0.0-424.0","","","","","true","","","","","","","","","","","preload","","","2","47","false","[]","[]","[]","","","","","",""
"","","","","","","","","","","","canvas-keyboard-response","425","843551","0.0-425.0","null","null","","","","","","","","","","","","","","fixation","","","2","47","","","","","","","","","",""
"","","","","","","","","","","","canvas-keyboard-response","426","843854","0.0-426.0","null","null","","","","","","","","","","","","","","stimulus","","","2","47","","","","","","","","","",""
"","","","","","","","","","","","canvas-button-response","427","846996","0.0-427.0","3140","bed","","","","","","","","","","","","","","perceptual","","","2","47","","","","","32","house","10","0","0",""
"","","","","","","","","","","","canvas-button-response","428","847879","0.0-428.0","882","0","","","","","","","","","","","","","","confidence","","","2","47","","","","","","","","","","32"
"","","","","","","","","","","","preload","429","847881","0.0-429.0","","","","","true","","","","","","","","","","","preload","","","2","48","false","[]","[]","[]","","","","","",""
"","","","","","","","","","","","canvas-keyboard-response","430","848184","0.0-430.0","null","null","","","","","","","","","","","","","","fixation","","","2","48","","","","","","","","","",""
"","","","","","","","","","","","canvas-keyboard-response","431","848487","0.0-431.0","null","null","","","","","","","","","","","","","","stimulus","","","2","48","","","","","","","","","",""
"","","","","","","","","","","","canvas-button-response","432","849763","0.0-432.0","1273","car","","","","","","","","","","","","","","perceptual","","","2","48","","","","","66","car","10","0","1",""
"","","","","","","","","","","","canvas-button-response","433","852680","0.0-433.0","2915","7","","","","","","","","","","","","","","confidence","","","2","48","","","","","","","","","","33"
"","","","","","","","","","","","preload","434","852682","0.0-434.0","","","","","true","","","","","","","","","","","preload","","","2","49","false","[]","[]","[]","","","","","",""
"","","","","","","","","","","","canvas-keyboard-response","435","852984","0.0-435.0","null","null","","","","","","","","","","","","","","fixation","","","2","49","","","","","","","","","",""
"","","","","","","","","","","","canvas-keyboard-response","436","853288","0.0-436.0","null","null","","","","","","","","","","","","","","stimulus","","","2","49","","","","","","","","","",""
"","","","","","","","","","","","canvas-button-response","437","858546","0.0-437.0","5255","car","","","","","","","","","","","","","","perceptual","","","2","49","","","","","241","train","6","0","0",""
"","","","","","","","","","","","canvas-button-response","438","859496","0.0-438.0","948","2","","","","","","","","","","","","","","confidence","","","2","49","","","","","","","","","","33"
"","","","","","","","","","","","html-button-response","439","895598","0.0-439.0","36100","0","","","","","","","","","","","","","","<p style=""font-size:20px;color:#000000"">You got 33 out of 50 trials correct in this block.<br><br>You have completed 6% of the experiment.<br><br>Take a short break.<br><br>When you are ready, click Continue to proceed.","","","2","49","","","","","","","","","",""
"","","","","","","","","","","","html-keyboard-response","440","896602","0.0-440.0","null","null","","","","","","","","","","","","","","<p style=""font-size:32px;color:#000000""><br><br> RUN: &nbsp 1/4 <br><br> BLOCK: 2/4 ","","","2","49","","","","","","","","","",""
"","","","","","","","","","","","preload","441","896603","0.0-441.0","","","","","true","","","","","","","","","","","preload","","","2","50","false","[]","[]","[]","","","","","",""
"","","","","","","","","","","","canvas-keyboard-response","442","896907","0.0-442.0","null","null","","","","","","","","","","","","","","fixation","","","2","50","","","","","","","","","",""
"","","","","","","","","","","","canvas-keyboard-response","443","897210","0.0-443.0","null","null","","","","","","","","","","","","","","stimulus","","","2","50","","","","","","","","","",""
"","","","","","","","","","","","canvas-button-response","444","899661","0.0-444.0","2449","elephant","","","","","","","","","","","","","","perceptual","","","2","50","","","","","329","elephant","6","0","1",""
"","","","","","","","","","","","canvas-button-response","445","900397","0.0-445.0","733","10","","","","","","","","","","","","","","confidence","","","2","50","","","","","","","","","","1"
"","","","","","","","","","","","preload","446","900398","0.0-446.0","","","","","true","","","","","","","","","","","preload","","","2","51","false","[]","[]","[]","","","","","",""
"","","","","","","","","","","","canvas-keyboard-response","447","900700","0.0-447.0","null","null","","","","","","","","","","","","","","fixation","","","2","51","","","","","","","","","",""
"","","","","","","","","","","","canvas-keyboard-response","448","901003","0.0-448.0","null","null","","","","","","","","","","","","","","stimulus","","","2","51","","","","","","","","","",""
"","","","","","","","","","","","canvas-button-response","449","903164","0.0-449.0","2159","flower","","","","","","","","","","","","","","perceptual","","","2","51","","","","","226","flower","10","0","1",""
"","","","","","","","","","","","canvas-button-response","450","904229","0.0-450.0","1062","10","","","","","","","","","","","","","","confidence","","","2","51","","","","","","","","","","2"
"","","","","","","","","","","","preload","451","904230","0.0-451.0","","","","","true","","","","","","","","","","","preload","","","2","52","false","[]","[]","[]","","","","","",""
"","","","","","","","","","","","canvas-keyboard-response","452","904533","0.0-452.0","null","null","","","","","","","","","","","","","","fixation","","","2","52","","","","","","","","","",""
"","","","","","","","","","","","canvas-keyboard-response","453","904836","0.0-453.0","null","null","","","","","","","","","","","","","","stimulus","","","2","52","","","","","","","","","",""
"","","","","","","","","","","","canvas-button-response","454","906598","0.0-454.0","1760","cat","","","","","","","","","","","","","","perceptual","","","2","52","","","","","297","cat","6","0","1",""
"","","","","","","","","","","","canvas-button-response","455","907512","0.0-455.0","912","10","","","","","","","","","","","","","","confidence","","","2","52","","","","","","","","","","3"
"","","","","","","","","","","","preload","456","907513","0.0-456.0","","","","","true","","","","","","","","","","","preload","","","2","53","false","[]","[]","[]","","","","","",""
"","","","","","","","","","","","canvas-keyboard-response","457","907815","0.0-457.0","null","null","","","","","","","","","","","","","","fixation","","","2","53","","","","","","","","","",""
"","","","","","","","","","","","canvas-keyboard-response","458","908118","0.0-458.0","null","null","","","","","","","","","","","","","","stimulus","","","2","53","","","","","","","","","",""
"","","","","","","","","","","","canvas-button-response","459","909764","0.0-459.0","1644","house","","","","","","","","","","","","","","perceptual","","","2","53","","","","","7","house","6","0","1",""
"","","","","","","","","","","","canvas-button-response","460","910829","0.0-460.0","1063","10","","","","","","","","","","","","","","confidence","","","2","53","","","","","","","","","","4"
"","","","","","","","","","","","preload","461","910830","0.0-461.0","","","","","true","","","","","","","","","","","preload","","","2","54","false","[]","[]","[]","","","","","",""
"","","","","","","","","","","","canvas-keyboard-response","462","911133","0.0-462.0","null","null","","","","","","","","","","","","","","fixation","","","2","54","","","","","","","","","",""
"","","","","","","","","","","","canvas-keyboard-response","463","911435","0.0-463.0","null","null","","","","","","","","","","","","","","stimulus","","","2","54","","","","","","","","","",""
"","","","","","","","","","","","canvas-button-response","464","913214","0.0-464.0","1777","elephant","","","","","","","","","","","","","","perceptual","","","2","54","","","","","331","elephant","6","0","1",""
"","","","","","","","","","","","canvas-button-response","465","913831","0.0-465.0","615","10","","","","","","","","","","","","","","confidence","","","2","54","","","","","","","","","","5"
"","","","","","","","","","","","preload","466","913831","0.0-466.0","","","","","true","","","","","","","","","","","preload","","","2","55","false","[]","[]","[]","","","","","",""
"","","","","","","","","","","","canvas-keyboard-response","467","914134","0.0-467.0","null","null","","","","","","","","","","","","","","fixation","","","2","55","","","","","","","","","",""
"","","","","","","","","","","","canvas-keyboard-response","468","914437","0.0-468.0","null","null","","","","","","","","","","","","","","stimulus","","","2","55","","","","","","","","","",""
"","","","","","","","","","","","canvas-button-response","469","916095","0.0-469.0","1656","car","","","","","","","","","","","","","","perceptual","","","2","55","","","","","67","car","10","0","1",""
"","","","","","","","","","","","canvas-button-response","470","917313","0.0-470.0","1216","8","","","","","","","","","","","","","","confidence","","","2","55","","","","","","","","","","6"
"","","","","","","","","","","","preload","471","917314","0.0-471.0","","","","","true","","","","","","","","","","","preload","","","2","56","false","[]","[]","[]","","","","","",""
"","","","","","","","","","","","canvas-keyboard-response","472","917618","0.0-472.0","null","null","","","","","","","","","","","","","","fixation","","","2","56","","","","","","","","","",""
"","","","","","","","","","","","canvas-keyboard-response","473","917921","0.0-473.0","null","null","","","","","","","","","","","","","","stimulus","","","2","56","","","","","","","","","",""
"","","","","","","","","","","","canvas-button-response","474","920161","0.0-474.0","2238","flower","","","","","","","","","","","","","","perceptual","","","2","56","","","","","210","flower","6","0","1",""
"","","","","","","","","","","","canvas-button-response","475","921579","0.0-475.0","1416","9","","","","","","","","","","","","","","confidence","","","2","56","","","","","","","","","","7"
"","","","","","","","","","","","preload","476","921581","0.0-476.0","","","","","true","","","","","","","","","","","preload","","","2","57","false","[]","[]","[]","","","","","",""
"","","","","","","","","","","","canvas-keyboard-response","477","921883","0.0-477.0","null","null","","","","","","","","","","","","","","fixation","","","2","57","","","","","","","","","",""
"","","","","","","","","","","","canvas-keyboard-response","478","922186","0.0-478.0","null","null","","","","","","","","","","","","","","stimulus","","","2","57","","","","","","","","","",""
"","","","","","","","","","","","canvas-button-response","479","924879","0.0-479.0","2690","flower","","","","","","","","","","","","","","perceptual","","","2","57","","","","","214","flower","6","0","1",""
"","","","","","","","","","","","canvas-button-response","480","926146","0.0-480.0","1264","7","","","","","","","","","","","","","","confidence","","","2","57","","","","","","","","","","8"
"","","","","","","","","","","","preload","481","926147","0.0-481.0","","","","","true","","","","","","","","","","","preload","","","2","58","false","[]","[]","[]","","","","","",""
"","","","","","","","","","","","canvas-keyboard-response","482","926449","0.0-482.0","null","null","","","","","","","","","","","","","","fixation","","","2","58","","","","","","","","","",""
"","","","","","","","","","","","canvas-keyboard-response","483","926752","0.0-483.0","null","null","","","","","","","","","","","","","","stimulus","","","2","58","","","","","","","","","",""
"","","","","","","","","","","","canvas-button-response","484","928563","0.0-484.0","1808","cat","","","","","","","","","","","","","","perceptual","","","2","58","","","","","10","house","6","0","0",""
"","","","","","","","","","","","canvas-button-response","485","929544","0.0-485.0","980","1","","","","","","","","","","","","","","confidence","","","2","58","","","","","","","","","","8"
"","","","","","","","","","","","preload","486","929545","0.0-486.0","","","","","true","","","","","","","","","","","preload","","","2","59","false","[]","[]","[]","","","","","",""
"","","","","","","","","","","","canvas-keyboard-response","487","929847","0.0-487.0","null","null","","","","","","","","","","","","","","fixation","","","2","59","","","","","","","","","",""
"","","","","","","","","","","","canvas-keyboard-response","488","930150","0.0-488.0","null","null","","","","","","","","","","","","","","stimulus","","","2","59","","","","","","","","","",""
"","","","","","","","","","","","canvas-button-response","489","937445","0.0-489.0","7293","bed","","","","","","","","","","","","","","perceptual","","","2","59","","","","","133","bed","6","0","1",""
"","","","","","","","","","","","canvas-button-response","490","939512","0.0-490.0","2065","3","","","","","","","","","","","","","","confidence","","","2","59","","","","","","","","","","9"
"","","","","","","","","","","","preload","491","939513","0.0-491.0","","","","","true","","","","","","","","","","","preload","","","2","60","false","[]","[]","[]","","","","","",""
