subject_ID,age,sex,trial_no,image_index,stim,blur,reps,resp,acc,conf,p_rt,c_rt
1,20,Female,1,92,phone,6,0,knife,0,5,2616.0,604.0
1,20,Female,2,77,car,10,0,knife,0,4,3449.0,1391.0
1,20,Female,3,382,knife,10,0,train,0,2,3230.0,980.0
1,20,Female,4,74,car,10,0,car,1,9,1126.0,1111.0
1,20,Female,5,196,bridge,10,0,bridge,1,2,1285.0,834.0
1,20,Female,6,397,knife,10,0,bed,0,2,1258.0,573.0
1,20,Female,7,32,house,10,0,bridge,0,6,1119.0,932.0
1,20,Female,8,224,flower,10,0,flower,1,7,1194.0,751.0
1,20,Female,9,181,bridge,10,0,house,0,4,2282.0,605.0
1,20,Female,10,20,house,10,0,house,1,4,1616.0,645.0
1,20,Female,11,8,house,6,0,house,1,4,815.0,498.0
1,20,Female,12,14,house,6,0,house,1,4,808.0,498.0
1,20,Female,13,377,knife,6,0,phone,0,5,1298.0,834.0
1,20,Female,14,359,elephant,10,0,bridge,0,2,3214.0,670.0
1,20,Female,15,385,knife,10,0,knife,1,8,914.0,842.0
1,20,Female,16,184,bridge,10,0,bridge,1,8,1169.0,671.0
1,20,Female,17,19,house,6,0,house,1,7,1031.0,628.0
1,20,Female,18,55,car,6,0,car,1,7,1086.0,595.0
1,20,Female,19,353,elephant,10,0,elephant,1,8,1048.0,693.0
1,20,Female,20,115,phone,10,0,flower,0,4,1799.0,661.0
1,20,Female,21,264,train,10,0,train,1,5,1588.0,728.0
1,20,Female,22,127,bed,6,0,bed,1,5,1862.0,596.0
1,20,Female,23,192,bridge,10,0,cat,0,8,826.0,626.0
1,20,Female,24,64,car,10,0,car,1,7,2299.0,676.0
1,20,Female,25,244,train,6,0,train,1,7,1152.0,588.0
1,20,Female,26,159,bed,10,0,flower,0,7,1380.0,670.0
1,20,Female,27,42,car,6,0,car,1,8,988.0,612.0
1,20,Female,28,275,train,10,0,flower,0,3,1406.0,842.0
1,20,Female,29,369,knife,6,0,knife,1,4,1609.0,621.0
1,20,Female,30,313,cat,10,0,cat,1,2,1936.0,940.0
1,20,Female,31,140,bed,10,0,house,0,1,4144.0,688.0
1,20,Female,32,303,cat,10,0,cat,1,1,2749.0,834.0
1,20,Female,33,78,car,10,0,car,1,6,774.0,1087.0
1,20,Female,34,362,knife,6,0,train,0,1,4646.0,882.0
1,20,Female,35,10,house,6,0,flower,0,1,1953.0,817.0
1,20,Female,36,35,house,10,0,house,1,7,1101.0,710.0
1,20,Female,37,56,car,6,0,car,1,7,735.0,638.0
1,20,Female,38,246,train,6,0,train,1,7,1323.0,890.0
1,20,Female,39,212,flower,6,0,bridge,0,2,6635.0,791.0
1,20,Female,40,108,phone,10,0,cat,0,6,1208.0,670.0
1,20,Female,41,365,knife,6,0,knife,1,2,2583.0,1398.0
1,20,Female,42,117,phone,10,0,cat,0,2,1201.0,1873.0
1,20,Female,43,329,elephant,6,0,flower,0,2,3637.0,793.0
1,20,Female,44,34,house,10,0,cat,0,3,1093.0,719.0
1,20,Female,45,1,house,6,0,house,1,6,874.0,1218.0
1,20,Female,46,237,flower,10,0,flower,1,8,1291.0,874.0
1,20,Female,47,88,phone,6,0,phone,1,9,1054.0,997.0
1,20,Female,48,118,phone,10,0,phone,1,9,1380.0,3484.0
1,20,Female,49,253,train,6,0,train,1,8,1400.0,817.0
1,20,Female,50,143,bed,10,0,knife,0,4,1546.0,734.0
1,20,Female,51,386,knife,10,0,house,0,4,1743.0,891.0
1,20,Female,52,53,car,6,0,car,1,6,1411.0,866.0
1,20,Female,53,286,cat,6,0,cat,1,2,1666.0,874.0
1,20,Female,54,191,bridge,10,0,train,0,7,1364.0,1602.0
1,20,Female,55,328,elephant,6,0,cat,0,7,954.0,744.0
1,20,Female,56,299,cat,6,0,cat,1,7,856.0,417.0
1,20,Female,57,318,cat,10,0,bed,0,1,2068.0,637.0
1,20,Female,58,155,bed,10,0,elephant,0,6,1611.0,931.0
1,20,Female,59,309,cat,10,0,flower,0,4,1413.0,947.0
1,20,Female,60,281,cat,6,0,cat,1,7,823.0,531.0
1,20,Female,61,251,train,6,0,train,1,7,955.0,727.0
1,20,Female,62,228,flower,10,0,flower,1,7,1055.0,719.0
1,20,Female,63,165,bridge,6,0,bridge,1,9,1161.0,990.0
1,20,Female,64,157,bed,10,0,knife,0,1,1471.0,734.0
1,20,Female,65,122,bed,6,0,bed,1,7,1053.0,735.0
1,20,Female,66,123,bed,6,0,bed,1,8,670.0,710.0
1,20,Female,67,202,flower,6,0,flower,1,7,942.0,589.0
1,20,Female,68,356,elephant,10,0,elephant,1,7,1627.0,711.0
1,20,Female,69,44,car,6,0,car,1,8,1028.0,686.0
1,20,Female,70,337,elephant,6,0,elephant,1,8,958.0,662.0
1,20,Female,71,219,flower,6,0,flower,1,8,1062.0,753.0
1,20,Female,72,351,elephant,10,0,elephant,1,8,881.0,417.0
1,20,Female,73,30,house,10,0,house,1,8,991.0,793.0
1,20,Female,74,84,phone,6,0,phone,1,2,1309.0,2167.0
1,20,Female,75,388,knife,10,0,car,0,4,2010.0,605.0
1,20,Female,76,354,elephant,10,0,cat,0,8,914.0,744.0
1,20,Female,77,93,phone,6,0,phone,1,8,1349.0,743.0
1,20,Female,78,383,knife,10,0,house,0,1,2391.0,720.0
1,20,Female,79,193,bridge,10,0,house,0,1,933.0,2355.0
1,20,Female,80,172,bridge,6,0,house,0,6,1045.0,580.0
1,20,Female,81,63,car,10,0,car,1,7,768.0,662.0
1,20,Female,82,387,knife,10,0,knife,1,6,808.0,523.0
1,20,Female,83,66,car,10,0,car,1,6,579.0,1276.0
1,20,Female,84,220,flower,10,0,flower,1,8,972.0,842.0
1,20,Female,85,114,phone,10,0,bridge,0,6,1047.0,832.0
1,20,Female,86,226,flower,10,0,flower,1,7,956.0,842.0
1,20,Female,87,186,bridge,10,0,bridge,1,6,2141.0,637.0
1,20,Female,88,229,flower,10,0,flower,1,7,988.0,825.0
1,20,Female,89,327,elephant,6,0,house,0,1,1448.0,1226.0
1,20,Female,90,379,knife,6,0,knife,1,7,687.0,736.0
1,20,Female,91,136,bed,6,0,bed,1,7,1348.0,580.0
1,20,Female,92,133,bed,6,0,bed,1,7,1012.0,736.0
1,20,Female,93,360,knife,6,0,knife,1,8,686.0,620.0
1,20,Female,94,128,bed,6,0,bed,1,1,1577.0,621.0
1,20,Female,95,392,knife,10,0,phone,0,1,1848.0,826.0
1,20,Female,96,227,flower,10,0,house,0,1,760.0,1530.0
1,20,Female,97,375,knife,6,0,phone,0,4,3320.0,1129.0
1,20,Female,98,301,cat,10,0,elephant,0,5,1063.0,580.0
1,20,Female,99,22,house,10,0,train,0,7,1561.0,776.0
1,20,Female,100,394,knife,10,0,knife,1,8,685.0,704.0
1,20,Female,101,139,bed,6,0,knife,0,1,3119.0,801.0
1,20,Female,102,27,house,10,0,train,0,1,1594.0,800.0
1,20,Female,103,113,phone,10,0,elephant,0,5,1015.0,776.0
1,20,Female,104,278,train,10,0,flower,0,5,2143.0,695.0
1,20,Female,105,291,cat,6,0,flower,0,1,2020.0,669.0
1,20,Female,106,346,elephant,10,0,cat,0,5,1006.0,712.0
1,20,Female,107,148,bed,10,0,knife,0,6,1928.0,587.0
1,20,Female,108,199,bridge,10,0,house,0,5,1203.0,1046.0
1,20,Female,109,310,cat,10,0,bed,0,5,1429.0,458.0
1,20,Female,110,62,car,10,0,car,1,8,659.0,1022.0
1,20,Female,111,166,bridge,6,0,bridge,1,8,858.0,604.0
1,20,Female,112,363,knife,6,0,house,0,1,2104.0,654.0
1,20,Female,113,223,flower,10,0,flower,1,9,973.0,941.0
1,20,Female,114,180,bridge,10,0,bridge,1,2,2289.0,1046.0
1,20,Female,115,12,house,6,0,house,1,9,2175.0,1357.0
1,20,Female,116,242,train,6,0,train,1,7,1315.0,1079.0
1,20,Female,117,283,cat,6,0,cat,1,7,668.0,563.0
1,20,Female,118,263,train,10,0,bed,0,1,1129.0,1227.0
1,20,Female,119,36,house,10,0,house,1,8,1152.0,881.0
1,20,Female,120,262,train,10,0,cat,0,8,1839.0,597.0
1,20,Female,121,200,flower,6,0,flower,1,9,1021.0,1094.0
1,20,Female,122,59,car,6,0,car,1,9,663.0,1104.0
1,20,Female,123,260,train,10,0,train,1,8,1325.0,873.0
1,20,Female,124,209,flower,6,0,flower,1,9,980.0,1005.0
1,20,Female,125,342,elephant,10,0,train,0,7,5867.0,826.0
1,20,Female,126,162,bridge,6,0,bridge,1,8,1063.0,940.0
1,20,Female,127,104,phone,10,0,bed,0,1,2842.0,1006.0
1,20,Female,128,173,bridge,6,0,train,0,9,2091.0,818.0
1,20,Female,129,190,bridge,10,0,flower,0,4,1072.0,1292.0
1,20,Female,130,61,car,10,0,car,1,8,694.0,710.0
1,20,Female,131,50,car,6,0,car,1,8,573.0,768.0
1,20,Female,132,267,train,10,0,train,1,8,1211.0,408.0
1,20,Female,133,198,bridge,10,0,bridge,1,8,891.0,801.0
1,20,Female,134,31,house,10,0,train,0,8,1406.0,628.0
1,20,Female,135,345,elephant,10,0,flower,0,3,1385.0,801.0
1,20,Female,136,254,train,6,0,train,1,8,1233.0,670.0
1,20,Female,137,343,elephant,10,0,bridge,0,1,15465.0,694.0
1,20,Female,138,311,cat,10,0,cat,1,1,1081.0,1587.0
1,20,Female,139,132,bed,6,0,bed,1,8,1224.0,769.0
1,20,Female,140,326,elephant,6,0,elephant,1,9,1112.0,654.0
1,20,Female,141,11,house,6,0,house,1,6,1227.0,1145.0
1,20,Female,142,106,phone,10,0,house,0,6,1675.0,662.0
1,20,Female,143,52,car,6,0,car,1,8,611.0,761.0
1,20,Female,144,238,flower,10,0,flower,1,8,979.0,669.0
1,20,Female,145,256,train,6,0,train,1,8,1303.0,507.0
1,20,Female,146,79,car,10,0,car,1,8,867.0,564.0
1,20,Female,147,28,house,10,0,house,1,7,1776.0,801.0
1,20,Female,148,188,bridge,10,0,knife,0,6,1520.0,745.0
1,20,Female,149,23,house,10,0,house,1,8,1405.0,998.0
1,20,Female,150,130,bed,6,0,bed,1,8,1202.0,711.0
1,20,Female,151,259,train,6,0,train,1,6,1226.0,908.0
1,20,Female,152,97,phone,6,0,phone,1,8,1494.0,940.0
1,20,Female,153,48,car,6,0,car,1,8,767.0,613.0
1,20,Female,154,373,knife,6,0,bed,0,2,1816.0,924.0
1,20,Female,155,290,cat,6,0,bed,0,4,1060.0,557.0
1,20,Female,156,325,elephant,6,0,bed,0,4,2010.0,653.0
1,20,Female,157,134,bed,6,0,bed,1,3,1045.0,559.0
1,20,Female,158,39,house,10,0,house,1,6,1173.0,817.0
1,20,Female,159,239,flower,10,0,flower,1,5,1004.0,760.0
1,20,Female,160,167,bridge,6,0,bridge,1,6,971.0,522.0
1,20,Female,161,370,knife,6,0,knife,1,8,915.0,564.0
1,20,Female,162,105,phone,10,0,house,0,3,1316.0,1153.0
1,20,Female,163,183,bridge,10,0,flower,0,3,1242.0,800.0
1,20,Female,164,284,cat,6,0,cat,1,4,1381.0,638.0
1,20,Female,165,149,bed,10,0,cat,0,2,880.0,1416.0
1,20,Female,166,169,bridge,6,0,bridge,1,8,686.0,843.0
1,20,Female,167,398,knife,10,0,knife,1,7,900.0,973.0
1,20,Female,168,295,cat,6,0,flower,0,8,1013.0,1013.0
1,20,Female,169,352,elephant,10,0,elephant,1,9,950.0,457.0
1,20,Female,170,317,cat,10,0,cat,1,9,826.0,604.0
1,20,Female,171,338,elephant,6,0,elephant,1,9,688.0,3740.0
1,20,Female,172,135,bed,6,0,bed,1,8,1224.0,842.0
1,20,Female,173,161,bridge,6,0,bridge,1,8,937.0,981.0
1,20,Female,174,324,elephant,6,0,elephant,1,9,1072.0,679.0
1,20,Female,175,41,car,6,0,car,1,8,931.0,645.0
1,20,Female,176,94,phone,6,0,phone,1,7,1028.0,1039.0
1,20,Female,177,320,elephant,6,0,elephant,1,8,972.0,449.0
1,20,Female,178,305,cat,10,0,cat,1,3,1389.0,998.0
1,20,Female,179,339,elephant,6,0,elephant,1,9,832.0,449.0
1,20,Female,180,316,cat,10,0,cat,1,3,898.0,1711.0
1,20,Female,181,341,elephant,10,0,elephant,1,8,808.0,955.0
1,20,Female,182,45,car,6,0,car,1,9,628.0,1815.0
1,20,Female,183,85,phone,6,0,cat,0,4,900.0,1301.0
1,20,Female,184,125,bed,6,0,cat,0,4,833.0,663.0
1,20,Female,185,308,cat,10,0,cat,1,4,765.0,835.0
1,20,Female,186,185,bridge,10,0,flower,0,2,2216.0,898.0
1,20,Female,187,156,bed,10,0,bed,1,6,1113.0,507.0
1,20,Female,188,218,flower,6,0,bed,0,6,1118.0,1513.0
1,20,Female,189,201,flower,6,0,flower,1,9,824.0,1235.0
1,20,Female,190,241,train,6,0,train,1,8,1282.0,515.0
1,20,Female,191,395,knife,10,0,phone,0,3,1201.0,753.0
1,20,Female,192,217,flower,6,0,flower,1,9,914.0,833.0
1,20,Female,193,393,knife,10,0,knife,1,9,1864.0,900.0
1,20,Female,194,371,knife,6,0,bridge,0,1,5721.0,1022.0
1,20,Female,195,205,flower,6,0,flower,1,9,850.0,1473.0
1,20,Female,196,245,train,6,0,flower,0,1,16812.0,1203.0
1,20,Female,197,321,elephant,6,0,cat,0,1,1186.0,940.0
1,20,Female,198,280,cat,6,0,elephant,0,8,1012.0,547.0
1,20,Female,199,355,elephant,10,0,elephant,1,8,621.0,442.0
1,20,Female,200,69,car,10,0,car,1,6,703.0,547.0
1,20,Female,201,164,bridge,6,0,car,0,1,8830.0,1349.0
1,20,Female,202,271,train,10,0,train,1,1,1641.0,810.0
1,20,Female,203,144,bed,10,0,bed,1,6,2340.0,743.0
1,20,Female,204,58,car,6,0,car,1,8,587.0,621.0
1,20,Female,205,277,train,10,0,house,0,1,1013.0,1211.0
1,20,Female,206,307,cat,10,0,cat,1,7,785.0,498.0
1,20,Female,207,179,bridge,6,0,bridge,1,7,1336.0,810.0
1,20,Female,208,13,house,6,0,cat,0,1,918.0,1112.0
1,20,Female,209,368,knife,6,0,knife,1,7,809.0,1105.0
1,20,Female,210,138,bed,6,0,bed,1,7,1063.0,613.0
1,20,Female,211,374,knife,6,0,knife,1,8,654.0,1130.0
1,20,Female,212,107,phone,10,0,cat,0,8,1291.0,670.0
1,20,Female,213,75,car,10,0,car,1,9,687.0,948.0
1,20,Female,214,68,car,10,0,flower,0,4,1029.0,547.0
1,20,Female,215,323,elephant,6,0,elephant,1,7,2922.0,587.0
1,20,Female,216,72,car,10,0,car,1,7,645.0,521.0
1,20,Female,217,357,elephant,10,0,elephant,1,8,728.0,474.0
1,20,Female,218,171,bridge,6,0,house,0,6,1325.0,652.0
1,20,Female,219,215,flower,6,0,flower,1,9,784.0,858.0
1,20,Female,220,176,bridge,6,0,car,0,4,1144.0,817.0
1,20,Female,221,350,elephant,10,0,elephant,1,9,712.0,941.0
1,20,Female,222,168,bridge,6,0,bridge,1,7,729.0,678.0
1,20,Female,223,111,phone,10,0,cat,0,4,867.0,769.0
1,20,Female,224,364,knife,6,0,phone,0,5,1324.0,588.0
1,20,Female,225,213,flower,6,0,flower,1,9,775.0,900.0
1,20,Female,226,276,train,10,0,train,1,8,1105.0,637.0
1,20,Female,227,203,flower,6,0,flower,1,9,809.0,1848.0
1,20,Female,228,18,house,6,0,house,1,6,1186.0,776.0
1,20,Female,229,207,flower,6,0,flower,1,9,735.0,3713.0
1,20,Female,230,177,bridge,6,0,cat,0,2,1311.0,940.0
1,20,Female,231,0,house,6,0,elephant,0,7,1004.0,498.0
1,20,Female,232,376,knife,6,0,knife,1,8,686.0,637.0
1,20,Female,233,336,elephant,6,0,elephant,1,8,718.0,442.0
1,20,Female,234,274,train,10,0,train,1,7,1159.0,622.0
1,20,Female,235,73,car,10,0,flower,0,7,1176.0,793.0
1,20,Female,236,101,phone,10,0,knife,0,8,784.0,717.0
1,20,Female,237,233,flower,10,0,flower,1,2,1253.0,834.0
1,20,Female,238,300,cat,10,0,train,0,3,1495.0,760.0
1,20,Female,239,216,flower,6,0,flower,1,8,769.0,1072.0
1,20,Female,240,314,cat,10,0,phone,0,3,2093.0,956.0
1,20,Female,241,349,elephant,10,0,elephant,1,8,852.0,474.0
1,20,Female,242,182,bridge,10,0,car,0,7,744.0,703.0
1,20,Female,243,33,house,10,0,house,1,3,1475.0,883.0
1,20,Female,244,221,flower,10,0,flower,1,7,793.0,859.0
1,20,Female,245,312,cat,10,0,cat,1,3,924.0,1259.0
1,20,Female,246,141,bed,10,0,cat,0,4,777.0,703.0
1,20,Female,247,174,bridge,6,0,bridge,1,8,973.0,744.0
1,20,Female,248,103,phone,10,0,flower,0,3,761.0,785.0
1,20,Female,249,16,house,6,0,elephant,0,7,922.0,645.0
1,20,Female,250,3,house,6,0,house,1,6,1120.0,793.0
1,20,Female,251,70,car,10,0,car,1,9,2091.0,737.0
1,20,Female,252,40,car,6,0,train,0,8,1145.0,726.0
1,20,Female,253,293,cat,6,0,cat,1,6,1049.0,646.0
1,20,Female,254,384,knife,10,0,elephant,0,7,1732.0,1047.0
1,20,Female,255,269,train,10,0,car,0,8,775.0,679.0
1,20,Female,256,15,house,6,0,house,1,8,975.0,832.0
1,20,Female,257,204,flower,6,0,house,0,6,1033.0,694.0
1,20,Female,258,358,elephant,10,0,elephant,1,7,2304.0,630.0
1,20,Female,259,333,elephant,6,0,elephant,1,8,693.0,539.0
1,20,Female,260,344,elephant,10,0,elephant,1,9,523.0,449.0
1,20,Female,261,129,bed,6,0,bed,1,5,1332.0,761.0
1,20,Female,262,258,train,6,0,bed,0,6,1095.0,499.0
1,20,Female,263,110,phone,10,0,phone,1,3,1357.0,646.0
1,20,Female,264,240,train,6,0,car,0,4,841.0,508.0
1,20,Female,265,366,knife,6,0,knife,1,6,770.0,506.0
1,20,Female,266,4,house,6,0,house,1,7,997.0,711.0
1,20,Female,267,7,house,6,0,house,1,9,966.0,850.0
1,20,Female,268,194,bridge,10,0,cat,0,2,981.0,686.0
1,20,Female,269,335,elephant,6,0,elephant,1,9,833.0,843.0
1,20,Female,270,234,flower,10,0,flower,1,9,747.0,769.0
1,20,Female,271,51,car,6,0,car,1,7,1104.0,744.0
1,20,Female,272,142,bed,10,0,bed,1,6,1839.0,737.0
1,20,Female,273,150,bed,10,0,house,0,5,914.0,565.0
1,20,Female,274,315,cat,10,0,house,0,2,972.0,514.0
1,20,Female,275,126,bed,6,0,bed,1,3,1273.0,604.0
1,20,Female,276,99,phone,6,0,cat,0,3,873.0,1406.0
1,20,Female,277,102,phone,10,0,elephant,0,4,1055.0,1055.0
1,20,Female,278,90,phone,6,0,bed,0,2,1127.0,654.0
1,20,Female,279,89,phone,6,0,car,0,2,957.0,809.0
1,20,Female,280,249,train,6,0,car,0,4,767.0,621.0
1,20,Female,281,297,cat,6,0,cat,1,7,744.0,810.0
1,20,Female,282,331,elephant,6,0,elephant,1,8,1053.0,416.0
1,20,Female,283,87,phone,6,0,phone,1,3,1221.0,636.0
1,20,Female,284,178,bridge,6,0,bridge,1,5,694.0,629.0
1,20,Female,285,288,cat,6,0,bridge,0,5,725.0,509.0
1,20,Female,286,54,car,6,0,flower,0,6,1150.0,662.0
1,20,Female,287,332,elephant,6,0,elephant,1,8,1307.0,522.0
1,20,Female,288,266,train,10,0,train,1,3,1218.0,801.0
1,20,Female,289,214,flower,6,0,house,0,6,1187.0,1125.0
1,20,Female,290,96,phone,6,0,phone,1,7,2332.0,1366.0
1,20,Female,291,380,knife,10,0,knife,1,4,855.0,1047.0
1,20,Female,292,153,bed,10,0,car,0,4,1520.0,702.0
1,20,Female,293,381,knife,10,0,knife,1,6,809.0,539.0
1,20,Female,294,37,house,10,0,flower,0,6,963.0,859.0
1,20,Female,295,46,car,6,0,car,1,8,578.0,622.0
1,20,Female,296,285,cat,6,0,cat,1,9,646.0,638.0
1,20,Female,297,389,knife,10,0,knife,1,8,677.0,695.0
1,20,Female,298,273,train,10,0,train,1,8,1078.0,417.0
1,20,Female,299,248,train,6,0,train,1,8,685.0,448.0
1,20,Female,300,57,car,6,0,car,1,8,744.0,450.0
1,20,Female,301,257,train,6,0,train,1,6,1179.0,965.0
1,20,Female,302,170,bridge,6,0,house,0,7,1219.0,564.0
1,20,Female,303,225,flower,10,0,flower,1,5,1136.0,547.0
1,20,Female,304,147,bed,10,0,bed,1,4,1224.0,506.0
1,20,Female,305,250,train,6,0,train,1,7,1039.0,490.0
1,20,Female,306,252,train,6,0,train,1,8,637.0,393.0
1,20,Female,307,60,car,10,0,car,1,8,769.0,448.0
1,20,Female,308,399,knife,10,0,cat,0,7,768.0,458.0
1,20,Female,309,25,house,10,0,train,0,8,906.0,408.0
1,20,Female,310,29,house,10,0,house,1,5,1323.0,630.0
1,20,Female,311,91,phone,6,0,phone,1,6,1438.0,351.0
1,20,Female,312,81,phone,6,0,bed,0,4,1127.0,622.0
1,20,Female,313,154,bed,10,0,bed,1,5,1159.0,442.0
1,20,Female,314,378,knife,6,0,cat,0,6,1006.0,499.0
1,20,Female,315,230,flower,10,0,flower,1,8,815.0,752.0
1,20,Female,316,6,house,6,0,house,1,8,1135.0,867.0
1,20,Female,317,270,train,10,0,elephant,0,7,788.0,605.0
1,20,Female,318,319,cat,10,0,cat,1,5,702.0,547.0
1,20,Female,319,372,knife,6,0,knife,1,4,1324.0,514.0
1,20,Female,320,38,house,10,0,flower,0,4,841.0,1325.0
1,20,Female,321,86,phone,6,0,cat,0,4,735.0,859.0
1,20,Female,322,158,bed,10,0,cat,0,4,736.0,441.0
1,20,Female,323,302,cat,10,0,flower,0,4,758.0,801.0
1,20,Female,324,367,knife,6,0,knife,1,4,678.0,629.0
1,20,Female,325,247,train,6,0,train,1,6,1118.0,572.0
1,20,Female,326,236,flower,10,0,flower,1,8,832.0,776.0
1,20,Female,327,282,cat,6,0,cat,1,8,688.0,439.0
1,20,Female,328,390,knife,10,0,knife,1,6,613.0,482.0
1,20,Female,329,340,elephant,10,0,flower,0,4,1552.0,571.0
1,20,Female,330,175,bridge,6,0,bridge,1,6,1327.0,580.0
1,20,Female,331,197,bridge,10,0,elephant,0,8,948.0,383.0
1,20,Female,332,163,bridge,6,0,bridge,1,7,819.0,735.0
1,20,Female,333,292,cat,6,0,knife,0,3,1212.0,776.0
1,20,Female,334,298,cat,6,0,cat,1,4,718.0,1079.0
1,20,Female,335,255,train,6,0,train,1,9,840.0,1300.0
1,20,Female,336,235,flower,10,0,bed,0,2,3364.0,972.0
1,20,Female,337,396,knife,10,0,knife,1,7,637.0,532.0
1,20,Female,338,222,flower,10,0,flower,1,7,971.0,801.0
1,20,Female,339,146,bed,10,0,knife,0,3,1187.0,785.0
1,20,Female,340,82,phone,6,0,phone,1,7,915.0,465.0
1,20,Female,341,210,flower,6,0,flower,1,8,713.0,867.0
1,20,Female,342,348,elephant,10,0,elephant,1,8,884.0,401.0
1,20,Female,343,116,phone,10,0,cat,0,1,834.0,1308.0
1,20,Female,344,296,cat,6,0,cat,1,7,1129.0,441.0
1,20,Female,345,24,house,10,0,elephant,0,8,882.0,448.0
1,20,Female,346,160,bridge,6,0,bridge,1,3,1014.0,964.0
1,20,Female,347,265,train,10,0,train,1,5,1054.0,572.0
1,20,Female,348,67,car,10,0,car,1,5,995.0,351.0
1,20,Female,349,304,cat,10,0,cat,1,7,618.0,777.0
1,20,Female,350,151,bed,10,0,bed,1,3,1307.0,899.0
1,20,Female,351,109,phone,10,0,cat,0,2,1180.0,1874.0
1,20,Female,352,189,bridge,10,0,elephant,0,2,1028.0,1039.0
1,20,Female,353,361,knife,6,0,knife,1,7,719.0,572.0
1,20,Female,354,322,elephant,6,0,bridge,0,4,851.0,850.0
1,20,Female,355,9,house,6,0,cat,0,5,982.0,506.0
1,20,Female,356,26,house,10,0,bridge,0,3,1562.0,441.0
1,20,Female,357,112,phone,10,0,phone,1,5,1421.0,548.0
1,20,Female,358,131,bed,6,0,bed,1,7,971.0,720.0
1,20,Female,359,119,phone,10,0,elephant,0,7,664.0,520.0
1,20,Female,360,232,flower,10,0,flower,1,9,883.0,801.0
1,20,Female,361,80,phone,6,0,phone,1,5,964.0,539.0
1,20,Female,362,261,train,10,0,train,1,7,1179.0,515.0
1,20,Female,363,17,house,6,0,house,1,9,824.0,868.0
1,20,Female,364,2,house,6,0,house,1,9,744.0,753.0
1,20,Female,365,272,train,10,0,car,0,8,802.0,1029.0
1,20,Female,366,243,train,6,0,train,1,8,941.0,580.0
1,20,Female,367,330,elephant,6,0,elephant,1,8,619.0,417.0
1,20,Female,368,187,bridge,10,0,house,0,5,1161.0,621.0
1,20,Female,369,137,bed,6,0,bed,1,2,1465.0,679.0
1,20,Female,370,121,bed,6,0,bed,1,4,881.0,548.0
1,20,Female,371,347,elephant,10,0,elephant,1,7,1055.0,441.0
1,20,Female,372,152,bed,10,0,bed,1,2,1587.0,622.0
1,20,Female,373,145,bed,10,0,bed,1,4,882.0,548.0
1,20,Female,374,21,house,10,0,elephant,0,8,981.0,458.0
1,20,Female,375,71,car,10,0,car,1,2,1277.0,982.0
1,20,Female,376,100,phone,10,0,cat,0,1,1029.0,802.0
1,20,Female,377,231,flower,10,0,elephant,0,4,827.0,842.0
1,20,Female,378,83,phone,6,0,phone,1,3,1177.0,622.0
1,20,Female,379,120,bed,6,0,bed,1,9,981.0,1146.0
1,20,Female,380,211,flower,6,0,flower,1,3,1056.0,679.0
1,20,Female,381,65,car,10,0,flower,0,9,727.0,3012.0
1,20,Female,382,208,flower,6,0,flower,1,9,1014.0,710.0
1,20,Female,383,287,cat,6,0,elephant,0,8,820.0,449.0
1,20,Female,384,289,cat,6,0,cat,1,8,908.0,605.0
1,20,Female,385,76,car,10,0,car,1,7,702.0,645.0
1,20,Female,386,43,car,6,0,phone,0,3,3723.0,834.0
1,20,Female,387,49,car,6,0,car,1,7,572.0,802.0
1,20,Female,388,98,phone,6,0,car,0,7,1014.0,483.0
1,20,Female,389,195,bridge,10,0,car,0,7,563.0,457.0
1,20,Female,390,306,cat,10,0,cat,1,7,833.0,449.0
1,20,Female,391,279,train,10,0,knife,0,3,1544.0,638.0
1,20,Female,392,47,car,6,0,car,1,5,766.0,564.0
1,20,Female,393,95,phone,6,0,phone,1,4,1030.0,881.0
1,20,Female,394,391,knife,10,0,knife,1,7,662.0,580.0
1,20,Female,395,268,train,10,0,train,1,8,1258.0,597.0
1,20,Female,396,124,bed,6,0,bed,1,9,997.0,834.0
1,20,Female,397,294,cat,6,0,cat,1,8,753.0,818.0
1,20,Female,398,5,house,6,0,house,1,7,1192.0,858.0
1,20,Female,399,206,flower,6,0,flower,1,9,693.0,1064.0
1,20,Female,400,334,elephant,6,0,elephant,1,6,875.0,589.0
1,20,Female,401,228,flower,10,1,flower,1,3,998.0,1039.0
1,20,Female,402,190,bridge,10,1,flower,0,5,1325.0,636.0
1,20,Female,403,276,train,10,1,train,1,7,874.0,678.0
1,20,Female,404,352,elephant,10,1,elephant,1,8,578.0,393.0
1,20,Female,405,392,knife,10,1,knife,1,3,1258.0,645.0
1,20,Female,406,110,phone,10,1,phone,1,4,1259.0,712.0
1,20,Female,407,330,elephant,6,1,elephant,1,9,1217.0,539.0
1,20,Female,408,236,flower,10,1,flower,1,9,1038.0,1259.0
1,20,Female,409,134,bed,6,1,bed,1,9,1151.0,941.0
1,20,Female,410,256,train,6,1,train,1,8,907.0,621.0
1,20,Female,411,89,phone,6,1,phone,1,3,865.0,663.0
1,20,Female,412,370,knife,6,1,knife,1,9,546.0,1889.0
1,20,Female,413,2,house,6,1,house,1,9,712.0,1251.0
1,20,Female,414,344,elephant,10,1,elephant,1,9,761.0,492.0
1,20,Female,415,69,car,10,1,car,1,7,849.0,588.0
1,20,Female,416,297,cat,6,1,cat,1,8,647.0,564.0
1,20,Female,417,173,bridge,6,1,bridge,1,4,785.0,571.0
1,20,Female,418,235,flower,10,1,flower,1,5,1005.0,702.0
1,20,Female,419,46,car,6,1,car,1,8,606.0,694.0
1,20,Female,420,40,car,6,1,car,1,8,783.0,416.0
1,20,Female,421,367,knife,6,1,knife,1,7,769.0,1308.0
1,20,Female,422,271,train,10,1,bridge,0,2,2233.0,547.0
1,20,Female,423,366,knife,6,1,knife,1,8,1464.0,931.0
1,20,Female,424,48,car,6,1,car,1,8,588.0,556.0
1,20,Female,425,316,cat,10,1,house,0,2,1232.0,539.0
1,20,Female,426,342,elephant,10,1,bridge,0,1,1006.0,1103.0
1,20,Female,427,258,train,6,1,bridge,0,1,1175.0,572.0
1,20,Female,428,198,bridge,10,1,bridge,1,5,791.0,1685.0
1,20,Female,429,296,cat,6,1,cat,1,8,628.0,620.0
1,20,Female,430,56,car,6,1,car,1,9,612.0,564.0
1,20,Female,431,67,car,10,1,car,1,9,497.0,825.0
1,20,Female,432,172,bridge,6,1,bed,0,1,1071.0,1594.0
1,20,Female,433,203,flower,6,1,flower,1,9,924.0,957.0
1,20,Female,434,1,house,6,1,house,1,5,1461.0,687.0
1,20,Female,435,132,bed,6,1,bed,1,7,956.0,637.0
1,20,Female,436,307,cat,10,1,cat,1,6,1324.0,580.0
1,20,Female,437,78,car,10,1,car,1,7,571.0,449.0
1,20,Female,438,169,bridge,6,1,bridge,1,8,809.0,719.0
1,20,Female,439,249,train,6,1,car,0,6,638.0,571.0
1,20,Female,440,216,flower,6,1,flower,1,8,867.0,759.0
1,20,Female,441,77,car,10,1,car,1,7,679.0,555.0
1,20,Female,442,146,bed,10,1,cat,0,2,759.0,1169.0
1,20,Female,443,303,cat,10,1,cat,1,6,791.0,465.0
1,20,Female,444,150,bed,10,1,cat,0,1,1234.0,1014.0
1,20,Female,445,206,flower,6,1,flower,1,8,735.0,818.0
1,20,Female,446,282,cat,6,1,cat,1,1,1102.0,989.0
1,20,Female,447,181,bridge,10,1,house,0,4,1316.0,826.0
1,20,Female,448,379,knife,6,1,knife,1,6,571.0,612.0
1,20,Female,449,324,elephant,6,1,elephant,1,9,914.0,531.0
1,20,Female,450,284,cat,6,1,cat,1,3,850.0,672.0
1,20,Female,451,99,phone,6,1,phone,1,2,3994.0,729.0
1,20,Female,452,121,bed,6,1,bed,1,7,851.0,506.0
1,20,Female,453,25,house,10,1,house,1,7,1339.0,662.0
1,20,Female,454,361,knife,6,1,knife,1,9,767.0,695.0
1,20,Female,455,196,bridge,10,1,cat,0,5,800.0,1006.0
1,20,Female,456,15,house,6,1,house,1,8,833.0,629.0
1,20,Female,457,182,bridge,10,1,bridge,1,6,1274.0,858.0
1,20,Female,458,81,phone,6,1,bed,0,7,929.0,720.0
1,20,Female,459,143,bed,10,1,bed,1,8,1248.0,629.0
1,20,Female,460,222,flower,10,1,flower,1,9,791.0,752.0
1,20,Female,461,288,cat,6,1,bridge,0,7,809.0,547.0
1,20,Female,462,318,cat,10,1,bridge,0,1,1421.0,653.0
1,20,Female,463,55,car,6,1,car,1,8,670.0,1635.0
1,20,Female,464,145,bed,10,1,bed,1,6,1185.0,498.0
1,20,Female,465,388,knife,10,1,cat,0,2,1642.0,858.0
1,20,Female,466,54,car,6,1,cat,0,4,1315.0,588.0
1,20,Female,467,57,car,6,1,car,1,8,693.0,972.0
1,20,Female,468,267,train,10,1,train,1,8,1037.0,482.0
1,20,Female,469,233,flower,10,1,flower,1,7,995.0,678.0
1,20,Female,470,137,bed,6,1,bed,1,6,841.0,767.0
1,20,Female,471,113,phone,10,1,elephant,0,7,1397.0,539.0
1,20,Female,472,245,train,6,1,train,1,7,833.0,565.0
1,20,Female,473,32,house,10,1,bridge,0,5,905.0,596.0
1,20,Female,474,335,elephant,6,1,elephant,1,9,841.0,523.0
1,20,Female,475,112,phone,10,1,flower,0,1,5833.0,809.0
1,20,Female,476,219,flower,6,1,flower,1,9,611.0,817.0
1,20,Female,477,299,cat,6,1,cat,1,9,621.0,678.0
1,20,Female,478,274,train,10,1,train,1,9,686.0,711.0
1,20,Female,479,386,knife,10,1,phone,0,2,1159.0,638.0
1,20,Female,480,223,flower,10,1,flower,1,8,606.0,727.0
1,20,Female,481,389,knife,10,1,knife,1,8,603.0,694.0
1,20,Female,482,382,knife,10,1,knife,1,6,857.0,482.0
1,20,Female,483,263,train,10,1,train,1,3,1512.0,644.0
1,20,Female,484,376,knife,6,1,knife,1,6,693.0,508.0
1,20,Female,485,227,flower,10,1,flower,1,9,790.0,900.0
1,20,Female,486,321,elephant,6,1,cat,0,1,1054.0,907.0
1,20,Female,487,378,knife,6,1,cat,0,6,1192.0,440.0
1,20,Female,488,21,house,10,1,cat,0,7,800.0,597.0
1,20,Female,489,5,house,6,1,house,1,7,914.0,638.0
1,20,Female,490,37,house,10,1,train,0,4,1012.0,1104.0
1,20,Female,491,332,elephant,6,1,bed,0,2,1642.0,579.0
1,20,Female,492,373,knife,6,1,bed,0,1,769.0,776.0
1,20,Female,493,135,bed,6,1,bed,1,1,832.0,710.0
1,20,Female,494,101,phone,10,1,knife,0,6,873.0,581.0
1,20,Female,495,354,elephant,10,1,cat,0,5,966.0,637.0
1,20,Female,496,65,car,10,1,car,1,7,1028.0,441.0
1,20,Female,497,210,flower,6,1,flower,1,2,864.0,1096.0
1,20,Female,498,201,flower,6,1,flower,1,9,620.0,835.0
1,20,Female,499,180,bridge,10,1,bridge,1,8,758.0,1054.0
1,20,Female,500,253,train,6,1,train,1,8,1227.0,376.0
1,20,Female,501,96,phone,6,1,train,0,1,3578.0,1225.0
1,20,Female,502,394,knife,10,1,knife,1,9,591.0,1152.0
1,20,Female,503,326,elephant,6,1,elephant,1,9,718.0,457.0
1,20,Female,504,153,bed,10,1,bed,1,9,907.0,743.0
1,20,Female,505,363,knife,6,1,bridge,0,5,1960.0,1628.0
1,20,Female,506,380,knife,10,1,knife,1,8,570.0,605.0
1,20,Female,507,368,knife,6,1,knife,1,8,669.0,492.0
1,20,Female,508,399,knife,10,1,cat,0,9,724.0,538.0
1,20,Female,509,34,house,10,1,elephant,0,8,939.0,604.0
1,20,Female,510,312,cat,10,1,cat,1,8,743.0,531.0
1,20,Female,511,158,bed,10,1,bed,1,4,1184.0,908.0
1,20,Female,512,156,bed,10,1,bed,1,9,784.0,996.0
1,20,Female,513,163,bridge,6,1,bridge,1,9,784.0,620.0
1,20,Female,514,214,flower,6,1,flower,1,4,1032.0,834.0
1,20,Female,515,202,flower,6,1,flower,1,9,840.0,728.0
1,20,Female,516,289,cat,6,1,car,0,7,1585.0,556.0
1,20,Female,517,43,car,6,1,car,1,7,531.0,563.0
1,20,Female,518,23,house,10,1,elephant,0,9,751.0,596.0
1,20,Female,519,161,bridge,6,1,bridge,1,8,767.0,522.0
1,20,Female,520,154,bed,10,1,bed,1,8,980.0,744.0
1,20,Female,521,209,flower,6,1,flower,1,9,735.0,963.0
1,20,Female,522,75,car,10,1,car,1,8,589.0,571.0
1,20,Female,523,317,cat,10,1,cat,1,8,1086.0,408.0
1,20,Female,524,327,elephant,6,1,cat,0,8,767.0,359.0
1,20,Female,525,97,phone,6,1,phone,1,9,1086.0,833.0
1,20,Female,526,155,bed,10,1,bed,1,9,1004.0,817.0
1,20,Female,527,292,cat,6,1,bed,0,5,923.0,702.0
1,20,Female,528,178,bridge,6,1,bridge,1,6,645.0,482.0
1,20,Female,529,174,bridge,6,1,bridge,1,7,710.0,670.0
1,20,Female,530,42,car,6,1,car,1,8,562.0,694.0
1,20,Female,531,7,house,6,1,house,1,9,931.0,1031.0
1,20,Female,532,336,elephant,6,1,cat,0,4,651.0,1539.0
1,20,Female,533,39,house,10,1,elephant,0,8,964.0,432.0
1,20,Female,534,273,train,10,1,train,1,8,1054.0,383.0
1,20,Female,535,239,flower,10,1,flower,1,8,938.0,1153.0
1,20,Female,536,350,elephant,10,1,elephant,1,9,660.0,434.0
1,20,Female,537,90,phone,6,1,bed,0,4,998.0,611.0
1,20,Female,538,355,elephant,10,1,elephant,1,9,906.0,515.0
1,20,Female,539,398,knife,10,1,knife,1,6,1226.0,522.0
1,20,Female,540,162,bridge,6,1,bridge,1,7,694.0,899.0
1,20,Female,541,356,elephant,10,1,elephant,1,9,660.0,465.0
1,20,Female,542,70,car,10,1,car,1,9,580.0,490.0
1,20,Female,543,80,phone,6,1,phone,1,3,1208.0,720.0
1,20,Female,544,220,flower,10,1,flower,1,9,743.0,1152.0
1,20,Female,545,193,bridge,10,1,elephant,0,7,784.0,1063.0
1,20,Female,546,171,bridge,6,1,house,0,7,899.0,1136.0
1,20,Female,547,152,bed,10,1,bed,1,4,1209.0,548.0
1,20,Female,548,98,phone,6,1,car,0,6,882.0,997.0
1,20,Female,549,140,bed,10,1,house,0,1,1480.0,767.0
1,20,Female,550,244,train,6,1,bridge,0,5,1636.0,522.0
1,20,Female,551,195,bridge,10,1,bridge,1,6,1203.0,654.0
1,20,Female,552,73,car,10,1,flower,0,9,979.0,1292.0
1,20,Female,553,127,bed,6,1,bed,1,9,823.0,580.0
1,20,Female,554,264,train,10,1,train,1,9,824.0,433.0
1,20,Female,555,257,train,6,1,train,1,9,759.0,490.0
1,20,Female,556,300,cat,10,1,house,0,3,1405.0,734.0
1,20,Female,557,168,bridge,6,1,train,0,9,938.0,474.0
1,20,Female,558,313,cat,10,1,cat,1,4,988.0,646.0
1,20,Female,559,186,bridge,10,1,train,0,6,1454.0,768.0
1,20,Female,560,94,phone,6,1,phone,1,8,995.0,680.0
1,20,Female,561,333,elephant,6,1,elephant,1,6,1018.0,646.0
1,20,Female,562,372,knife,6,1,house,0,3,1454.0,662.0
1,20,Female,563,328,elephant,6,1,elephant,1,7,970.0,711.0
1,20,Female,564,38,house,10,1,flower,0,6,1227.0,611.0
1,20,Female,565,343,elephant,10,1,elephant,1,4,1052.0,638.0
1,20,Female,566,269,train,10,1,train,1,5,890.0,613.0
1,20,Female,567,167,bridge,6,1,phone,0,5,1242.0,702.0
1,20,Female,568,224,flower,10,1,flower,1,7,719.0,662.0
1,20,Female,569,194,bridge,10,1,car,0,4,1045.0,556.0
1,20,Female,570,252,train,6,1,train,1,8,808.0,416.0
1,20,Female,571,229,flower,10,1,flower,1,6,1061.0,547.0
1,20,Female,572,10,house,6,1,cat,0,4,971.0,704.0
1,20,Female,573,19,house,6,1,cat,0,4,1307.0,596.0
1,20,Female,574,108,phone,10,1,bridge,0,1,1593.0,605.0
1,20,Female,575,64,car,10,1,car,1,8,858.0,711.0
1,20,Female,576,12,house,6,1,house,1,7,898.0,645.0
1,20,Female,577,359,elephant,10,1,elephant,1,7,645.0,622.0
1,20,Female,578,275,train,10,1,train,1,4,1961.0,712.0
1,20,Female,579,397,knife,10,1,cat,0,3,1019.0,875.0
1,20,Female,580,11,house,6,1,house,1,7,1372.0,670.0
1,20,Female,581,254,train,6,1,train,1,6,1004.0,621.0
1,20,Female,582,371,knife,6,1,knife,1,3,998.0,547.0
1,20,Female,583,320,elephant,6,1,elephant,1,6,790.0,573.0
1,20,Female,584,58,car,6,1,car,1,8,602.0,572.0
1,20,Female,585,311,cat,10,1,cat,1,2,971.0,637.0
1,20,Female,586,246,train,6,1,train,1,7,882.0,531.0
1,20,Female,587,305,cat,10,1,cat,1,2,923.0,1210.0
1,20,Female,588,237,flower,10,1,flower,1,5,897.0,499.0
1,20,Female,589,103,phone,10,1,flower,0,5,1072.0,572.0
1,20,Female,590,268,train,10,1,train,1,2,962.0,932.0
1,20,Female,591,119,phone,10,1,elephant,0,4,1043.0,834.0
1,20,Female,592,240,train,6,1,train,1,6,916.0,916.0
1,20,Female,593,151,bed,10,1,flower,0,1,5601.0,1432.0
1,20,Female,594,323,elephant,6,1,elephant,1,9,996.0,1186.0
1,20,Female,595,197,bridge,10,1,elephant,0,9,622.0,440.0
1,20,Female,596,175,bridge,6,1,bridge,1,9,858.0,620.0
1,20,Female,597,218,flower,6,1,bed,0,2,1030.0,579.0
1,20,Female,598,114,phone,10,1,bridge,0,3,784.0,768.0
1,20,Female,599,189,bridge,10,1,house,0,2,1446.0,703.0
1,20,Female,600,120,bed,6,1,bed,1,9,636.0,981.0
1,20,Female,601,4,house,6,1,house,1,8,1848.0,793.0
1,20,Female,602,232,flower,10,1,flower,1,9,1104.0,539.0
1,20,Female,603,68,car,10,1,car,1,8,654.0,498.0
1,20,Female,604,123,bed,6,1,bed,1,8,2682.0,867.0
1,20,Female,605,60,car,10,1,car,1,8,692.0,564.0
1,20,Female,606,183,bridge,10,1,bridge,1,4,850.0,720.0
1,20,Female,607,106,phone,10,1,house,0,7,1241.0,654.0
1,20,Female,608,117,phone,10,1,phone,1,8,1020.0,474.0
1,20,Female,609,322,elephant,6,1,bridge,0,6,1053.0,686.0
1,20,Female,610,280,cat,6,1,cat,1,7,661.0,629.0
1,20,Female,611,286,cat,6,1,knife,0,1,922.0,1005.0
1,20,Female,612,243,train,6,1,train,1,9,922.0,645.0
1,20,Female,613,207,flower,6,1,flower,1,9,824.0,645.0
1,20,Female,614,86,phone,6,1,cat,0,4,858.0,1046.0
1,20,Female,615,348,elephant,10,1,car,0,4,1896.0,539.0
1,20,Female,616,136,bed,6,1,bed,1,8,873.0,628.0
1,20,Female,617,381,knife,10,1,knife,1,8,2100.0,531.0
1,20,Female,618,147,bed,10,1,bed,1,4,1428.0,663.0
1,20,Female,619,385,knife,10,1,knife,1,7,635.0,571.0
1,20,Female,620,211,flower,6,1,flower,1,7,1088.0,498.0
1,20,Female,621,91,phone,6,1,phone,1,5,824.0,572.0
1,20,Female,622,205,flower,6,1,flower,1,6,710.0,948.0
1,20,Female,623,295,cat,6,1,cat,1,4,1191.0,759.0
1,20,Female,624,133,bed,6,1,bed,1,7,777.0,711.0
1,20,Female,625,238,flower,10,1,flower,1,8,990.0,897.0
1,20,Female,626,9,house,6,1,cat,0,8,760.0,498.0
1,20,Female,627,187,bridge,10,1,bridge,1,8,1028.0,654.0
1,20,Female,628,265,train,10,1,train,1,9,880.0,1103.0
1,20,Female,629,390,knife,10,1,knife,1,8,735.0,637.0
1,20,Female,630,18,house,6,1,house,1,5,1445.0,850.0
1,20,Female,631,255,train,6,1,train,1,9,710.0,702.0
1,20,Female,632,160,bridge,6,1,bridge,1,7,1799.0,613.0
1,20,Female,633,148,bed,10,1,house,0,1,1037.0,629.0
1,20,Female,634,308,cat,10,1,cat,1,8,777.0,1021.0
1,20,Female,635,0,house,6,1,flower,0,4,1765.0,645.0
1,20,Female,636,225,flower,10,1,flower,1,8,891.0,579.0
1,20,Female,637,357,elephant,10,1,elephant,1,6,636.0,539.0
1,20,Female,638,279,train,10,1,car,0,2,899.0,621.0
1,20,Female,639,27,house,10,1,bridge,0,1,906.0,695.0
1,20,Female,640,241,train,6,1,train,1,8,890.0,1046.0
1,20,Female,641,26,house,10,1,house,1,5,1388.0,555.0
1,20,Female,642,261,train,10,1,train,1,6,914.0,531.0
1,20,Female,643,142,bed,10,1,bed,1,4,1290.0,531.0
1,20,Female,644,329,elephant,6,1,elephant,1,9,1395.0,819.0
1,20,Female,645,351,elephant,10,1,elephant,1,9,932.0,423.0
1,20,Female,646,111,phone,10,1,phone,1,2,905.0,777.0
1,20,Female,647,285,cat,6,1,cat,1,8,553.0,973.0
1,20,Female,648,272,train,10,1,car,0,6,1013.0,792.0
1,20,Female,649,393,knife,10,1,knife,1,6,718.0,375.0
1,20,Female,650,315,cat,10,1,cat,1,4,628.0,1021.0
1,20,Female,651,16,house,6,1,elephant,0,8,1026.0,800.0
1,20,Female,652,179,bridge,6,1,bridge,1,6,1504.0,482.0
1,20,Female,653,184,bridge,10,1,bridge,1,7,1036.0,530.0
1,20,Female,654,13,house,6,1,house,1,6,1415.0,612.0
1,20,Female,655,144,bed,10,1,bed,1,2,1733.0,784.0
1,20,Female,656,362,knife,6,1,knife,1,3,701.0,646.0
1,20,Female,657,51,car,6,1,car,1,7,579.0,539.0
1,20,Female,658,287,cat,6,1,elephant,0,9,685.0,555.0
1,20,Female,659,28,house,10,1,elephant,0,9,604.0,383.0
1,20,Female,660,170,bridge,6,1,bridge,1,8,801.0,653.0
1,20,Female,661,14,house,6,1,elephant,0,9,587.0,450.0
1,20,Female,662,83,phone,6,1,phone,1,8,840.0,1079.0
1,20,Female,663,231,flower,10,1,elephant,0,8,803.0,446.0
1,20,Female,664,53,car,6,1,car,1,9,646.0,971.0
1,20,Female,665,281,cat,6,1,cat,1,5,654.0,654.0
1,20,Female,666,72,car,10,1,car,1,7,588.0,448.0
1,20,Female,667,165,bridge,6,1,bridge,1,8,710.0,507.0
1,20,Female,668,396,knife,10,1,knife,1,6,660.0,474.0
1,20,Female,669,365,knife,6,1,bed,0,3,2780.0,498.0
1,20,Female,670,74,car,10,1,car,1,8,531.0,837.0
1,20,Female,671,102,phone,10,1,car,0,7,878.0,442.0
1,20,Female,672,260,train,10,1,train,1,7,947.0,466.0
1,20,Female,673,177,bridge,6,1,cat,0,5,1276.0,711.0
1,20,Female,674,217,flower,6,1,flower,1,9,825.0,776.0
1,20,Female,675,341,elephant,10,1,elephant,1,9,571.0,408.0
1,20,Female,676,212,flower,6,1,flower,1,9,874.0,604.0
1,20,Female,677,79,car,10,1,car,1,4,834.0,498.0
1,20,Female,678,17,house,6,1,house,1,9,1135.0,744.0
1,20,Female,679,92,phone,6,1,phone,1,7,1169.0,489.0
1,20,Female,680,149,bed,10,1,house,0,1,948.0,613.0
1,20,Female,681,139,bed,6,1,cat,0,3,1145.0,923.0
1,20,Female,682,36,house,10,1,house,1,2,1658.0,573.0
1,20,Female,683,129,bed,6,1,bed,1,7,906.0,523.0
1,20,Female,684,200,flower,6,1,flower,1,9,1103.0,817.0
1,20,Female,685,159,bed,10,1,bed,1,6,808.0,604.0
1,20,Female,686,141,bed,10,1,cat,0,7,729.0,691.0
1,20,Female,687,192,bridge,10,1,cat,0,7,645.0,384.0
1,20,Female,688,387,knife,10,1,knife,1,7,571.0,1072.0
1,20,Female,689,24,house,10,1,cat,0,7,603.0,441.0
1,20,Female,690,47,car,6,1,car,1,7,654.0,489.0
1,20,Female,691,66,car,10,1,car,1,7,522.0,360.0
1,20,Female,692,259,train,6,1,train,1,8,603.0,449.0
1,20,Female,693,3,house,6,1,house,1,8,1103.0,686.0
1,20,Female,694,213,flower,6,1,flower,1,9,831.0,1071.0
1,20,Female,695,126,bed,6,1,bed,1,8,1192.0,620.0
1,20,Female,696,325,elephant,6,1,elephant,1,8,987.0,720.0
1,20,Female,697,345,elephant,10,1,house,0,7,1448.0,702.0
1,20,Female,698,247,train,6,1,train,1,8,1268.0,621.0
1,20,Female,699,310,cat,10,1,bed,0,4,1342.0,564.0
1,20,Female,700,31,house,10,1,house,1,3,1324.0,474.0
1,20,Female,701,33,house,10,1,house,1,3,762.0,581.0
1,20,Female,702,62,car,10,1,car,1,9,604.0,597.0
1,20,Female,703,138,bed,6,1,bed,1,9,1692.0,605.0
1,20,Female,704,230,flower,10,1,flower,1,8,956.0,482.0
1,20,Female,705,107,phone,10,1,phone,1,5,1028.0,728.0
1,20,Female,706,277,train,10,1,house,0,4,907.0,563.0
1,20,Female,707,384,knife,10,1,flower,0,7,1724.0,710.0
1,20,Female,708,314,cat,10,1,knife,0,4,1423.0,629.0
1,20,Female,709,87,phone,6,1,phone,1,5,859.0,687.0
1,20,Female,710,22,house,10,1,train,0,3,947.0,621.0
1,20,Female,711,242,train,6,1,train,1,9,784.0,752.0
1,20,Female,712,84,phone,6,1,cat,0,7,701.0,424.0
1,20,Female,713,339,elephant,6,1,elephant,1,8,627.0,425.0
1,20,Female,714,118,phone,10,1,phone,1,8,776.0,539.0
1,20,Female,715,334,elephant,6,1,elephant,1,9,635.0,424.0
1,20,Female,716,226,flower,10,1,flower,1,7,1006.0,654.0
1,20,Female,717,374,knife,6,1,knife,1,7,652.0,473.0
1,20,Female,718,128,bed,6,1,bed,1,7,908.0,482.0
1,20,Female,719,375,knife,6,1,phone,0,7,1118.0,474.0
1,20,Female,720,304,cat,10,1,cat,1,8,586.0,523.0
1,20,Female,721,29,house,10,1,bridge,0,3,909.0,579.0
1,20,Female,722,105,phone,10,1,car,0,4,980.0,465.0
1,20,Female,723,250,train,6,1,train,1,6,939.0,588.0
1,20,Female,724,50,car,6,1,car,1,9,603.0,915.0
1,20,Female,725,221,flower,10,1,flower,1,8,883.0,744.0
1,20,Female,726,266,train,10,1,train,1,3,1061.0,1562.0
1,20,Female,727,45,car,6,1,car,1,9,538.0,719.0
1,20,Female,728,93,phone,6,1,car,0,6,570.0,735.0
1,20,Female,729,208,flower,6,1,flower,1,8,834.0,767.0
1,20,Female,730,130,bed,6,1,bed,1,4,992.0,473.0
1,20,Female,731,157,bed,10,1,bridge,0,2,808.0,859.0
1,20,Female,732,199,bridge,10,1,bridge,1,1,1912.0,1038.0
1,20,Female,733,185,bridge,10,1,house,0,2,1143.0,1137.0
1,20,Female,734,283,cat,6,1,cat,1,8,913.0,538.0
1,20,Female,735,8,house,6,1,house,1,7,1979.0,605.0
1,20,Female,736,41,car,6,1,car,1,7,561.0,646.0
1,20,Female,737,30,house,10,1,house,1,8,1021.0,702.0
1,20,Female,738,109,phone,10,1,cat,0,3,1554.0,597.0
1,20,Female,739,44,car,6,1,car,1,8,636.0,653.0
1,20,Female,740,49,car,6,1,car,1,9,569.0,548.0
1,20,Female,741,122,bed,6,1,bed,1,8,889.0,531.0
1,20,Female,742,294,cat,6,1,cat,1,6,898.0,906.0
1,20,Female,743,35,house,10,1,house,1,5,857.0,514.0
1,20,Female,744,360,knife,6,1,knife,1,6,634.0,695.0
1,20,Female,745,20,house,10,1,house,1,7,693.0,661.0
1,20,Female,746,349,elephant,10,1,elephant,1,8,1194.0,400.0
1,20,Female,747,125,bed,6,1,bed,1,3,1201.0,801.0
1,20,Female,748,124,bed,6,1,bridge,0,1,982.0,2109.0
1,20,Female,749,95,phone,6,1,phone,1,7,954.0,605.0
1,20,Female,750,204,flower,6,1,car,0,4,783.0,612.0
1,20,Female,751,338,elephant,6,1,elephant,1,8,821.0,728.0
1,20,Female,752,82,phone,6,1,phone,1,7,686.0,465.0
1,20,Female,753,309,cat,10,1,cat,1,6,843.0,653.0
1,20,Female,754,331,elephant,6,1,elephant,1,8,603.0,891.0
1,20,Female,755,340,elephant,10,1,elephant,1,8,497.0,424.0
1,20,Female,756,188,bridge,10,1,bridge,1,2,998.0,638.0
1,20,Female,757,337,elephant,6,1,elephant,1,8,833.0,425.0
1,20,Female,758,306,cat,10,1,cat,1,4,800.0,597.0
1,20,Female,759,302,cat,10,1,cat,1,7,594.0,481.0
1,20,Female,760,234,flower,10,1,flower,1,6,849.0,580.0
1,20,Female,761,76,car,10,1,bridge,0,3,1439.0,473.0
1,20,Female,762,298,cat,6,1,cat,1,7,710.0,466.0
1,20,Female,763,291,cat,6,1,bed,0,1,1725.0,637.0
1,20,Female,764,59,car,6,1,car,1,7,1315.0,638.0
1,20,Female,765,290,cat,6,1,house,0,2,1365.0,710.0
1,20,Female,766,353,elephant,10,1,elephant,1,8,661.0,474.0
1,20,Female,767,166,bridge,6,1,bridge,1,6,947.0,801.0
1,20,Female,768,6,house,6,1,house,1,5,1079.0,498.0
1,20,Female,769,248,train,6,1,train,1,7,1618.0,523.0
1,20,Female,770,215,flower,6,1,flower,1,9,913.0,841.0
1,20,Female,771,104,phone,10,1,phone,1,7,906.0,507.0
1,20,Female,772,364,knife,6,1,knife,1,1,1143.0,743.0
1,20,Female,773,71,car,10,1,train,0,1,1642.0,916.0
1,20,Female,774,278,train,10,1,train,1,4,1096.0,874.0
1,20,Female,775,131,bed,6,1,bed,1,7,923.0,629.0
1,20,Female,776,191,bridge,10,1,car,0,3,775.0,751.0
1,20,Female,777,369,knife,6,1,flower,0,7,1789.0,917.0
1,20,Female,778,52,car,6,1,car,1,8,619.0,620.0
1,20,Female,779,251,train,6,1,train,1,6,759.0,677.0
1,20,Female,780,383,knife,10,1,knife,1,1,1021.0,645.0
1,20,Female,781,115,phone,10,1,phone,1,1,1021.0,964.0
1,20,Female,782,395,knife,10,1,bridge,0,5,798.0,620.0
1,20,Female,783,319,cat,10,1,cat,1,6,791.0,557.0
1,20,Female,784,61,car,10,1,car,1,7,735.0,473.0
1,20,Female,785,358,elephant,10,1,elephant,1,7,872.0,499.0
1,20,Female,786,293,cat,6,1,bridge,0,6,874.0,637.0
1,20,Female,787,262,train,10,1,car,0,4,677.0,1250.0
1,20,Female,788,377,knife,6,1,knife,1,6,1153.0,891.0
1,20,Female,789,100,phone,10,1,cat,0,6,1356.0,367.0
1,20,Female,790,88,phone,6,1,phone,1,9,686.0,711.0
1,20,Female,791,116,phone,10,1,cat,0,4,955.0,579.0
1,20,Female,792,176,bridge,6,1,knife,0,5,661.0,761.0
1,20,Female,793,301,cat,10,1,cat,1,5,906.0,515.0
1,20,Female,794,391,knife,10,1,knife,1,7,897.0,522.0
1,20,Female,795,270,train,10,1,elephant,0,8,727.0,416.0
1,20,Female,796,63,car,10,1,car,1,8,581.0,818.0
1,20,Female,797,346,elephant,10,1,elephant,1,8,742.0,432.0
1,20,Female,798,164,bridge,6,1,bridge,1,6,998.0,1226.0
1,20,Female,799,85,phone,6,1,phone,1,4,686.0,653.0
1,20,Female,800,347,elephant,10,1,elephant,1,8,839.0,449.0
2,19,Male,1,380,knife,10,0,knife,1,10,759.0,682.0
2,19,Male,2,36,house,10,0,house,1,1,2601.0,795.0
2,19,Male,3,131,bed,6,0,bed,1,10,946.0,638.0
2,19,Male,4,219,flower,6,0,flower,1,10,861.0,634.0
2,19,Male,5,265,train,10,0,bridge,0,1,1958.0,760.0
2,19,Male,6,144,bed,10,0,bed,1,10,780.0,667.0
2,19,Male,7,331,elephant,6,0,elephant,1,10,628.0,371.0
2,19,Male,8,142,bed,10,0,bed,1,1,3776.0,666.0
2,19,Male,9,1,house,6,0,house,1,1,1696.0,1022.0
2,19,Male,10,237,flower,10,0,flower,1,10,961.0,667.0
2,19,Male,11,136,bed,6,0,bed,1,1,4374.0,768.0
2,19,Male,12,17,house,6,0,house,1,10,834.0,550.0
2,19,Male,13,261,train,10,0,car,0,10,997.0,604.0
2,19,Male,14,109,phone,10,0,cat,0,1,2057.0,662.0
2,19,Male,15,268,train,10,0,house,0,1,2507.0,2117.0
2,19,Male,16,149,bed,10,0,phone,0,1,1473.0,607.0
2,19,Male,17,341,elephant,10,0,elephant,1,10,677.0,327.0
2,19,Male,18,244,train,6,0,train,1,10,906.0,459.0
2,19,Male,19,100,phone,10,0,bridge,0,0,1739.0,1924.0
2,19,Male,20,98,phone,6,0,cat,0,0,5553.0,1736.0
2,19,Male,21,308,cat,10,0,cat,1,10,746.0,499.0
2,19,Male,22,319,cat,10,0,elephant,0,10,834.0,478.0
2,19,Male,23,28,house,10,0,elephant,0,10,614.0,399.0
2,19,Male,24,232,flower,10,0,flower,1,10,836.0,665.0
2,19,Male,25,394,knife,10,0,knife,1,10,646.0,462.0
2,19,Male,26,125,bed,6,0,flower,0,10,1167.0,944.0
2,19,Male,27,333,elephant,6,0,elephant,1,10,534.0,403.0
2,19,Male,28,148,bed,10,0,cat,0,10,695.0,679.0
2,19,Male,29,42,car,6,0,car,1,10,1157.0,544.0
2,19,Male,30,325,elephant,6,0,phone,0,1,2272.0,1000.0
2,19,Male,31,86,phone,6,0,phone,1,10,942.0,1167.0
2,19,Male,32,200,flower,6,0,flower,1,10,921.0,638.0
2,19,Male,33,263,train,10,0,bridge,0,1,3009.0,735.0
2,19,Male,34,170,bridge,6,0,bridge,1,10,1151.0,1145.0
2,19,Male,35,379,knife,6,0,knife,1,10,716.0,750.0
2,19,Male,36,253,train,6,0,train,1,10,1046.0,407.0
2,19,Male,37,297,cat,6,0,cat,1,10,892.0,474.0
2,19,Male,38,332,elephant,6,0,cat,0,1,1953.0,783.0
2,19,Male,39,343,elephant,10,0,elephant,1,10,990.0,443.0
2,19,Male,40,178,bridge,6,0,bridge,1,10,741.0,771.0
2,19,Male,41,364,knife,6,0,car,0,1,1095.0,1236.0
2,19,Male,42,26,house,10,0,house,1,10,1025.0,646.0
2,19,Male,43,366,knife,6,0,knife,1,10,717.0,596.0
2,19,Male,44,106,phone,10,0,bed,0,1,1547.0,707.0
2,19,Male,45,390,knife,10,0,knife,1,10,650.0,525.0
2,19,Male,46,218,flower,6,0,phone,0,1,776.0,1016.0
2,19,Male,47,209,flower,6,0,flower,1,10,920.0,737.0
2,19,Male,48,318,cat,10,0,house,0,0,5715.0,1505.0
2,19,Male,49,294,cat,6,0,elephant,0,0,1463.0,661.0
2,19,Male,50,146,bed,10,0,house,0,1,3839.0,1009.0
2,19,Male,51,324,elephant,6,0,elephant,1,10,645.0,478.0
2,19,Male,52,198,bridge,10,0,bridge,1,1,2545.0,928.0
2,19,Male,53,130,bed,6,0,phone,0,1,2622.0,586.0
2,19,Male,54,349,elephant,10,0,elephant,1,10,706.0,486.0
2,19,Male,55,173,bridge,6,0,train,0,10,905.0,460.0
2,19,Male,56,248,train,6,0,car,0,9,1079.0,501.0
2,19,Male,57,188,bridge,10,0,bridge,1,1,3839.0,680.0
2,19,Male,58,117,phone,10,0,phone,1,10,799.0,448.0
2,19,Male,59,286,cat,6,0,car,0,1,5431.0,563.0
2,19,Male,60,32,house,10,0,bridge,0,10,1147.0,766.0
2,19,Male,61,161,bridge,6,0,bridge,1,10,2039.0,805.0
2,19,Male,62,317,cat,10,0,cat,1,10,655.0,411.0
2,19,Male,63,50,car,6,0,car,1,10,910.0,521.0
2,19,Male,64,137,bed,6,0,bed,1,10,918.0,635.0
2,19,Male,65,288,cat,6,0,elephant,0,10,1563.0,587.0
2,19,Male,66,152,bed,10,0,bed,1,1,1872.0,1617.0
2,19,Male,67,234,flower,10,0,flower,1,10,688.0,785.0
2,19,Male,68,365,knife,6,0,train,0,1,9033.0,1328.0
2,19,Male,69,392,knife,10,0,knife,1,10,775.0,459.0
2,19,Male,70,43,car,6,0,car,1,10,982.0,1018.0
2,19,Male,71,334,elephant,6,0,elephant,1,9,590.0,390.0
2,19,Male,72,310,cat,10,0,phone,0,10,2145.0,630.0
2,19,Male,73,357,elephant,10,0,elephant,1,10,716.0,426.0
2,19,Male,74,360,knife,6,0,knife,1,10,753.0,559.0
2,19,Male,75,211,flower,6,0,house,0,1,2338.0,572.0
2,19,Male,76,163,bridge,6,0,bridge,1,1,856.0,657.0
2,19,Male,77,206,flower,6,0,flower,1,10,800.0,705.0
2,19,Male,78,69,car,10,0,car,1,10,994.0,609.0
2,19,Male,79,254,train,6,0,car,0,10,1557.0,580.0
2,19,Male,80,229,flower,10,0,flower,1,10,720.0,696.0
2,19,Male,81,195,bridge,10,0,bridge,1,1,2202.0,721.0
2,19,Male,82,34,house,10,0,flower,0,1,5738.0,729.0
2,19,Male,83,397,knife,10,0,knife,1,10,826.0,567.0
2,19,Male,84,6,house,6,0,house,1,10,991.0,570.0
2,19,Male,85,182,bridge,10,0,bridge,1,1,5012.0,757.0
2,19,Male,86,164,bridge,6,0,bridge,1,10,941.0,773.0
2,19,Male,87,362,knife,6,0,knife,1,10,710.0,533.0
2,19,Male,88,12,house,6,0,house,1,10,1246.0,704.0
2,19,Male,89,68,car,10,0,car,1,10,659.0,550.0
2,19,Male,90,312,cat,10,0,phone,0,1,3023.0,999.0
2,19,Male,91,87,phone,6,0,car,0,10,756.0,825.0
2,19,Male,92,260,train,10,0,train,1,10,901.0,377.0
2,19,Male,93,259,train,6,0,train,1,10,540.0,339.0
2,19,Male,94,241,train,6,0,train,1,10,498.0,327.0
2,19,Male,95,53,car,6,0,car,1,10,946.0,547.0
2,19,Male,96,83,phone,6,0,phone,1,1,902.0,1359.0
2,19,Male,97,119,phone,10,0,phone,1,1,1187.0,940.0
2,19,Male,98,255,train,6,0,train,1,10,658.0,319.0
2,19,Male,99,97,phone,6,0,phone,1,10,659.0,425.0
2,19,Male,100,245,train,6,0,car,0,10,1455.0,627.0
2,19,Male,101,65,car,10,0,car,1,10,621.0,564.0
2,19,Male,102,383,knife,10,0,knife,1,10,1148.0,535.0
2,19,Male,103,112,phone,10,0,bridge,0,10,1103.0,498.0
2,19,Male,104,220,flower,10,0,flower,1,10,713.0,577.0
2,19,Male,105,329,elephant,6,0,elephant,1,10,547.0,402.0
2,19,Male,106,266,train,10,0,bed,0,1,873.0,1256.0
2,19,Male,107,118,phone,10,0,phone,1,10,681.0,470.0
2,19,Male,108,193,bridge,10,0,train,0,1,1490.0,1442.0
2,19,Male,109,399,knife,10,0,bed,0,10,1065.0,997.0
2,19,Male,110,336,elephant,6,0,elephant,1,10,514.0,350.0
2,19,Male,111,194,bridge,10,0,phone,0,0,2976.0,1056.0
2,19,Male,112,303,cat,10,0,cat,1,10,687.0,488.0
2,19,Male,113,273,train,10,0,train,1,10,785.0,412.0
2,19,Male,114,174,bridge,6,0,bridge,1,10,701.0,572.0
2,19,Male,115,352,elephant,10,0,elephant,1,10,505.0,410.0
2,19,Male,116,228,flower,10,0,flower,1,10,971.0,628.0
2,19,Male,117,354,elephant,10,0,cat,0,1,1333.0,1078.0
2,19,Male,118,311,cat,10,0,house,0,0,4250.0,999.0
2,19,Male,119,49,car,6,0,car,1,10,672.0,623.0
2,19,Male,120,322,elephant,6,0,bed,0,10,2369.0,847.0
2,19,Male,121,300,cat,10,0,cat,1,10,1058.0,490.0
2,19,Male,122,120,bed,6,0,bed,1,10,663.0,754.0
2,19,Male,123,272,train,10,0,train,1,3,784.0,573.0
2,19,Male,124,16,house,6,0,house,1,10,953.0,964.0
2,19,Male,125,156,bed,10,0,bed,1,10,647.0,637.0
2,19,Male,126,281,cat,6,0,cat,1,10,683.0,440.0
2,19,Male,127,141,bed,10,0,cat,0,10,677.0,590.0
2,19,Male,128,302,cat,10,0,cat,1,10,605.0,484.0
2,19,Male,129,299,cat,6,0,cat,1,10,517.0,483.0
2,19,Male,130,103,phone,10,0,knife,0,1,1298.0,1361.0
2,19,Male,131,314,cat,10,0,cat,1,10,956.0,498.0
2,19,Male,132,222,flower,10,0,bed,0,0,7774.0,566.0
2,19,Male,133,282,cat,6,0,cat,1,10,573.0,419.0
2,19,Male,134,140,bed,10,0,house,0,10,2304.0,689.0
2,19,Male,135,165,bridge,6,0,bridge,1,10,806.0,863.0
2,19,Male,136,210,flower,6,0,house,0,0,913.0,1713.0
2,19,Male,137,128,bed,6,0,flower,0,10,1705.0,1348.0
2,19,Male,138,226,flower,10,0,flower,1,10,755.0,761.0
2,19,Male,139,298,cat,6,0,cat,1,10,617.0,481.0
2,19,Male,140,96,phone,6,0,phone,1,1,1086.0,1036.0
2,19,Male,141,90,phone,6,0,bed,0,1,764.0,845.0
2,19,Male,142,368,knife,6,0,knife,1,10,782.0,532.0
2,19,Male,143,205,flower,6,0,flower,1,10,1497.0,713.0
2,19,Male,144,348,elephant,10,0,elephant,1,10,695.0,525.0
2,19,Male,145,223,flower,10,0,flower,1,10,750.0,640.0
2,19,Male,146,184,bridge,10,0,bridge,1,1,875.0,642.0
2,19,Male,147,293,cat,6,0,cat,1,10,1239.0,921.0
2,19,Male,148,132,bed,6,0,bed,1,10,807.0,810.0
2,19,Male,149,92,phone,6,0,phone,1,10,622.0,942.0
2,19,Male,150,387,knife,10,0,knife,1,10,673.0,714.0
2,19,Male,151,306,cat,10,0,cat,1,9,582.0,606.0
2,19,Male,152,227,flower,10,0,flower,1,10,803.0,935.0
2,19,Male,153,344,elephant,10,0,elephant,1,10,471.0,385.0
2,19,Male,154,381,knife,10,0,knife,1,10,636.0,740.0
2,19,Male,155,22,house,10,0,house,1,1,2335.0,687.0
2,19,Male,156,62,car,10,0,car,1,10,558.0,704.0
2,19,Male,157,361,knife,6,0,knife,1,10,561.0,487.0
2,19,Male,158,347,elephant,10,0,elephant,1,10,792.0,410.0
2,19,Male,159,177,bridge,6,0,train,0,10,960.0,473.0
2,19,Male,160,192,bridge,10,0,cat,0,10,2502.0,612.0
2,19,Male,161,378,knife,6,0,knife,1,10,558.0,485.0
2,19,Male,162,386,knife,10,0,phone,0,0,1463.0,578.0
2,19,Male,163,340,elephant,10,0,elephant,1,10,706.0,347.0
2,19,Male,164,323,elephant,6,0,elephant,1,10,593.0,361.0
2,19,Male,165,204,flower,6,0,flower,1,1,2867.0,1503.0
2,19,Male,166,280,cat,6,0,cat,1,1,817.0,1194.0
2,19,Male,167,279,train,10,0,bridge,0,1,1112.0,516.0
2,19,Male,168,242,train,6,0,train,1,10,1243.0,360.0
2,19,Male,169,56,car,6,0,car,1,10,742.0,597.0
2,19,Male,170,327,elephant,6,0,elephant,1,10,658.0,394.0
2,19,Male,171,375,knife,6,0,phone,0,1,2706.0,759.0
2,19,Male,172,271,train,10,0,train,1,10,722.0,330.0
2,19,Male,173,124,bed,6,0,bed,1,10,750.0,681.0
2,19,Male,174,143,bed,10,0,bed,1,10,1534.0,580.0
2,19,Male,175,114,phone,10,0,bridge,0,1,956.0,514.0
2,19,Male,176,208,flower,6,0,flower,1,10,1355.0,625.0
2,19,Male,177,88,phone,6,0,phone,1,2,584.0,423.0
2,19,Male,178,150,bed,10,0,cat,0,1,913.0,644.0
2,19,Male,179,153,bed,10,0,bed,1,1,917.0,422.0
2,19,Male,180,267,train,10,0,train,1,10,585.0,386.0
2,19,Male,181,203,flower,6,0,flower,1,10,1001.0,720.0
2,19,Male,182,59,car,6,0,car,1,10,659.0,417.0
2,19,Male,183,74,car,10,0,car,1,10,587.0,467.0
2,19,Male,184,167,bridge,6,0,bridge,1,1,715.0,561.0
2,19,Male,185,108,phone,10,0,phone,1,1,1936.0,596.0
2,19,Male,186,251,train,6,0,train,1,10,694.0,339.0
2,19,Male,187,183,bridge,10,0,bridge,1,2,1078.0,574.0
2,19,Male,188,60,car,10,0,car,1,10,571.0,476.0
2,19,Male,189,196,bridge,10,0,cat,0,0,3186.0,801.0
2,19,Male,190,201,flower,6,0,flower,1,10,604.0,556.0
2,19,Male,191,75,car,10,0,car,1,10,476.0,519.0
2,19,Male,192,31,house,10,0,house,1,1,1251.0,685.0
2,19,Male,193,70,car,10,0,car,1,10,914.0,879.0
2,19,Male,194,46,car,6,0,car,1,10,520.0,718.0
2,19,Male,195,79,car,10,0,car,1,10,455.0,575.0
2,19,Male,196,236,flower,10,0,flower,1,1,1275.0,694.0
2,19,Male,197,316,cat,10,0,bed,0,1,773.0,425.0
2,19,Male,198,345,elephant,10,0,elephant,1,1,961.0,1099.0
2,19,Male,199,155,bed,10,0,bed,1,10,610.0,884.0
2,19,Male,200,45,car,6,0,car,1,10,559.0,516.0
2,19,Male,201,51,car,6,0,car,1,10,613.0,685.0
2,19,Male,202,320,elephant,6,0,bridge,0,1,4343.0,667.0
2,19,Male,203,63,car,10,0,car,1,10,514.0,633.0
2,19,Male,204,214,flower,6,0,house,0,1,1609.0,561.0
2,19,Male,205,187,bridge,10,0,bridge,1,1,1419.0,428.0
2,19,Male,206,162,bridge,6,0,bridge,1,10,677.0,828.0
2,19,Male,207,235,flower,10,0,flower,1,2,866.0,342.0
2,19,Male,208,91,phone,6,0,phone,1,10,702.0,751.0
2,19,Male,209,181,bridge,10,0,house,0,1,1015.0,459.0
2,19,Male,210,95,phone,6,0,phone,1,1,786.0,457.0
2,19,Male,211,110,phone,10,0,phone,1,1,884.0,1220.0
2,19,Male,212,277,train,10,0,car,0,10,1062.0,563.0
2,19,Male,213,230,flower,10,0,flower,1,10,645.0,1018.0
2,19,Male,214,0,house,6,0,house,1,1,903.0,553.0
2,19,Male,215,154,bed,10,0,bed,1,10,575.0,619.0
2,19,Male,216,374,knife,6,0,knife,1,10,870.0,528.0
2,19,Male,217,356,elephant,10,0,elephant,1,10,496.0,373.0
2,19,Male,218,328,elephant,6,0,elephant,1,10,445.0,378.0
2,19,Male,219,5,house,6,0,house,1,10,933.0,987.0
2,19,Male,220,371,knife,6,0,phone,0,1,1489.0,577.0
2,19,Male,221,363,knife,6,0,knife,1,10,925.0,764.0
2,19,Male,222,64,car,10,0,car,1,10,589.0,475.0
2,19,Male,223,250,train,6,0,train,1,10,543.0,329.0
2,19,Male,224,78,car,10,0,car,1,10,606.0,469.0
2,19,Male,225,202,flower,6,0,flower,1,10,671.0,599.0
2,19,Male,226,240,train,6,0,train,1,10,547.0,334.0
2,19,Male,227,166,bridge,6,0,bridge,1,10,691.0,545.0
2,19,Male,228,115,phone,10,0,cat,0,1,3767.0,599.0
2,19,Male,229,38,house,10,0,house,1,10,966.0,837.0
2,19,Male,230,391,knife,10,0,knife,1,10,693.0,478.0
2,19,Male,231,85,phone,6,0,phone,1,10,914.0,447.0
2,19,Male,232,55,car,6,0,car,1,10,591.0,853.0
2,19,Male,233,186,bridge,10,0,bridge,1,10,679.0,609.0
2,19,Male,234,134,bed,6,0,bed,1,10,1048.0,792.0
2,19,Male,235,113,phone,10,0,cat,0,1,3262.0,612.0
2,19,Male,236,307,cat,10,0,cat,1,10,773.0,435.0
2,19,Male,237,107,phone,10,0,phone,1,10,920.0,1029.0
2,19,Male,238,339,elephant,6,0,elephant,1,10,716.0,310.0
2,19,Male,239,290,cat,6,0,cat,1,1,801.0,803.0
2,19,Male,240,2,house,6,0,house,1,10,718.0,818.0
2,19,Male,241,139,bed,6,0,bed,1,10,689.0,510.0
2,19,Male,242,395,knife,10,0,knife,1,1,1232.0,950.0
2,19,Male,243,21,house,10,0,house,1,2,865.0,858.0
2,19,Male,244,355,elephant,10,0,elephant,1,10,760.0,424.0
2,19,Male,245,212,flower,6,0,flower,1,10,685.0,606.0
2,19,Male,246,33,house,10,0,house,1,10,680.0,663.0
2,19,Male,247,231,flower,10,0,knife,0,1,4142.0,850.0
2,19,Male,248,25,house,10,0,house,1,1,913.0,648.0
2,19,Male,249,169,bridge,6,0,bridge,1,10,885.0,698.0
2,19,Male,250,66,car,10,0,car,1,10,619.0,510.0
2,19,Male,251,47,car,6,0,car,1,10,542.0,755.0
2,19,Male,252,224,flower,10,0,flower,1,10,1005.0,508.0
2,19,Male,253,8,house,6,0,house,1,10,609.0,525.0
2,19,Male,254,189,bridge,10,0,phone,0,10,772.0,403.0
2,19,Male,255,285,cat,6,0,cat,1,10,477.0,404.0
2,19,Male,256,377,knife,6,0,knife,1,10,583.0,458.0
2,19,Male,257,335,elephant,6,0,elephant,1,10,475.0,360.0
2,19,Male,258,330,elephant,6,0,elephant,1,10,425.0,347.0
2,19,Male,259,337,elephant,6,0,elephant,1,10,395.0,335.0
2,19,Male,260,171,bridge,6,0,bridge,1,10,622.0,417.0
2,19,Male,261,376,knife,6,0,knife,1,10,589.0,393.0
2,19,Male,262,102,phone,10,0,train,0,10,1090.0,323.0
2,19,Male,263,147,bed,10,0,bed,1,10,632.0,516.0
2,19,Male,264,52,car,6,0,car,1,10,509.0,444.0
2,19,Male,265,145,bed,10,0,bed,1,10,807.0,483.0
2,19,Male,266,158,bed,10,0,bed,1,10,614.0,578.0
2,19,Male,267,13,house,6,0,car,0,10,595.0,402.0
2,19,Male,268,197,bridge,10,0,cat,0,1,1509.0,534.0
2,19,Male,269,304,cat,10,0,cat,1,10,542.0,337.0
2,19,Male,270,72,car,10,0,car,1,10,503.0,390.0
2,19,Male,271,309,cat,10,0,cat,1,1,775.0,531.0
2,19,Male,272,295,cat,6,0,cat,1,1,777.0,1075.0
2,19,Male,273,191,bridge,10,0,cat,0,1,1543.0,450.0
2,19,Male,274,122,bed,6,0,bed,1,10,507.0,805.0
2,19,Male,275,123,bed,6,0,bed,1,10,771.0,504.0
2,19,Male,276,221,flower,10,0,flower,1,10,1057.0,564.0
2,19,Male,277,296,cat,6,0,cat,1,10,524.0,427.0
2,19,Male,278,80,phone,6,0,phone,1,2,592.0,514.0
2,19,Male,279,283,cat,6,0,cat,1,10,509.0,379.0
2,19,Male,280,23,house,10,0,house,1,10,812.0,717.0
2,19,Male,281,101,phone,10,0,phone,1,1,645.0,584.0
2,19,Male,282,321,elephant,6,0,cat,0,0,1315.0,754.0
2,19,Male,283,313,cat,10,0,cat,1,10,715.0,737.0
2,19,Male,284,190,bridge,10,0,flower,0,1,1203.0,671.0
2,19,Male,285,19,house,6,0,phone,0,1,1074.0,497.0
2,19,Male,286,398,knife,10,0,knife,1,10,1331.0,502.0
2,19,Male,287,346,elephant,10,0,elephant,1,10,1008.0,332.0
2,19,Male,288,121,bed,6,0,bed,1,10,599.0,588.0
2,19,Male,289,258,train,6,0,bed,0,10,675.0,615.0
2,19,Male,290,57,car,6,0,car,1,10,657.0,525.0
2,19,Male,291,151,bed,10,0,bed,1,10,716.0,566.0
2,19,Male,292,111,phone,10,0,cat,0,1,616.0,510.0
2,19,Male,293,370,knife,6,0,knife,1,10,524.0,447.0
2,19,Male,294,393,knife,10,0,knife,1,10,555.0,532.0
2,19,Male,295,216,flower,6,0,flower,1,10,590.0,568.0
2,19,Male,296,15,house,6,0,house,1,10,574.0,401.0
2,19,Male,297,11,house,6,0,house,1,10,517.0,551.0
2,19,Male,298,199,bridge,10,0,elephant,0,0,2704.0,909.0
2,19,Male,299,289,cat,6,0,knife,0,1,2081.0,1014.0
2,19,Male,300,135,bed,6,0,bed,1,10,508.0,508.0
2,19,Male,301,168,bridge,6,0,bridge,1,10,550.0,916.0
2,19,Male,302,175,bridge,6,0,bridge,1,10,582.0,522.0
2,19,Male,303,127,bed,6,0,bed,1,10,656.0,505.0
2,19,Male,304,67,car,10,0,car,1,10,475.0,411.0
2,19,Male,305,276,train,10,0,train,1,10,590.0,334.0
2,19,Male,306,257,train,6,0,train,1,10,484.0,319.0
2,19,Male,307,243,train,6,0,train,1,10,426.0,315.0
2,19,Male,308,238,flower,10,0,flower,1,10,693.0,563.0
2,19,Male,309,225,flower,10,0,flower,1,10,682.0,502.0
2,19,Male,310,94,phone,6,0,phone,1,1,691.0,850.0
2,19,Male,311,7,house,6,0,house,1,10,572.0,522.0
2,19,Male,312,14,house,6,0,phone,0,0,587.0,957.0
2,19,Male,313,270,train,10,0,house,0,10,859.0,764.0
2,19,Male,314,350,elephant,10,0,elephant,1,10,522.0,369.0
2,19,Male,315,126,bed,6,0,bed,1,1,658.0,700.0
2,19,Male,316,284,cat,6,0,cat,1,0,1201.0,499.0
2,19,Male,317,269,train,10,0,car,0,1,835.0,712.0
2,19,Male,318,82,phone,6,0,phone,1,1,628.0,1145.0
2,19,Male,319,29,house,10,0,house,1,10,730.0,471.0
2,19,Male,320,247,train,6,0,train,1,10,559.0,360.0
2,19,Male,321,44,car,6,0,car,1,10,614.0,391.0
2,19,Male,322,30,house,10,0,house,1,10,679.0,526.0
2,19,Male,323,179,bridge,6,0,bed,0,1,1744.0,471.0
2,19,Male,324,58,car,6,0,car,1,10,645.0,434.0
2,19,Male,325,367,knife,6,0,knife,1,10,582.0,475.0
2,19,Male,326,305,cat,10,0,cat,1,1,722.0,473.0
2,19,Male,327,239,flower,10,0,flower,1,2,610.0,394.0
2,19,Male,328,84,phone,6,0,knife,0,1,1635.0,564.0
2,19,Male,329,384,knife,10,0,cat,0,1,809.0,686.0
2,19,Male,330,256,train,6,0,train,1,10,599.0,385.0
2,19,Male,331,20,house,10,0,house,1,10,631.0,486.0
2,19,Male,332,61,car,10,0,car,1,10,511.0,464.0
2,19,Male,333,213,flower,6,0,flower,1,0,796.0,492.0
2,19,Male,334,172,bridge,6,0,bridge,1,10,693.0,530.0
2,19,Male,335,10,house,6,0,cat,0,0,876.0,690.0
2,19,Male,336,39,house,10,0,house,1,10,830.0,484.0
2,19,Male,337,388,knife,10,0,house,0,10,656.0,719.0
2,19,Male,338,133,bed,6,0,bed,1,10,579.0,469.0
2,19,Male,339,105,phone,10,0,phone,1,0,1581.0,1021.0
2,19,Male,340,129,bed,6,0,bed,1,10,572.0,521.0
2,19,Male,341,292,cat,6,0,bed,0,10,897.0,532.0
2,19,Male,342,176,bridge,6,0,car,0,10,763.0,458.0
2,19,Male,343,274,train,10,0,train,1,10,774.0,309.0
2,19,Male,344,3,house,6,0,house,1,10,645.0,818.0
2,19,Male,345,315,cat,10,0,cat,1,1,543.0,526.0
2,19,Male,346,180,bridge,10,0,bridge,1,1,675.0,739.0
2,19,Male,347,389,knife,10,0,knife,1,10,452.0,423.0
2,19,Male,348,326,elephant,6,0,elephant,1,10,749.0,291.0
2,19,Male,349,215,flower,6,0,flower,1,9,542.0,629.0
2,19,Male,350,278,train,10,0,train,1,10,710.0,560.0
2,19,Male,351,338,elephant,6,0,elephant,1,10,468.0,1068.0
2,19,Male,352,275,train,10,0,train,1,10,520.0,328.0
2,19,Male,353,372,knife,6,0,knife,1,9,565.0,529.0
2,19,Male,354,89,phone,6,0,phone,1,0,784.0,361.0
2,19,Male,355,81,phone,6,0,phone,1,1,1090.0,435.0
2,19,Male,356,40,car,6,0,car,1,10,590.0,551.0
2,19,Male,357,71,car,10,0,car,1,10,662.0,540.0
2,19,Male,358,342,elephant,10,0,bridge,0,10,2131.0,696.0
2,19,Male,359,359,elephant,10,0,elephant,1,10,527.0,398.0
2,19,Male,360,252,train,6,0,train,1,10,444.0,320.0
2,19,Male,361,369,knife,6,0,phone,0,1,1200.0,571.0
2,19,Male,362,382,knife,10,0,phone,0,1,1151.0,410.0
2,19,Male,363,160,bridge,6,0,bridge,1,1,707.0,376.0
2,19,Male,364,24,house,10,0,house,1,10,661.0,485.0
2,19,Male,365,249,train,6,0,house,0,10,1163.0,431.0
2,19,Male,366,351,elephant,10,0,elephant,1,10,454.0,309.0
2,19,Male,367,185,bridge,10,0,house,0,10,749.0,385.0
2,19,Male,368,99,phone,6,0,phone,1,1,525.0,404.0
2,19,Male,369,358,elephant,10,0,elephant,1,10,598.0,304.0
2,19,Male,370,37,house,10,0,bridge,0,1,2666.0,399.0
2,19,Male,371,77,car,10,0,car,1,10,567.0,398.0
2,19,Male,372,76,car,10,0,car,1,10,874.0,378.0
2,19,Male,373,262,train,10,0,car,0,10,543.0,322.0
2,19,Male,374,301,cat,10,0,phone,0,10,575.0,355.0
2,19,Male,375,207,flower,6,0,flower,1,9,514.0,441.0
2,19,Male,376,41,car,6,0,car,1,10,434.0,444.0
2,19,Male,377,48,car,6,0,car,1,9,454.0,679.0
2,19,Male,378,4,house,6,0,house,1,9,596.0,377.0
2,19,Male,379,18,house,6,0,house,1,9,788.0,647.0
2,19,Male,380,116,phone,10,0,phone,1,10,1495.0,465.0
2,19,Male,381,157,bed,10,0,cat,0,1,851.0,431.0
2,19,Male,382,138,bed,6,0,bed,1,1,716.0,395.0
2,19,Male,383,159,bed,10,0,bed,1,1,525.0,302.0
2,19,Male,384,291,cat,6,0,phone,0,1,679.0,698.0
2,19,Male,385,373,knife,6,0,phone,0,10,1278.0,512.0
2,19,Male,386,27,house,10,0,bridge,0,1,4451.0,429.0
2,19,Male,387,217,flower,6,0,flower,1,10,534.0,679.0
2,19,Male,388,35,house,10,0,house,1,10,736.0,647.0
2,19,Male,389,54,car,6,0,car,1,10,679.0,412.0
2,19,Male,390,73,car,10,0,car,1,10,615.0,405.0
2,19,Male,391,264,train,10,0,train,1,10,428.0,339.0
2,19,Male,392,9,house,6,0,house,1,10,854.0,536.0
2,19,Male,393,104,phone,10,0,phone,1,1,650.0,823.0
2,19,Male,394,385,knife,10,0,knife,1,10,710.0,400.0
2,19,Male,395,396,knife,10,0,phone,0,0,519.0,1561.0
2,19,Male,396,353,elephant,10,0,elephant,1,10,1203.0,281.0
2,19,Male,397,287,cat,6,0,elephant,0,10,718.0,303.0
2,19,Male,398,93,phone,6,0,phone,1,10,618.0,849.0
2,19,Male,399,246,train,6,0,train,1,10,472.0,297.0
2,19,Male,400,233,flower,10,0,knife,0,1,1562.0,623.0
2,19,Male,401,347,elephant,10,1,elephant,1,10,786.0,333.0
2,19,Male,402,257,train,6,1,train,1,10,449.0,292.0
2,19,Male,403,50,car,6,1,car,1,10,580.0,586.0
2,19,Male,404,389,knife,10,1,knife,1,10,553.0,412.0
2,19,Male,405,48,car,6,1,car,1,10,505.0,754.0
2,19,Male,406,266,train,10,1,knife,0,9,1706.0,330.0
2,19,Male,407,37,house,10,1,train,0,10,2235.0,384.0
2,19,Male,408,251,train,6,1,train,1,10,484.0,287.0
2,19,Male,409,249,train,6,1,house,0,10,720.0,496.0
2,19,Male,410,95,phone,6,1,phone,1,10,521.0,357.0
2,19,Male,411,255,train,6,1,train,1,10,486.0,304.0
2,19,Male,412,144,bed,10,1,bed,1,10,1015.0,611.0
2,19,Male,413,153,bed,10,1,bed,1,10,615.0,592.0
2,19,Male,414,52,car,6,1,car,1,10,572.0,482.0
2,19,Male,415,36,house,10,1,house,1,10,2416.0,705.0
2,19,Male,416,210,flower,6,1,flower,1,10,635.0,506.0
2,19,Male,417,85,phone,6,1,cat,0,1,884.0,530.0
2,19,Male,418,335,elephant,6,1,elephant,1,10,620.0,326.0
2,19,Male,419,179,bridge,6,1,flower,0,0,5701.0,450.0
2,19,Male,420,148,bed,10,1,cat,0,10,733.0,335.0
2,19,Male,421,276,train,10,1,train,1,10,452.0,310.0
2,19,Male,422,296,cat,6,1,cat,1,10,595.0,372.0
2,19,Male,423,289,cat,6,1,cat,1,10,1341.0,357.0
2,19,Male,424,295,cat,6,1,cat,1,10,762.0,365.0
2,19,Male,425,195,bridge,10,1,bridge,1,1,952.0,479.0
2,19,Male,426,309,cat,10,1,cat,1,1,1741.0,492.0
2,19,Male,427,62,car,10,1,car,1,10,479.0,588.0
2,19,Male,428,297,cat,6,1,cat,1,10,483.0,468.0
2,19,Male,429,138,bed,6,1,bed,1,10,761.0,475.0
2,19,Male,430,60,car,10,1,car,1,10,613.0,458.0
2,19,Male,431,336,elephant,6,1,cat,0,1,817.0,1041.0
2,19,Male,432,398,knife,10,1,knife,1,1,1633.0,466.0
2,19,Male,433,26,house,10,1,house,1,10,736.0,489.0
2,19,Male,434,98,phone,6,1,phone,1,10,580.0,515.0
2,19,Male,435,127,bed,6,1,bed,1,10,587.0,713.0
2,19,Male,436,344,elephant,10,1,elephant,1,10,756.0,316.0
2,19,Male,437,145,bed,10,1,bed,1,10,610.0,545.0
2,19,Male,438,35,house,10,1,house,1,1,827.0,971.0
2,19,Male,439,157,bed,10,1,house,0,0,1364.0,657.0
2,19,Male,440,286,cat,6,1,phone,0,1,2822.0,621.0
2,19,Male,441,69,car,10,1,car,1,10,526.0,668.0
2,19,Male,442,112,phone,10,1,elephant,0,1,2228.0,686.0
2,19,Male,443,381,knife,10,1,knife,1,10,576.0,671.0
2,19,Male,444,58,car,6,1,car,1,10,606.0,419.0
2,19,Male,445,121,bed,6,1,bed,1,10,587.0,691.0
2,19,Male,446,128,bed,6,1,knife,0,10,789.0,522.0
2,19,Male,447,118,phone,10,1,phone,1,10,461.0,406.0
2,19,Male,448,126,bed,6,1,bed,1,10,790.0,684.0
2,19,Male,449,371,knife,6,1,knife,1,10,857.0,761.0
2,19,Male,450,30,house,10,1,house,1,10,1012.0,995.0
2,19,Male,451,197,bridge,10,1,house,0,10,1956.0,561.0
2,19,Male,452,310,cat,10,1,bed,0,10,673.0,479.0
2,19,Male,453,59,car,6,1,car,1,10,491.0,364.0
2,19,Male,454,253,train,6,1,train,1,10,786.0,281.0
2,19,Male,455,151,bed,10,1,bed,1,10,570.0,473.0
2,19,Male,456,149,bed,10,1,bed,1,10,504.0,524.0
2,19,Male,457,130,bed,6,1,bed,1,10,533.0,521.0
2,19,Male,458,247,train,6,1,train,1,10,860.0,460.0
2,19,Male,459,191,bridge,10,1,car,0,1,1842.0,886.0
2,19,Male,460,239,flower,10,1,flower,1,1,1792.0,438.0
2,19,Male,461,140,bed,10,1,house,0,0,4154.0,450.0
2,19,Male,462,326,elephant,6,1,elephant,1,10,685.0,308.0
2,19,Male,463,248,train,6,1,car,0,10,664.0,420.0
2,19,Male,464,178,bridge,6,1,bridge,1,10,558.0,538.0
2,19,Male,465,125,bed,6,1,flower,0,1,791.0,343.0
2,19,Male,466,324,elephant,6,1,elephant,1,10,566.0,312.0
2,19,Male,467,64,car,10,1,car,1,10,514.0,348.0
2,19,Male,468,61,car,10,1,car,1,10,469.0,807.0
2,19,Male,469,319,cat,10,1,cat,1,10,509.0,557.0
2,19,Male,470,46,car,6,1,car,1,10,490.0,608.0
2,19,Male,471,41,car,6,1,car,1,10,897.0,489.0
2,19,Male,472,220,flower,10,1,flower,1,10,786.0,482.0
2,19,Male,473,244,train,6,1,train,1,10,532.0,325.0
2,19,Male,474,141,bed,10,1,cat,0,10,561.0,375.0
2,19,Male,475,305,cat,10,1,cat,1,0,874.0,567.0
2,19,Male,476,92,phone,6,1,phone,1,10,529.0,509.0
2,19,Male,477,65,car,10,1,car,1,10,548.0,494.0
2,19,Male,478,170,bridge,6,1,bridge,1,10,668.0,392.0
2,19,Male,479,388,knife,10,1,house,0,10,834.0,406.0
2,19,Male,480,386,knife,10,1,cat,0,0,889.0,977.0
2,19,Male,481,131,bed,6,1,bed,1,10,899.0,753.0
2,19,Male,482,71,car,10,1,car,1,10,583.0,412.0
2,19,Male,483,86,phone,6,1,phone,1,10,992.0,416.0
2,19,Male,484,76,car,10,1,car,1,10,693.0,388.0
2,19,Male,485,1,house,6,1,bridge,0,1,816.0,503.0
2,19,Male,486,136,bed,6,1,bed,1,10,470.0,526.0
2,19,Male,487,227,flower,10,1,flower,1,1,1432.0,425.0
2,19,Male,488,17,house,6,1,house,1,10,897.0,729.0
2,19,Male,489,155,bed,10,1,bed,1,10,637.0,456.0
2,19,Male,490,373,knife,6,1,knife,1,3,1072.0,388.0
2,19,Male,491,274,train,10,1,train,1,10,1355.0,910.0
2,19,Male,492,129,bed,6,1,bed,1,10,517.0,469.0
2,19,Male,493,114,phone,10,1,bridge,0,10,1419.0,640.0
2,19,Male,494,169,bridge,6,1,bridge,1,10,516.0,481.0
2,19,Male,495,176,bridge,6,1,car,0,10,646.0,534.0
2,19,Male,496,11,house,6,1,house,1,10,821.0,513.0
2,19,Male,497,232,flower,10,1,flower,1,1,600.0,457.0
2,19,Male,498,330,elephant,6,1,elephant,1,10,646.0,317.0
2,19,Male,499,171,bridge,6,1,bridge,1,10,511.0,521.0
2,19,Male,500,40,car,6,1,car,1,10,624.0,783.0
2,19,Male,501,218,flower,6,1,phone,0,10,591.0,399.0
2,19,Male,502,200,flower,6,1,flower,1,10,859.0,567.0
2,19,Male,503,313,cat,10,1,cat,1,1,810.0,325.0
2,19,Male,504,343,elephant,10,1,elephant,1,10,670.0,289.0
2,19,Male,505,22,house,10,1,house,1,1,850.0,267.0
2,19,Male,506,25,house,10,1,house,1,1,886.0,421.0
2,19,Male,507,174,bridge,6,1,bridge,1,10,469.0,471.0
2,19,Male,508,396,knife,10,1,knife,1,10,908.0,461.0
2,19,Male,509,156,bed,10,1,bed,1,10,660.0,546.0
2,19,Male,510,206,flower,6,1,flower,1,10,703.0,493.0
2,19,Male,511,391,knife,10,1,knife,1,10,564.0,418.0
2,19,Male,512,308,cat,10,1,cat,1,10,515.0,343.0
2,19,Male,513,106,phone,10,1,phone,1,1,646.0,705.0
2,19,Male,514,134,bed,6,1,bed,1,10,582.0,803.0
2,19,Male,515,221,flower,10,1,flower,1,1,773.0,414.0
2,19,Male,516,360,knife,6,1,knife,1,10,528.0,731.0
2,19,Male,517,194,bridge,10,1,knife,0,0,1234.0,603.0
2,19,Male,518,291,cat,6,1,phone,0,1,794.0,862.0
2,19,Male,519,345,elephant,10,1,knife,0,1,1919.0,368.0
2,19,Male,520,320,elephant,6,1,bridge,0,0,2206.0,1408.0
2,19,Male,521,226,flower,10,1,house,0,0,636.0,1352.0
2,19,Male,522,242,train,6,1,train,1,10,543.0,295.0
2,19,Male,523,245,train,6,1,train,1,10,601.0,328.0
2,19,Male,524,184,bridge,10,1,bridge,1,10,699.0,442.0
2,19,Male,525,374,knife,6,1,knife,1,10,543.0,468.0
2,19,Male,526,67,car,10,1,car,1,10,594.0,377.0
2,19,Male,527,6,house,6,1,house,1,10,713.0,487.0
2,19,Male,528,55,car,6,1,car,1,10,498.0,468.0
2,19,Male,529,188,bridge,10,1,bridge,1,10,1190.0,539.0
2,19,Male,530,278,train,10,1,train,1,10,516.0,350.0
2,19,Male,531,5,house,6,1,house,1,10,675.0,878.0
2,19,Male,532,113,phone,10,1,house,0,0,6173.0,888.0
2,19,Male,533,385,knife,10,1,knife,1,10,532.0,440.0
2,19,Male,534,207,flower,6,1,flower,1,10,652.0,635.0
2,19,Male,535,366,knife,6,1,knife,1,10,510.0,464.0
2,19,Male,536,14,house,6,1,house,1,10,616.0,466.0
2,19,Male,537,29,house,10,1,house,1,10,687.0,501.0
2,19,Male,538,358,elephant,10,1,elephant,1,10,489.0,354.0
2,19,Male,539,124,bed,6,1,bed,1,10,672.0,602.0
2,19,Male,540,258,train,6,1,bed,0,10,686.0,531.0
2,19,Male,541,133,bed,6,1,bed,1,10,620.0,542.0
2,19,Male,542,122,bed,6,1,bed,1,10,481.0,490.0
2,19,Male,543,66,car,10,1,car,1,9,524.0,485.0
2,19,Male,544,359,elephant,10,1,elephant,1,10,511.0,320.0
2,19,Male,545,182,bridge,10,1,bridge,1,0,1914.0,416.0
2,19,Male,546,380,knife,10,1,knife,1,10,596.0,567.0
2,19,Male,547,338,elephant,6,1,elephant,1,10,491.0,305.0
2,19,Male,548,256,train,6,1,train,1,10,525.0,295.0
2,19,Male,549,163,bridge,6,1,bridge,1,10,578.0,524.0
2,19,Male,550,293,cat,6,1,bridge,0,1,987.0,552.0
2,19,Male,551,83,phone,6,1,phone,1,10,484.0,423.0
2,19,Male,552,44,car,6,1,car,1,10,458.0,496.0
2,19,Male,553,383,knife,10,1,knife,1,10,632.0,549.0
2,19,Male,554,382,knife,10,1,knife,1,0,983.0,535.0
2,19,Male,555,146,bed,10,1,bridge,0,0,835.0,449.0
2,19,Male,556,318,cat,10,1,house,0,1,1320.0,1356.0
2,19,Male,557,201,flower,6,1,flower,1,10,605.0,965.0
2,19,Male,558,351,elephant,10,1,elephant,1,10,478.0,317.0
2,19,Male,559,51,car,6,1,car,1,10,481.0,428.0
2,19,Male,560,208,flower,6,1,flower,1,1,701.0,344.0
2,19,Male,561,39,house,10,1,house,1,10,583.0,569.0
2,19,Male,562,341,elephant,10,1,elephant,1,10,774.0,331.0
2,19,Male,563,205,flower,6,1,flower,1,1,781.0,406.0
2,19,Male,564,363,knife,6,1,phone,0,1,663.0,886.0
2,19,Male,565,265,train,10,1,train,1,1,824.0,602.0
2,19,Male,566,110,phone,10,1,knife,0,0,692.0,987.0
2,19,Male,567,53,car,6,1,car,1,10,596.0,510.0
2,19,Male,568,365,knife,6,1,phone,0,0,2709.0,1019.0
2,19,Male,569,20,house,10,1,house,1,10,637.0,727.0
2,19,Male,570,111,phone,10,1,house,0,1,2653.0,866.0
2,19,Male,571,187,bridge,10,1,house,0,10,786.0,1308.0
2,19,Male,572,378,knife,6,1,knife,1,10,643.0,493.0
2,19,Male,573,364,knife,6,1,phone,0,2,703.0,547.0
2,19,Male,574,393,knife,10,1,knife,1,10,712.0,540.0
2,19,Male,575,314,cat,10,1,cat,1,10,815.0,490.0
2,19,Male,576,342,elephant,10,1,bridge,0,1,2428.0,564.0
2,19,Male,577,306,cat,10,1,cat,1,10,879.0,496.0
2,19,Male,578,152,bed,10,1,knife,0,1,1090.0,502.0
2,19,Male,579,56,car,6,1,car,1,10,530.0,643.0
2,19,Male,580,355,elephant,10,1,elephant,1,10,783.0,347.0
2,19,Male,581,243,train,6,1,train,1,10,499.0,328.0
2,19,Male,582,167,bridge,6,1,bridge,1,10,576.0,828.0
2,19,Male,583,223,flower,10,1,flower,1,10,964.0,593.0
2,19,Male,584,298,cat,6,1,cat,1,10,642.0,454.0
2,19,Male,585,376,knife,6,1,knife,1,10,589.0,497.0
2,19,Male,586,367,knife,6,1,knife,1,10,525.0,529.0
2,19,Male,587,282,cat,6,1,cat,1,10,734.0,351.0
2,19,Male,588,285,cat,6,1,cat,1,10,481.0,370.0
2,19,Male,589,109,phone,10,1,cat,0,10,596.0,385.0
2,19,Male,590,269,train,10,1,train,1,0,496.0,1300.0
2,19,Male,591,23,house,10,1,house,1,10,642.0,689.0
2,19,Male,592,154,bed,10,1,bed,1,10,625.0,587.0
2,19,Male,593,356,elephant,10,1,elephant,1,10,449.0,332.0
2,19,Male,594,116,phone,10,1,phone,1,1,1043.0,583.0
2,19,Male,595,241,train,6,1,train,1,10,544.0,302.0
2,19,Male,596,277,train,10,1,flower,0,0,2352.0,460.0
2,19,Male,597,68,car,10,1,car,1,10,1069.0,472.0
2,19,Male,598,198,bridge,10,1,bed,0,0,627.0,1133.0
2,19,Male,599,4,house,6,1,house,1,10,771.0,648.0
2,19,Male,600,316,cat,10,1,bed,0,1,1268.0,722.0
2,19,Male,601,339,elephant,6,1,elephant,1,10,475.0,373.0
2,19,Male,602,317,cat,10,1,cat,1,10,397.0,505.0
2,19,Male,603,275,train,10,1,train,1,10,579.0,322.0
2,19,Male,604,57,car,6,1,car,1,10,548.0,874.0
2,19,Male,605,84,phone,6,1,knife,0,1,2032.0,557.0
2,19,Male,606,230,flower,10,1,flower,1,10,521.0,558.0
2,19,Male,607,271,train,10,1,train,1,10,497.0,345.0
2,19,Male,608,28,house,10,1,elephant,0,10,461.0,348.0
2,19,Male,609,177,bridge,6,1,bridge,1,0,840.0,726.0
2,19,Male,610,137,bed,6,1,bed,1,10,459.0,612.0
2,19,Male,611,280,cat,6,1,cat,1,10,805.0,977.0
2,19,Male,612,19,house,6,1,cat,0,1,1767.0,763.0
2,19,Male,613,211,flower,6,1,flower,1,10,682.0,566.0
2,19,Male,614,322,elephant,6,1,bed,0,1,1123.0,532.0
2,19,Male,615,397,knife,10,1,knife,1,10,860.0,523.0
2,19,Male,616,104,phone,10,1,bed,0,10,665.0,565.0
2,19,Male,617,78,car,10,1,car,1,10,598.0,474.0
2,19,Male,618,325,elephant,6,1,elephant,1,10,552.0,403.0
2,19,Male,619,354,elephant,10,1,cat,0,10,593.0,727.0
2,19,Male,620,90,phone,6,1,bed,0,1,863.0,557.0
2,19,Male,621,115,phone,10,1,phone,1,10,732.0,420.0
2,19,Male,622,231,flower,10,1,cat,0,1,780.0,641.0
2,19,Male,623,45,car,6,1,car,1,10,501.0,457.0
2,19,Male,624,183,bridge,10,1,bridge,1,1,719.0,409.0
2,19,Male,625,209,flower,6,1,flower,1,10,671.0,780.0
2,19,Male,626,261,train,10,1,train,1,1,954.0,665.0
2,19,Male,627,294,cat,6,1,cat,1,1,739.0,634.0
2,19,Male,628,260,train,10,1,train,1,10,1100.0,1300.0
2,19,Male,629,287,cat,6,1,elephant,0,10,463.0,341.0
2,19,Male,630,395,knife,10,1,knife,1,1,777.0,467.0
2,19,Male,631,8,house,6,1,house,1,10,605.0,475.0
2,19,Male,632,189,bridge,10,1,house,0,1,2072.0,458.0
2,19,Male,633,390,knife,10,1,knife,1,10,462.0,461.0
2,19,Male,634,362,knife,6,1,phone,0,0,494.0,1025.0
2,19,Male,635,162,bridge,6,1,bridge,1,10,689.0,782.0
2,19,Male,636,303,cat,10,1,cat,1,10,631.0,740.0
2,19,Male,637,214,flower,6,1,flower,1,1,1517.0,614.0
2,19,Male,638,168,bridge,6,1,bridge,1,10,597.0,485.0
2,19,Male,639,172,bridge,6,1,bridge,1,10,568.0,830.0
2,19,Male,640,87,phone,6,1,phone,1,1,1097.0,607.0
2,19,Male,641,31,house,10,1,house,1,10,692.0,527.0
2,19,Male,642,392,knife,10,1,knife,1,10,1022.0,464.0
2,19,Male,643,43,car,6,1,phone,0,1,2031.0,561.0
2,19,Male,644,332,elephant,6,1,cat,0,1,781.0,503.0
2,19,Male,645,250,train,6,1,train,1,10,552.0,325.0
2,19,Male,646,105,phone,10,1,phone,1,1,1486.0,705.0
2,19,Male,647,97,phone,6,1,phone,1,10,496.0,357.0
2,19,Male,648,372,knife,6,1,knife,1,10,725.0,455.0
2,19,Male,649,190,bridge,10,1,house,0,1,1139.0,487.0
2,19,Male,650,54,car,6,1,car,1,10,718.0,565.0
2,19,Male,651,377,knife,6,1,knife,1,10,796.0,460.0
2,19,Male,652,13,house,6,1,house,1,1,1391.0,675.0
2,19,Male,653,321,elephant,6,1,cat,0,10,925.0,387.0
2,19,Male,654,42,car,6,1,car,1,10,540.0,572.0
2,19,Male,655,3,house,6,1,house,1,10,574.0,514.0
2,19,Male,656,233,flower,10,1,knife,0,0,2445.0,789.0
2,19,Male,657,158,bed,10,1,bed,1,10,633.0,683.0
2,19,Male,658,307,cat,10,1,cat,1,10,685.0,466.0
2,19,Male,659,161,bridge,6,1,bridge,1,10,672.0,518.0
2,19,Male,660,368,knife,6,1,knife,1,10,575.0,531.0
2,19,Male,661,119,phone,10,1,phone,1,10,518.0,423.0
2,19,Male,662,34,house,10,1,cat,0,0,6386.0,641.0
2,19,Male,663,224,flower,10,1,flower,1,1,932.0,884.0
2,19,Male,664,202,flower,6,1,flower,1,10,385.0,1326.0
2,19,Male,665,399,knife,10,1,cat,0,10,487.0,389.0
2,19,Male,666,219,flower,6,1,flower,1,10,910.0,851.0
2,19,Male,667,333,elephant,6,1,elephant,1,10,592.0,370.0
2,19,Male,668,370,knife,6,1,knife,1,10,657.0,588.0
2,19,Male,669,288,cat,6,1,cat,1,1,572.0,570.0
2,19,Male,670,9,house,6,1,house,1,1,921.0,453.0
2,19,Male,671,304,cat,10,1,cat,1,10,704.0,913.0
2,19,Male,672,150,bed,10,1,cat,0,0,834.0,533.0
2,19,Male,673,81,phone,6,1,phone,1,9,880.0,578.0
2,19,Male,674,262,train,10,1,house,0,10,960.0,598.0
2,19,Male,675,259,train,6,1,train,1,10,467.0,327.0
2,19,Male,676,334,elephant,6,1,elephant,1,10,501.0,357.0
2,19,Male,677,340,elephant,10,1,elephant,1,10,442.0,328.0
2,19,Male,678,74,car,10,1,car,1,10,473.0,680.0
2,19,Male,679,135,bed,6,1,bed,1,10,663.0,663.0
2,19,Male,680,222,flower,10,1,flower,1,0,3433.0,459.0
2,19,Male,681,175,bridge,6,1,bridge,1,10,756.0,590.0
2,19,Male,682,350,elephant,10,1,elephant,1,10,450.0,359.0
2,19,Male,683,164,bridge,6,1,bridge,1,10,2453.0,624.0
2,19,Male,684,2,house,6,1,house,1,10,579.0,586.0
2,19,Male,685,10,house,6,1,cat,0,0,871.0,634.0
2,19,Male,686,91,phone,6,1,phone,1,10,817.0,418.0
2,19,Male,687,27,house,10,1,bridge,0,10,814.0,842.0
2,19,Male,688,234,flower,10,1,flower,1,0,587.0,543.0
2,19,Male,689,300,cat,10,1,cat,1,10,689.0,419.0
2,19,Male,690,235,flower,10,1,phone,0,1,1800.0,1372.0
2,19,Male,691,117,phone,10,1,phone,1,10,879.0,425.0
2,19,Male,692,96,phone,6,1,phone,1,10,888.0,792.0
2,19,Male,693,312,cat,10,1,cat,1,10,485.0,713.0
2,19,Male,694,18,house,6,1,house,1,10,698.0,894.0
2,19,Male,695,12,house,6,1,house,1,10,923.0,989.0
2,19,Male,696,99,phone,6,1,phone,1,10,1251.0,415.0
2,19,Male,697,159,bed,10,1,bridge,0,0,665.0,813.0
2,19,Male,698,315,cat,10,1,cat,1,1,654.0,510.0
2,19,Male,699,75,car,10,1,car,1,10,524.0,535.0
2,19,Male,700,107,phone,10,1,phone,1,10,616.0,429.0
2,19,Male,701,93,phone,6,1,phone,1,10,537.0,444.0
2,19,Male,702,79,car,10,1,car,1,10,507.0,441.0
2,19,Male,703,7,house,6,1,house,1,10,567.0,508.0
2,19,Male,704,217,flower,6,1,flower,1,10,538.0,484.0
2,19,Male,705,252,train,6,1,train,1,10,381.0,274.0
2,19,Male,706,369,knife,6,1,knife,1,1,994.0,887.0
2,19,Male,707,24,house,10,1,house,1,10,535.0,487.0
2,19,Male,708,94,phone,6,1,phone,1,10,525.0,345.0
2,19,Male,709,238,flower,10,1,flower,1,10,516.0,541.0
2,19,Male,710,349,elephant,10,1,elephant,1,10,670.0,333.0
2,19,Male,711,263,train,10,1,elephant,0,1,1530.0,507.0
2,19,Male,712,15,house,6,1,house,1,10,483.0,422.0
2,19,Male,713,192,bridge,10,1,cat,0,1,720.0,499.0
2,19,Male,714,142,bed,10,1,bed,1,1,564.0,424.0
2,19,Male,715,132,bed,6,1,bed,1,10,509.0,760.0
2,19,Male,716,73,car,10,1,car,1,10,629.0,504.0
2,19,Male,717,72,car,10,1,car,1,10,485.0,475.0
2,19,Male,718,77,car,10,1,car,1,10,416.0,622.0
2,19,Male,719,328,elephant,6,1,elephant,1,10,682.0,293.0
2,19,Male,720,346,elephant,10,1,elephant,1,10,548.0,278.0
2,19,Male,721,329,elephant,6,1,elephant,1,10,462.0,280.0
2,19,Male,722,254,train,6,1,train,1,1,1052.0,545.0
2,19,Male,723,196,bridge,10,1,train,0,10,978.0,293.0
2,19,Male,724,181,bridge,10,1,house,0,1,798.0,338.0
2,19,Male,725,229,flower,10,1,flower,1,10,651.0,1303.0
2,19,Male,726,139,bed,6,1,bed,1,10,715.0,580.0
2,19,Male,727,236,flower,10,1,flower,1,1,939.0,369.0
2,19,Male,728,166,bridge,6,1,bridge,1,10,678.0,555.0
2,19,Male,729,246,train,6,1,train,1,10,411.0,287.0
2,19,Male,730,357,elephant,10,1,elephant,1,10,491.0,278.0
2,19,Male,731,337,elephant,6,1,elephant,1,10,410.0,263.0
2,19,Male,732,204,flower,6,1,flower,1,1,1013.0,471.0
2,19,Male,733,70,car,10,1,car,1,10,555.0,430.0
2,19,Male,734,32,house,10,1,bridge,0,2,716.0,447.0
2,19,Male,735,292,cat,6,1,cat,1,0,1111.0,450.0
2,19,Male,736,21,house,10,1,house,1,10,685.0,928.0
2,19,Male,737,375,knife,6,1,phone,0,1,1027.0,514.0
2,19,Male,738,302,cat,10,1,cat,1,0,916.0,474.0
2,19,Male,739,323,elephant,6,1,elephant,1,10,649.0,321.0
2,19,Male,740,120,bed,6,1,bed,1,10,543.0,559.0
2,19,Male,741,284,cat,6,1,cat,1,1,1626.0,538.0
2,19,Male,742,47,car,6,1,car,1,10,479.0,717.0
2,19,Male,743,33,house,10,1,house,1,1,680.0,588.0
2,19,Male,744,281,cat,6,1,cat,1,10,558.0,558.0
2,19,Male,745,301,cat,10,1,phone,0,1,1210.0,508.0
2,19,Male,746,173,bridge,6,1,bridge,1,1,885.0,675.0
2,19,Male,747,311,cat,10,1,cat,1,1,716.0,463.0
2,19,Male,748,384,knife,10,1,cat,0,1,744.0,462.0
2,19,Male,749,272,train,10,1,car,0,10,562.0,511.0
2,19,Male,750,82,phone,6,1,phone,1,10,536.0,368.0
2,19,Male,751,283,cat,6,1,cat,1,10,451.0,416.0
2,19,Male,752,143,bed,10,1,bed,1,9,712.0,504.0
2,19,Male,753,160,bridge,6,1,train,0,1,1833.0,611.0
2,19,Male,754,268,train,10,1,house,0,1,739.0,426.0
2,19,Male,755,379,knife,6,1,knife,1,10,536.0,506.0
2,19,Male,756,348,elephant,10,1,elephant,1,10,449.0,326.0
2,19,Male,757,203,flower,6,1,flower,1,10,568.0,520.0
2,19,Male,758,270,train,10,1,house,0,10,692.0,489.0
2,19,Male,759,352,elephant,10,1,elephant,1,10,509.0,335.0
2,19,Male,760,237,flower,10,1,flower,1,10,571.0,463.0
2,19,Male,761,165,bridge,6,1,bridge,1,10,606.0,540.0
2,19,Male,762,103,phone,10,1,phone,1,10,700.0,346.0
2,19,Male,763,186,bridge,10,1,train,0,0,585.0,1298.0
2,19,Male,764,279,train,10,1,bridge,0,1,1092.0,518.0
2,19,Male,765,88,phone,6,1,phone,1,10,546.0,761.0
2,19,Male,766,185,bridge,10,1,house,0,1,707.0,426.0
2,19,Male,767,101,phone,10,1,phone,1,1,585.0,773.0
2,19,Male,768,63,car,10,1,car,1,10,574.0,503.0
2,19,Male,769,212,flower,6,1,flower,1,1,1024.0,614.0
2,19,Male,770,0,house,6,1,house,1,1,581.0,384.0
2,19,Male,771,108,phone,10,1,phone,1,10,587.0,496.0
2,19,Male,772,264,train,10,1,train,1,10,1308.0,383.0
2,19,Male,773,228,flower,10,1,flower,1,0,1100.0,387.0
2,19,Male,774,102,phone,10,1,house,0,1,1170.0,440.0
2,19,Male,775,89,phone,6,1,phone,1,10,631.0,506.0
2,19,Male,776,100,phone,10,1,phone,1,10,723.0,668.0
2,19,Male,777,290,cat,6,1,cat,1,1,1357.0,474.0
2,19,Male,778,240,train,6,1,train,1,10,570.0,329.0
2,19,Male,779,199,bridge,10,1,house,0,1,819.0,392.0
2,19,Male,780,361,knife,6,1,knife,1,10,585.0,553.0
2,19,Male,781,225,flower,10,1,flower,1,10,887.0,690.0
2,19,Male,782,327,elephant,6,1,cat,0,1,993.0,469.0
2,19,Male,783,16,house,6,1,house,1,10,561.0,747.0
2,19,Male,784,193,bridge,10,1,cat,0,1,727.0,549.0
2,19,Male,785,394,knife,10,1,knife,1,10,414.0,474.0
2,19,Male,786,216,flower,6,1,house,0,0,527.0,890.0
2,19,Male,787,215,flower,6,1,flower,1,10,464.0,609.0
2,19,Male,788,353,elephant,10,1,elephant,1,10,572.0,299.0
2,19,Male,789,80,phone,6,1,phone,1,10,532.0,326.0
2,19,Male,790,331,elephant,6,1,elephant,1,10,434.0,331.0
2,19,Male,791,299,cat,6,1,cat,1,10,639.0,375.0
2,19,Male,792,38,house,10,1,flower,0,0,1134.0,536.0
2,19,Male,793,387,knife,10,1,knife,1,10,573.0,558.0
2,19,Male,794,147,bed,10,1,bed,1,10,679.0,497.0
2,19,Male,795,267,train,10,1,train,1,10,431.0,307.0
2,19,Male,796,213,flower,6,1,flower,1,10,1042.0,584.0
2,19,Male,797,123,bed,6,1,bed,1,10,826.0,482.0
2,19,Male,798,49,car,6,1,car,1,10,462.0,701.0
2,19,Male,799,180,bridge,10,1,bridge,1,10,730.0,713.0
2,19,Male,800,273,train,10,1,train,1,10,499.0,592.0
3,21,Female,1,163,bridge,6,0,bridge,1,10,1025.0,648.0
3,21,Female,2,160,bridge,6,0,bridge,1,5,1808.0,797.0
3,21,Female,3,310,cat,10,0,bed,0,9,1174.0,797.0
3,21,Female,4,73,car,10,0,flower,0,10,1077.0,765.0
3,21,Female,5,93,phone,6,0,bridge,0,3,5624.0,1215.0
3,21,Female,6,55,car,6,0,car,1,10,1076.0,698.0
3,21,Female,7,272,train,10,0,flower,0,9,907.0,864.0
3,21,Female,8,378,knife,6,0,knife,1,10,941.0,863.0
3,21,Female,9,42,car,6,0,car,1,10,991.0,664.0
3,21,Female,10,181,bridge,10,0,train,0,6,3124.0,1031.0
3,21,Female,11,291,cat,6,0,car,0,5,1507.0,847.0
3,21,Female,12,254,train,6,0,train,1,8,958.0,648.0
3,21,Female,13,241,train,6,0,train,1,10,1057.0,480.0
3,21,Female,14,287,cat,6,0,elephant,0,10,875.0,564.0
3,21,Female,15,59,car,6,0,car,1,10,975.0,631.0
3,21,Female,16,94,phone,6,0,cat,0,7,5824.0,580.0
3,21,Female,17,51,car,6,0,car,1,8,1025.0,698.0
3,21,Female,18,26,house,10,0,house,1,6,1524.0,932.0
3,21,Female,19,260,train,10,0,bridge,0,1,3125.0,798.0
3,21,Female,20,106,phone,10,0,bed,0,2,4624.0,931.0
3,21,Female,21,108,phone,10,0,cat,0,4,1808.0,647.0
3,21,Female,22,170,bridge,6,0,bridge,1,6,2359.0,814.0
3,21,Female,23,148,bed,10,0,bed,1,7,1457.0,781.0
3,21,Female,24,47,car,6,0,car,1,10,874.0,648.0
3,21,Female,25,205,flower,6,0,flower,1,10,1075.0,1181.0
3,21,Female,26,112,phone,10,0,train,0,4,2390.0,931.0
3,21,Female,27,155,bed,10,0,cat,0,1,1742.0,581.0
3,21,Female,28,89,phone,6,0,phone,1,6,1758.0,1048.0
3,21,Female,29,81,phone,6,0,flower,0,3,3123.0,998.0
3,21,Female,30,325,elephant,6,0,elephant,1,5,2441.0,698.0
3,21,Female,31,9,house,6,0,flower,0,7,1291.0,713.0
3,21,Female,32,375,knife,6,0,knife,1,6,1790.0,1047.0
3,21,Female,33,198,bridge,10,0,bridge,1,8,1141.0,2365.0
3,21,Female,34,104,phone,10,0,phone,1,6,2042.0,781.0
3,21,Female,35,64,car,10,0,elephant,0,8,1957.0,797.0
3,21,Female,36,233,flower,10,0,flower,1,7,3324.0,731.0
3,21,Female,37,83,phone,6,0,phone,1,8,923.0,631.0
3,21,Female,38,71,car,10,0,car,1,4,1824.0,665.0
3,21,Female,39,352,elephant,10,0,elephant,1,10,974.0,598.0
3,21,Female,40,317,cat,10,0,cat,1,10,741.0,697.0
3,21,Female,41,124,bed,6,0,bed,1,10,1041.0,798.0
3,21,Female,42,252,train,6,0,train,1,10,757.0,613.0
3,21,Female,43,334,elephant,6,0,bridge,0,3,2474.0,931.0
3,21,Female,44,382,knife,10,0,house,0,1,6407.0,731.0
3,21,Female,45,270,train,10,0,bridge,0,3,3924.0,948.0
3,21,Female,46,154,bed,10,0,bed,1,10,857.0,814.0
3,21,Female,47,314,cat,10,0,flower,0,4,3307.0,1330.0
3,21,Female,48,356,elephant,10,0,elephant,1,10,790.0,497.0
3,21,Female,49,30,house,10,0,elephant,0,9,2208.0,631.0
3,21,Female,50,347,elephant,10,0,bed,0,6,2524.0,981.0
3,21,Female,51,343,elephant,10,0,cat,0,5,1820.0,864.0
3,21,Female,52,276,train,10,0,train,1,8,1092.0,614.0
3,21,Female,53,359,elephant,10,0,cat,0,8,1260.0,764.0
3,21,Female,54,174,bridge,6,0,bridge,1,9,1157.0,581.0
3,21,Female,55,206,flower,6,0,flower,1,10,891.0,614.0
3,21,Female,56,86,phone,6,0,phone,1,10,1859.0,631.0
3,21,Female,57,283,cat,6,0,cat,1,9,824.0,647.0
3,21,Female,58,264,train,10,0,train,1,10,1190.0,431.0
3,21,Female,59,14,house,6,0,elephant,0,3,2040.0,1065.0
3,21,Female,60,199,bridge,10,0,bridge,1,6,3241.0,799.0
3,21,Female,61,357,elephant,10,0,car,0,4,2122.0,1114.0
3,21,Female,62,88,phone,6,0,phone,1,10,725.0,597.0
3,21,Female,63,102,phone,10,0,car,0,8,1023.0,614.0
3,21,Female,64,265,train,10,0,train,1,9,907.0,532.0
3,21,Female,65,277,train,10,0,flower,0,4,1807.0,764.0
3,21,Female,66,329,elephant,6,0,elephant,1,10,824.0,564.0
3,21,Female,67,379,knife,6,0,knife,1,10,774.0,714.0
3,21,Female,68,144,bed,10,0,phone,0,6,1541.0,797.0
3,21,Female,69,151,bed,10,0,bed,1,10,1057.0,1548.0
3,21,Female,70,169,bridge,6,0,bridge,1,10,925.0,698.0
3,21,Female,71,187,bridge,10,0,train,0,7,1307.0,930.0
3,21,Female,72,117,phone,10,0,phone,1,9,807.0,915.0
3,21,Female,73,257,train,6,0,train,1,10,792.0,465.0
3,21,Female,74,322,elephant,6,0,house,0,8,1457.0,815.0
3,21,Female,75,321,elephant,6,0,cat,0,1,2274.0,964.0
3,21,Female,76,213,flower,6,0,flower,1,10,842.0,647.0
3,21,Female,77,262,train,10,0,elephant,0,3,1709.0,981.0
3,21,Female,78,175,bridge,6,0,bridge,1,10,807.0,747.0
3,21,Female,79,52,car,6,0,car,1,10,1358.0,531.0
3,21,Female,80,24,house,10,0,train,0,9,1358.0,431.0
3,21,Female,81,2,house,6,0,house,1,10,941.0,1065.0
3,21,Female,82,43,car,6,0,cat,0,1,2474.0,1048.0
3,21,Female,83,150,bed,10,0,house,0,1,2290.0,647.0
3,21,Female,84,6,house,6,0,house,1,9,1011.0,697.0
3,21,Female,85,80,phone,6,0,train,0,4,4108.0,1464.0
3,21,Female,86,34,house,10,0,flower,0,1,2506.0,564.0
3,21,Female,87,134,bed,6,0,bed,1,8,1975.0,848.0
3,21,Female,88,330,elephant,6,0,elephant,1,10,724.0,531.0
3,21,Female,89,147,bed,10,0,bed,1,7,1039.0,1532.0
3,21,Female,90,365,knife,6,0,car,0,3,1624.0,1281.0
3,21,Female,91,354,elephant,10,0,elephant,1,8,1041.0,632.0
3,21,Female,92,97,phone,6,0,phone,1,10,1040.0,547.0
3,21,Female,93,331,elephant,6,0,elephant,1,10,758.0,1447.0
3,21,Female,94,316,cat,10,0,bed,0,6,1341.0,1081.0
3,21,Female,95,374,knife,6,0,knife,1,10,791.0,681.0
3,21,Female,96,202,flower,6,0,flower,1,10,825.0,864.0
3,21,Female,97,116,phone,10,0,phone,1,6,974.0,747.0
3,21,Female,98,72,car,10,0,car,1,7,1008.0,697.0
3,21,Female,99,20,house,10,0,house,1,3,2891.0,748.0
3,21,Female,100,201,flower,6,0,flower,1,10,675.0,781.0
3,21,Female,101,153,bed,10,0,bed,1,10,1189.0,914.0
3,21,Female,102,289,cat,6,0,house,0,8,4924.0,847.0
3,21,Female,103,244,train,6,0,train,1,9,841.0,497.0
3,21,Female,104,161,bridge,6,0,bridge,1,9,959.0,781.0
3,21,Female,105,336,elephant,6,0,cat,0,7,941.0,698.0
3,21,Female,106,135,bed,6,0,bed,1,10,1191.0,782.0
3,21,Female,107,101,phone,10,0,knife,0,7,1640.0,615.0
3,21,Female,108,203,flower,6,0,flower,1,10,874.0,866.0
3,21,Female,109,162,bridge,6,0,bridge,1,8,1774.0,697.0
3,21,Female,110,100,phone,10,0,cat,0,8,875.0,647.0
3,21,Female,111,249,train,6,0,house,0,3,2758.0,431.0
3,21,Female,112,388,knife,10,0,bed,0,1,1607.0,531.0
3,21,Female,113,133,bed,6,0,bed,1,10,775.0,914.0
3,21,Female,114,303,cat,10,0,cat,1,7,1308.0,764.0
3,21,Female,115,5,house,6,0,house,1,4,1040.0,914.0
3,21,Female,116,18,house,6,0,house,1,7,775.0,546.0
3,21,Female,117,141,bed,10,0,cat,0,7,874.0,1015.0
3,21,Female,118,190,bridge,10,0,house,0,4,2457.0,1081.0
3,21,Female,119,370,knife,6,0,knife,1,10,775.0,814.0
3,21,Female,120,226,flower,10,0,flower,1,10,1008.0,815.0
3,21,Female,121,143,bed,10,0,bed,1,5,1558.0,965.0
3,21,Female,122,36,house,10,0,house,1,8,1076.0,731.0
3,21,Female,123,41,car,6,0,bed,0,8,1440.0,648.0
3,21,Female,124,96,phone,6,0,phone,1,10,1158.0,564.0
3,21,Female,125,328,elephant,6,0,elephant,1,9,942.0,481.0
3,21,Female,126,177,bridge,6,0,bridge,1,8,1057.0,831.0
3,21,Female,127,111,phone,10,0,cat,0,4,892.0,1314.0
3,21,Female,128,284,cat,6,0,cat,1,5,2358.0,1115.0
3,21,Female,129,46,car,6,0,car,1,10,1091.0,813.0
3,21,Female,130,282,cat,6,0,cat,1,7,1076.0,532.0
3,21,Female,131,339,elephant,6,0,elephant,1,10,573.0,531.0
3,21,Female,132,16,house,6,0,house,1,10,1008.0,515.0
3,21,Female,133,275,train,10,0,bridge,0,6,1241.0,831.0
3,21,Female,134,85,phone,6,0,phone,1,10,1141.0,831.0
3,21,Female,135,381,knife,10,0,knife,1,8,1209.0,498.0
3,21,Female,136,98,phone,6,0,phone,1,10,790.0,714.0
3,21,Female,137,12,house,6,0,house,1,4,2508.0,1065.0
3,21,Female,138,229,flower,10,0,flower,1,10,961.0,764.0
3,21,Female,139,395,knife,10,0,knife,1,10,1224.0,1248.0
3,21,Female,140,278,train,10,0,cat,0,3,1506.0,781.0
3,21,Female,141,107,phone,10,0,phone,1,10,842.0,631.0
3,21,Female,142,10,house,6,0,train,0,6,2408.0,1131.0
3,21,Female,143,389,knife,10,0,knife,1,10,791.0,681.0
3,21,Female,144,139,bed,6,0,bed,1,5,1840.0,1181.0
3,21,Female,145,324,elephant,6,0,elephant,1,8,979.0,943.0
3,21,Female,146,74,car,10,0,car,1,10,924.0,665.0
3,21,Female,147,327,elephant,6,0,elephant,1,8,791.0,698.0
3,21,Female,148,239,flower,10,0,flower,1,7,2292.0,1281.0
3,21,Female,149,166,bridge,6,0,bridge,1,6,1924.0,531.0
3,21,Female,150,341,elephant,10,0,elephant,1,10,691.0,548.0
3,21,Female,151,60,car,10,0,car,1,10,1488.0,781.0
3,21,Female,152,238,flower,10,0,flower,1,10,857.0,731.0
3,21,Female,153,56,car,6,0,car,1,10,924.0,614.0
3,21,Female,154,377,knife,6,0,knife,1,10,975.0,714.0
3,21,Female,155,146,bed,10,0,cat,0,3,975.0,681.0
3,21,Female,156,70,car,10,0,car,1,8,776.0,664.0
3,21,Female,157,255,train,6,0,train,1,10,725.0,530.0
3,21,Female,158,32,house,10,0,train,0,7,1007.0,865.0
3,21,Female,159,319,cat,10,0,elephant,0,8,791.0,581.0
3,21,Female,160,320,elephant,6,0,bridge,0,3,1674.0,998.0
3,21,Female,161,230,flower,10,0,flower,1,10,874.0,731.0
3,21,Female,162,307,cat,10,0,cat,1,3,1375.0,981.0
3,21,Female,163,76,car,10,0,bridge,0,3,1192.0,379.0
3,21,Female,164,67,car,10,0,car,1,10,674.0,647.0
3,21,Female,165,351,elephant,10,0,elephant,1,10,641.0,547.0
3,21,Female,166,138,bed,6,0,bed,1,7,1091.0,867.0
3,21,Female,167,132,bed,6,0,bed,1,8,943.0,648.0
3,21,Female,168,120,bed,6,0,bed,1,8,825.0,814.0
3,21,Female,169,227,flower,10,0,flower,1,9,808.0,748.0
3,21,Female,170,105,phone,10,0,train,0,7,1357.0,631.0
3,21,Female,171,385,knife,10,0,knife,1,9,758.0,514.0
3,21,Female,172,127,bed,6,0,bed,1,8,1008.0,664.0
3,21,Female,173,137,bed,6,0,bed,1,9,1308.0,664.0
3,21,Female,174,114,phone,10,0,bridge,0,6,1692.0,581.0
3,21,Female,175,397,knife,10,0,phone,0,3,1024.0,514.0
3,21,Female,176,338,elephant,6,0,elephant,1,10,758.0,614.0
3,21,Female,177,121,bed,6,0,bed,1,10,1023.0,797.0
3,21,Female,178,91,phone,6,0,phone,1,10,941.0,448.0
3,21,Female,179,326,elephant,6,0,elephant,1,10,808.0,565.0
3,21,Female,180,8,house,6,0,house,1,10,1008.0,748.0
3,21,Female,181,393,knife,10,0,knife,1,10,825.0,1014.0
3,21,Female,182,224,flower,10,0,flower,1,6,1107.0,664.0
3,21,Female,183,17,house,6,0,house,1,10,891.0,698.0
3,21,Female,184,129,bed,6,0,bed,1,7,1059.0,564.0
3,21,Female,185,219,flower,6,0,flower,1,10,759.0,814.0
3,21,Female,186,40,car,6,0,cat,0,0,3841.0,1613.0
3,21,Female,187,7,house,6,0,house,1,10,792.0,1048.0
3,21,Female,188,11,house,6,0,house,1,10,858.0,582.0
3,21,Female,189,305,cat,10,0,cat,1,3,1423.0,548.0
3,21,Female,190,269,train,10,0,train,1,5,1508.0,1048.0
3,21,Female,191,131,bed,6,0,bed,1,10,857.0,1297.0
3,21,Female,192,208,flower,6,0,flower,1,9,742.0,531.0
3,21,Female,193,290,cat,6,0,train,0,3,1575.0,781.0
3,21,Female,194,191,bridge,10,0,elephant,0,8,808.0,780.0
3,21,Female,195,200,flower,6,0,flower,1,9,959.0,612.0
3,21,Female,196,355,elephant,10,0,cat,0,7,974.0,464.0
3,21,Female,197,103,phone,10,0,phone,1,10,690.0,615.0
3,21,Female,198,194,bridge,10,0,cat,0,1,2274.0,864.0
3,21,Female,199,223,flower,10,0,flower,1,10,674.0,613.0
3,21,Female,200,285,cat,6,0,cat,1,10,807.0,514.0
3,21,Female,201,297,cat,6,0,cat,1,10,1521.0,915.0
3,21,Female,202,92,phone,6,0,phone,1,10,809.0,514.0
3,21,Female,203,63,car,10,0,car,1,10,1342.0,664.0
3,21,Female,204,66,car,10,0,car,1,8,793.0,481.0
3,21,Female,205,189,bridge,10,0,house,0,2,2425.0,564.0
3,21,Female,206,300,cat,10,0,house,0,1,975.0,498.0
3,21,Female,207,1,house,6,0,house,1,4,724.0,664.0
3,21,Female,208,142,bed,10,0,bed,1,7,1240.0,548.0
3,21,Female,209,237,flower,10,0,flower,1,10,690.0,581.0
3,21,Female,210,196,bridge,10,0,train,0,2,1508.0,814.0
3,21,Female,211,313,cat,10,0,cat,1,7,1174.0,965.0
3,21,Female,212,54,car,6,0,flower,0,7,1473.0,782.0
3,21,Female,213,39,house,10,0,house,1,9,840.0,1180.0
3,21,Female,214,304,cat,10,0,cat,1,10,708.0,564.0
3,21,Female,215,184,bridge,10,0,bridge,1,4,1375.0,465.0
3,21,Female,216,188,bridge,10,0,bridge,1,3,790.0,464.0
3,21,Female,217,312,cat,10,0,knife,0,7,1441.0,547.0
3,21,Female,218,337,elephant,6,0,elephant,1,9,740.0,531.0
3,21,Female,219,346,elephant,10,0,elephant,1,9,824.0,447.0
3,21,Female,220,279,train,10,0,knife,0,3,1290.0,964.0
3,21,Female,221,240,train,6,0,flower,0,8,1374.0,648.0
3,21,Female,222,384,knife,10,0,elephant,0,8,806.0,765.0
3,21,Female,223,253,train,6,0,train,1,7,1758.0,448.0
3,21,Female,224,210,flower,6,0,flower,1,10,841.0,714.0
3,21,Female,225,61,car,10,0,car,1,10,875.0,597.0
3,21,Female,226,21,house,10,0,house,1,6,1108.0,730.0
3,21,Female,227,218,flower,6,0,bed,0,7,1009.0,714.0
3,21,Female,228,157,bed,10,0,house,0,3,1658.0,914.0
3,21,Female,229,386,knife,10,0,phone,0,4,908.0,1464.0
3,21,Female,230,33,house,10,0,elephant,0,8,1257.0,647.0
3,21,Female,231,212,flower,6,0,flower,1,10,792.0,681.0
3,21,Female,232,399,knife,10,0,cat,0,7,709.0,548.0
3,21,Female,233,243,train,6,0,train,1,8,807.0,1481.0
3,21,Female,234,125,bed,6,0,flower,0,7,1423.0,615.0
3,21,Female,235,180,bridge,10,0,bridge,1,2,1724.0,597.0
3,21,Female,236,367,knife,6,0,knife,1,8,775.0,597.0
3,21,Female,237,246,train,6,0,train,1,8,1907.0,697.0
3,21,Female,238,362,knife,6,0,knife,1,9,724.0,697.0
3,21,Female,239,251,train,6,0,train,1,8,725.0,581.0
3,21,Female,240,25,house,10,0,bridge,0,6,1140.0,1314.0
3,21,Female,241,390,knife,10,0,knife,1,10,875.0,648.0
3,21,Female,242,90,phone,6,0,bed,0,8,1507.0,598.0
3,21,Female,243,267,train,10,0,train,1,6,891.0,731.0
3,21,Female,244,353,elephant,10,0,elephant,1,10,1008.0,514.0
3,21,Female,245,364,knife,6,0,phone,0,9,2023.0,614.0
3,21,Female,246,274,train,10,0,house,0,1,7660.0,630.0
3,21,Female,247,186,bridge,10,0,bridge,1,2,1090.0,715.0
3,21,Female,248,118,phone,10,0,phone,1,10,807.0,531.0
3,21,Female,249,171,bridge,6,0,bridge,1,10,874.0,498.0
3,21,Female,250,302,cat,10,0,cat,1,7,857.0,631.0
3,21,Female,251,225,flower,10,0,flower,1,10,1187.0,1131.0
3,21,Female,252,296,cat,6,0,cat,1,7,690.0,601.0
3,21,Female,253,179,bridge,6,0,bridge,1,3,1107.0,631.0
3,21,Female,254,363,knife,6,0,knife,1,9,774.0,715.0
3,21,Female,255,167,bridge,6,0,bridge,1,6,775.0,582.0
3,21,Female,256,350,elephant,10,0,elephant,1,10,607.0,514.0
3,21,Female,257,19,house,6,0,house,1,10,855.0,614.0
3,21,Female,258,207,flower,6,0,flower,1,10,642.0,665.0
3,21,Female,259,361,knife,6,0,knife,1,10,908.0,514.0
3,21,Female,260,250,train,6,0,train,1,10,857.0,431.0
3,21,Female,261,37,house,10,0,bridge,0,3,2007.0,782.0
3,21,Female,262,193,bridge,10,0,bridge,1,1,792.0,647.0
3,21,Female,263,280,cat,6,0,elephant,0,6,775.0,714.0
3,21,Female,264,373,knife,6,0,phone,0,2,3140.0,698.0
3,21,Female,265,273,train,10,0,train,1,9,908.0,697.0
3,21,Female,266,220,flower,10,0,flower,1,10,807.0,864.0
3,21,Female,267,78,car,10,0,car,1,10,991.0,598.0
3,21,Female,268,221,flower,10,0,flower,1,10,774.0,764.0
3,21,Female,269,0,house,6,0,elephant,0,6,1141.0,698.0
3,21,Female,270,231,flower,10,0,bridge,0,1,2776.0,981.0
3,21,Female,271,311,cat,10,0,bed,0,1,2007.0,498.0
3,21,Female,272,109,phone,10,0,knife,0,1,1692.0,597.0
3,21,Female,273,235,flower,10,0,flower,1,1,2075.0,665.0
3,21,Female,274,145,bed,10,0,bridge,0,1,1191.0,531.0
3,21,Female,275,247,train,6,0,train,1,3,1207.0,698.0
3,21,Female,276,216,flower,6,0,flower,1,9,657.0,681.0
3,21,Female,277,164,bridge,6,0,bridge,1,3,1441.0,531.0
3,21,Female,278,215,flower,6,0,flower,1,10,690.0,548.0
3,21,Female,279,268,train,10,0,house,0,3,1525.0,864.0
3,21,Female,280,366,knife,6,0,knife,1,8,858.0,564.0
3,21,Female,281,156,bed,10,0,bed,1,10,708.0,514.0
3,21,Female,282,228,flower,10,0,flower,1,10,823.0,515.0
3,21,Female,283,110,phone,10,0,train,0,2,1927.0,750.0
3,21,Female,284,158,bed,10,0,bed,1,5,957.0,1031.0
3,21,Female,285,299,cat,6,0,cat,1,4,841.0,1147.0
3,21,Female,286,204,flower,6,0,flower,1,2,2891.0,1264.0
3,21,Female,287,53,car,6,0,car,1,6,1008.0,614.0
3,21,Female,288,126,bed,6,0,bed,1,6,1323.0,598.0
3,21,Female,289,292,cat,6,0,flower,0,1,1675.0,1214.0
3,21,Female,290,301,cat,10,0,phone,0,3,1624.0,514.0
3,21,Female,291,333,elephant,6,0,elephant,1,7,892.0,497.0
3,21,Female,292,35,house,10,0,house,1,6,1158.0,664.0
3,21,Female,293,236,flower,10,0,flower,1,10,741.0,498.0
3,21,Female,294,315,cat,10,0,cat,1,6,1108.0,881.0
3,21,Female,295,295,cat,6,0,cat,1,4,890.0,631.0
3,21,Female,296,261,train,10,0,train,1,7,941.0,915.0
3,21,Female,297,348,elephant,10,0,elephant,1,8,658.0,547.0
3,21,Female,298,259,train,6,0,train,1,8,741.0,448.0
3,21,Female,299,178,bridge,6,0,bridge,1,6,940.0,847.0
3,21,Female,300,248,train,6,0,train,1,7,925.0,431.0
3,21,Female,301,149,bed,10,0,bed,1,1,1804.0,597.0
3,21,Female,302,49,car,6,0,car,1,8,841.0,865.0
3,21,Female,303,211,flower,6,0,bridge,0,3,1393.0,381.0
3,21,Female,304,294,cat,6,0,flower,0,2,1241.0,331.0
3,21,Female,305,15,house,6,0,house,1,8,708.0,798.0
3,21,Female,306,360,knife,6,0,knife,1,10,758.0,746.0
3,21,Female,307,266,train,10,0,train,1,3,2975.0,947.0
3,21,Female,308,332,elephant,6,0,house,0,1,1508.0,1014.0
3,21,Female,309,306,cat,10,0,cat,1,2,1541.0,1281.0
3,21,Female,310,263,train,10,0,train,1,4,1024.0,581.0
3,21,Female,311,122,bed,6,0,bed,1,10,841.0,581.0
3,21,Female,312,222,flower,10,0,flower,1,10,924.0,731.0
3,21,Female,313,123,bed,6,0,bed,1,7,1375.0,665.0
3,21,Female,314,31,house,10,0,train,0,3,1540.0,564.0
3,21,Female,315,286,cat,6,0,bed,0,6,1256.0,682.0
3,21,Female,316,69,car,10,0,car,1,6,958.0,497.0
3,21,Female,317,335,elephant,6,0,elephant,1,10,608.0,514.0
3,21,Female,318,185,bridge,10,0,train,0,2,1992.0,781.0
3,21,Female,319,68,car,10,0,car,1,4,792.0,548.0
3,21,Female,320,50,car,6,0,car,1,10,692.0,999.0
3,21,Female,321,4,house,6,0,house,1,10,757.0,581.0
3,21,Female,322,271,train,10,0,train,1,10,1225.0,482.0
3,21,Female,323,369,knife,6,0,knife,1,6,1174.0,481.0
3,21,Female,324,23,house,10,0,house,1,3,1675.0,1031.0
3,21,Female,325,209,flower,6,0,flower,1,9,1257.0,615.0
3,21,Female,326,192,bridge,10,0,elephant,0,2,1374.0,765.0
3,21,Female,327,95,phone,6,0,phone,1,10,708.0,581.0
3,21,Female,328,82,phone,6,0,phone,1,10,691.0,481.0
3,21,Female,329,57,car,6,0,car,1,10,1175.0,614.0
